time,seconds_elapsed,z,y,x
1772796821301004300,0.06300439453125,6.778395818790793,5.27845302862227,-1.1993642449654638
1772796821310996500,0.07299658203125,6.677793756356835,4.572718250149488,-1.2064540570959448
1772796821320988400,0.082988525390625,7.150276828315854,3.9681913910493254,-1.0400009276136755
1772796821330981400,0.0929814453125,6.948871043395996,3.919798531541228,-1.0806458033435047
1772796821340973300,0.102973388671875,5.3714300030052655,3.7674955079644916,-1.003987803337723
1772796821350965500,0.112965576171875,3.403428387060761,3.5258956598222255,-0.7065506249003112
1772796821360957400,0.12295751953125,1.7452116822123527,3.389932361149788,-0.0783494602240622
1772796821370949600,0.13294970703125,0.5198381128519773,3.146651428052783,0.3911696473628282
1772796821380941300,0.14294140625,-0.5300567245274782,2.1305590531624854,0.06094663613289594
1772796821390934500,0.1529345703125,-2.0967349633634087,-0.20229045879989863,-0.2577002113327384
1772796821400926500,0.162926513671875,-3.386456793993711,-3.867871652688086,0.4251386985905468
1772796821410918400,0.17291845703125,-3.7054637069433927,-6.187993054372072,1.695461124484986
1772796821420910300,0.182910400390625,-5.149696300327777,-6.035590077552199,2.411896599061787
1772796821430902500,0.192902587890625,-8.80433816705048,-4.323665747913718,2.752527022537589
1772796821440895500,0.2028955078125,-15.09166311779022,-1.1547899208322168,4.582492040666938
1772796821450887400,0.212887451171875,-22.478532779741286,-0.0229071205958724,4.91550409809351
1772796821460879600,0.222879638671875,-25.916339821743964,-0.8620166425526141,2.1899552449829875
1772796821470871600,0.23287158203125,-23.16009231737852,-3.6824984264194964,1.3894720985405147
1772796821480863200,0.24286328125,-19.132437222230433,-5.7321887300133705,2.7143305628731844
1772796821490856400,0.2528564453125,-21.2455142485857,-5.3181332971036435,2.996415858399868
1772796821500848600,0.2628486328125,-28.43998034723997,-3.6911183707267043,4.109271594344079
1772796821510840300,0.27284033203125,-34.276209297442435,-2.1171280553117393,5.444270782810449
1772796821520832500,0.28283251953125,-33.953522819197175,-2.2102456072092056,5.025554372352361
1772796821530824400,0.292824462890625,-26.578009248518942,-2.864358334994316,3.658360010462999
1772796821540817400,0.3028173828125,-14.749460622692107,-3.987043683296442,1.7898666703663766
1772796821550809300,0.312809326171875,-2.9819004263132807,-4.050560169917345,0.13809475774317978
1772796821560801500,0.322801513671875,2.3763199665069576,-2.99510594484508,-0.4669098018713295
1772796821570793500,0.33279345703125,4.077161761116981,-1.5104861037537454,-0.5320931987911462
1772796821580785400,0.342785400390625,4.21043742814064,0.5783861634105444,-0.5017625040657818
1772796821590777300,0.35277734375,3.977679642623663,2.4042452075257894,-0.38224370584636924
1772796821600770600,0.3627705078125,4.646235906302929,3.4319311357066034,-0.4350828772388398
1772796821610762200,0.37276220703125,6.773191235885023,3.994801165555417,-0.8479721889786421
1772796821620754400,0.38275439453125,10.028806896525621,4.213331103755533,-1.210522475578636
1772796821630746400,0.392746337890625,13.339476920390128,4.262915218874812,-1.4849799065753817
1772796821640738600,0.402738525390625,15.979860495781898,4.1881119068250054,-1.6831985858917236
1772796821650731500,0.4127314453125,17.681164062684772,3.9828222662091255,-1.6212050710543988
1772796821660723500,0.422723388671875,18.25217882054448,3.7345951088815927,-1.5625027067169546
1772796821670715400,0.43271533203125,17.90070347018838,3.667187460041046,-1.80092421708405
1772796821680707300,0.442707275390625,17.36829638314247,3.8921410015478726,-2.1106950996547935
1772796821690699300,0.45269921875,16.91366460969448,4.327530898909271,-2.114518895726651
1772796821700692500,0.4626923828125,16.129488747191427,4.667855617436766,-1.8354713604606687
1772796821710684400,0.472684326171875,15.167714091813563,5.002055423343181,-1.3688967818930744
1772796821720676400,0.48267626953125,14.04506030769348,5.400996289229393,-1.0634425934776663
1772796821730668500,0.49266845703125,12.588887685668467,5.295809237092733,-1.0918496266640723
1772796821740660500,0.502660400390625,10.903668992125988,4.977921099039912,-1.0492055399410427
1772796821750653400,0.5126533203125,9.452478834688662,4.915942489510774,-0.9855566591121255
1772796821760645400,0.522645263671875,8.35285521302223,4.883913028043509,-1.0627768230453134
1772796821770637600,0.532637451171875,7.352180625885724,4.551518810254335,-1.120723108318448
1772796821780629500,0.54262939453125,6.286273395860195,3.99385394783318,-0.8037693285062909
1772796821790621400,0.552621337890625,5.545061645814776,3.4576673422485587,-0.5351408228587359
1772796821800613400,0.56261328125,4.985684718778729,3.2314243454530835,-0.38970162063688035
1772796821810606600,0.572606689453125,3.9753427241086956,2.9669843044713136,-0.051439314531907435
1772796821820598300,0.582598388671875,2.2410984261125324,2.410710311886668,-0.03218969353027642
1772796821830590500,0.592590576171875,-0.2024199303984642,1.2075848146915436,-0.1573112801928073
1772796821840582400,0.60258251953125,-3.3568016604423523,-0.5424561873733997,-0.1999660344403237
1772796821850574600,0.61257470703125,-6.9352826630264515,-2.3232944787621497,0.32820312277488406
1772796821860567600,0.622567626953125,-9.650226681622863,-4.035286612939834,1.0899006114881484
1772796821870559500,0.6325595703125,-10.99631804972887,-5.611189191716909,1.3210107028633356
1772796821880551400,0.642551513671875,-11.07320956622958,-7.250678399741649,1.9956541775017975
1772796821890543400,0.65254345703125,-10.170388619601725,-7.3927873615622515,3.074429072406888
1772796821900535300,0.662535400390625,-9.949392583549022,-6.098699152415991,2.4518442863076926
1772796821910528500,0.672528564453125,-10.799400808399914,-7.059852461025119,1.5927537603348492
1772796821920520400,0.6825205078125,-9.377571185481548,-7.532469388496875,2.250357545106113
1772796821930512400,0.692512451171875,-6.935851987347006,-6.408926546582579,3.0823201179176567
1772796821940504600,0.702504638671875,-8.272096499699353,-3.917998496381938,1.9109046409770845
1772796821950496500,0.71249658203125,-16.08440808097124,0.3218435976803303,0.41317017450779675
1772796821960489500,0.722489501953125,-27.306917397308347,4.611870695364475,1.352813662098348
1772796821970481400,0.7324814453125,-33.86505660023689,5.951864915639161,3.1585332967653867
1772796821980473600,0.7424736328125,-32.26707662968635,4.234209641133249,4.334474142175913
1772796821990465300,0.75246533203125,-26.06219439983368,2.700259659683704,4.446093565447629
1772796822000457500,0.76245751953125,-17.783882094359395,1.1867672867860644,2.90969823667258
1772796822010450400,0.772450439453125,-9.186331989789009,0.4000662897195667,1.3737351618349551
1772796822020442400,0.7824423828125,-3.2693624464422464,-0.09090221393555402,-0.13218608168866486
1772796822030434300,0.792434326171875,1.3865408673942088,0.1383121998861432,-0.827937189752981
1772796822040426500,0.802426513671875,4.717578556504845,0.8506745798051357,-1.0075438153188676
1772796822050418400,0.81241845703125,6.696524760311841,1.3482400705724953,-1.5916114584319292
1772796822060410600,0.82241064453125,8.469019586247205,1.5067014706484974,-1.8980723396718502
1772796822070403300,0.8324033203125,10.452792187297344,1.4613890414990485,-1.6909484693661332
1772796822080395500,0.8423955078125,12.75658350868821,1.1731019687227904,-1.1710468628238886
1772796822090387500,0.852387451171875,15.096245769405364,0.9250541134849191,-0.6865805806696414
1772796822100379400,0.86237939453125,17.11553392047286,1.0570715971410274,-0.43060061725825066
1772796822110371300,0.872371337890625,18.44983255945444,1.5593153088524936,-0.7871300361335277
1772796822120364500,0.882364501953125,19.48718355708122,2.311881688866019,-1.5522801495186984
1772796822130356500,0.8923564453125,20.098993266665936,3.284586611320078,-2.052662889663875
1772796822140348400,0.902348388671875,19.89477768502235,4.275597005793452,-2.083869928832352
1772796822150340600,0.912340576171875,18.645386695736647,4.8518043638601895,-1.793364449354261
1772796822160331800,0.922331787109375,16.608001746964455,5.059392344546318,-1.266792205941677
1772796822170324700,0.93232470703125,14.25244867415428,5.128232072016597,-0.8284742192391306
1772796822180317000,0.94231689453125,11.995130350124835,5.1870583549946545,-0.6456121720738709
1772796822190308900,0.952308837890625,10.261141488194465,5.294371313244104,-0.5234424209542572
1772796822200301000,0.962301025390625,9.121523709791898,5.448375295519829,-0.4159852319285273
1772796822210292700,0.972292724609375,8.311681491112708,5.214640189403295,-0.36728031079657375
1772796822220285000,0.982284912109375,7.7558777463883155,4.738255433830618,-0.4651552132889628
1772796822230278000,0.99227783203125,7.0910887262880795,4.197331570591032,-0.3014412264470011
1772796822240269800,1.002269775390625,6.106121995893121,3.2674934376999736,-0.06455028664804995
1772796822250261800,1.01226171875,4.810021277880669,2.1721572840943932,-0.04740129118748009
1772796822260254000,1.02225390625,3.151131203815341,0.7990688957303762,-0.129599681924656
1772796822270246000,1.032245849609375,0.7400783621013164,-0.5546807320438325,-0.17490224726721643
1772796822280238800,1.04223876953125,-2.245420965486765,-1.4605031985752284,-0.5094894815886393
1772796822290230800,1.052230712890625,-6.655966539952159,-2.272605763401836,-1.166098665831983
1772796822300223000,1.062222900390625,-12.539134351462126,-4.039293218232691,-1.0417551508698613
1772796822310214700,1.072214599609375,-17.047464008331296,-6.757514358803629,-0.3311865955650806
1772796822320206800,1.082206787109375,-18.005543316322566,-9.283802768459916,0.6281001885198056
1772796822330199800,1.09219970703125,-15.850758315050602,-9.301003494107723,1.781755698494613
1772796822340191700,1.102191650390625,-11.199758555346726,-7.14763537389636,2.0700845645859838
1772796822350183700,1.11218359375,-7.664050526562333,-7.836518970811366,0.3934166956372559
1772796822360175900,1.12217578125,-6.313001828309893,-9.3677406963408,-0.9449966851867735
1772796822370167800,1.132167724609375,-5.064660055816173,-7.375052967429161,0.6806010678686201
1772796822380159700,1.14215966796875,-6.373239147129654,-5.408986703461408,2.913471325470507
1772796822390153000,1.152153076171875,-12.587918548375367,-2.7087898798808454,2.876316483813524
1772796822400145000,1.162144775390625,-22.803269760775564,1.2002167701415718,2.1424115496501326
1772796822410136800,1.17213671875,-31.042564061069488,3.4528836151033637,2.896799299871921
1772796822420128800,1.182128662109375,-31.632393409514425,2.433937896608561,4.292912589992582
1772796822430121000,1.192120849609375,-25.67880415430069,0.7571741660699248,4.4819113132819535
1772796822440113700,1.20211376953125,-17.20369268091917,-0.19849413525685666,3.1392958045929666
1772796822450105900,1.21210595703125,-9.182534351071714,-1.058704897431284,1.6248011958502233
1772796822460097800,1.222097900390625,-3.08593246319592,-1.7617264714226126,0.5478889530118555
1772796822470090000,1.232090087890625,1.9526579163402318,-1.616613067089021,-0.5626461944976822
1772796822480082000,1.24208203125,5.797690252971649,-0.5369567131742835,-1.53453143459931
1772796822490075000,1.252074951171875,7.194090835601091,0.1634086472198367,-2.0720945892341436
1772796822500066800,1.26206689453125,6.746817023700475,0.7672904864147305,-1.9466835181057451
1772796822510058800,1.272058837890625,6.326523573184013,1.0241219520889222,-1.7111276263028383
1772796822520050700,1.28205078125,7.58033588604331,1.1885326159581542,-1.199129632491991
1772796822530043000,1.29204296875,10.234024348688125,1.203915478529036,-0.8376819733716547
1772796822540034800,1.302034912109375,13.381150993037224,0.9120145991697907,-0.70045888389647
1772796822550027800,1.31202783203125,16.530363211488723,0.680473495966196,-0.49536480238530783
1772796822560019700,1.322019775390625,19.139014262533188,0.7746075314298272,-0.4788511091535911
1772796822570012000,1.332011962890625,21.155219645154475,1.2268296133875847,-0.6951030559517443
1772796822580003800,1.34200390625,22.301214557373523,1.8489108338788152,-1.167646772056818
1772796822589995800,1.351995849609375,22.248577192163467,2.880627040489018,-1.3794716596603394
1772796822599989000,1.361989013671875,20.835628794836996,3.7491196010574694,-1.3034709545195102
1772796822609981000,1.37198095703125,18.33138855085969,3.7177816289857026,-1.4492605045489966
1772796822619972900,1.381972900390625,15.8418829346776,3.8322806993469594,-1.4294099950447678
1772796822629964800,1.39196484375,13.802792351031302,3.8697611196964976,-1.2064536187045276
1772796822639956700,1.401956787109375,12.520752307075261,3.972116163277626,-0.5335330954011529
1772796822649949700,1.41194970703125,11.462191348159312,4.058995405307412,0.22577428330518304
1772796822659942000,1.42194189453125,9.867325710237026,4.0474294706761835,0.342753553109616
1772796822669933800,1.431933837890625,7.743197713035345,4.27819286750555,0.03259688609167933
1772796822679926000,1.441926025390625,5.0601680050939315,4.496420607888698,0.06467778548523784
1772796822689917700,1.451917724609375,2.1680197458982464,4.40100325461626,0.18406455482281744
1772796822699910000,1.461909912109375,-0.4576023136913776,4.108520483715832,0.13761303864084184
1772796822709902800,1.47190283203125,-2.2797996204286815,3.54330681335032,0.08310534951426088
1772796822719894800,1.481894775390625,-2.9164725531131026,3.425117071777582,0.5905845507264137
1772796822729886700,1.49188671875,-3.8976714554071425,2.9389596947312353,0.8787393023598938
1772796822739879000,1.50187890625,-6.1559057252377265,0.6895138576425611,0.6010980536952615
1772796822749870800,1.511870849609375,-8.653917303958535,-1.9711980738982557,0.4223875732515007
1772796822759863800,1.52186376953125,-10.19858011034131,-3.7541535035714504,0.35891755612082776
1772796822769855700,1.531855712890625,-10.21881508911848,-3.9204099414378404,-0.4857718848600983
1772796822779848000,1.541847900390625,-9.964272172772883,-3.1464585358291863,-0.6266860839381814
1772796822789840000,1.55183984375,-10.895001701545715,-1.5216286984063685,0.9599418869927525
1772796822799831800,1.561831787109375,-14.31365863739848,0.07019611051529645,2.7403642910569905
1772796822809825000,1.571824951171875,-18.062799573504925,0.21449980590119958,2.658870249196887
1772796822819816700,1.581816650390625,-19.128188917136193,-1.1685893136039376,2.5905747116059064
1772796822829808600,1.59180859375,-17.134394103765487,-3.674209029240906,3.3573476038873196
1772796822839800800,1.60180078125,-14.837936194002628,-4.129081041185557,3.6957103746920823
1772796822849792800,1.611792724609375,-17.294189528924225,-2.6677836234927175,3.6089141347706315
1772796822859785000,1.621784912109375,-23.180817125499246,-0.47103287315070624,4.438999515533447
1772796822869778000,1.63177783203125,-27.377957849693296,0.46107232788950203,5.740236427390575
1772796822879769900,1.641769775390625,-26.374848144364357,-0.01662365641221404,5.823252564251423
1772796822889762000,1.651761962890625,-21.61886942231655,-0.4177326601177454,4.635050495421886
1772796822899753700,1.661753662109375,-13.5202461599946,-1.6012170527756213,2.3120986926175653
1772796822909746000,1.671745849609375,-4.35212202706933,-1.8809331349529326,0.21145620042160151
1772796822919739000,1.68173876953125,0.8948001372575759,-1.5746961255967615,-1.3475417130447924
1772796822929730800,1.691730712890625,3.5629508404970167,-0.5671091287232936,-2.033074976618588
1772796822939722800,1.70172265625,4.294122842565178,0.4574503380000591,-2.110424904411286
1772796822949715000,1.71171484375,3.7289486274272203,1.1853892033658922,-2.080249984769523
1772796822959707000,1.721706787109375,3.20678411745429,1.9764340748555957,-1.742940376279503
1772796822969698800,1.73169873046875,3.4843934366106986,2.44862181712985,-1.625241925355047
1772796822979691800,1.74169189453125,4.899937695649266,2.8033418484956023,-1.692819231674075
1772796822989684000,1.75168408203125,7.410836228471994,3.064754650610685,-1.9700826600022612
1772796822999675600,1.761675537109375,10.329196202766894,2.8940689981251952,-2.4651132254645227
1772796823009667800,1.771667724609375,12.911313467150926,2.4547856004565953,-2.684344297671318
1772796823019659800,1.78165966796875,14.75419408095479,1.8545602379426358,-2.5619597347572443
1772796823029652700,1.79165283203125,15.906110199916363,1.2710562931269407,-2.3017875803530217
1772796823039644700,1.801644775390625,16.39560168982148,1.01980365049839,-2.311400042828917
1772796823049636900,1.811636962890625,16.460176161062716,1.361361125691235,-2.3437311175912616
1772796823059628800,1.82162890625,16.056479625082016,1.9712854599207639,-1.998352330544591
1772796823069620700,1.831620849609375,15.040249741417169,2.613468095937371,-1.546876975300908
1772796823079614000,1.841614013671875,13.449296893024444,3.237700649243593,-1.3308902918428183
1772796823089606000,1.85160595703125,11.805599127393961,3.681044720479846,-1.2288183029867707
1772796823099597800,1.861597900390625,10.544364555579424,3.9302977137237787,-1.1681255685497074
1772796823109589800,1.87158984375,10.069086299943923,4.121284103699028,-1.1816684292770923
1772796823119582000,1.88158203125,10.227332742094992,4.199527034808695,-1.0597110057339072
1772796823129574000,1.891573974609375,10.508415290319919,4.149484070006013,-0.9184750273555516
1772796823139566800,1.90156689453125,10.467795695161819,4.1943949326172465,-0.8575767604090273
1772796823149558800,1.911558837890625,9.602612697532772,4.111509728659689,-0.4138664131436497
1772796823159551000,1.921551025390625,8.288041672328115,3.75271850233227,0.007697641830518841
1772796823169543200,1.931543212890625,7.340715229019522,3.4325647574350238,-0.04273753716014325
1772796823179535400,1.941535400390625,6.440201974812149,3.273147225677967,-0.2921575575340539
1772796823189528300,1.9515283203125,4.2068788588762285,2.9096754403188823,-0.3551468054104596
1772796823199520300,1.961520263671875,0.6290209566265345,2.038314776968211,-0.41285270605646074
1772796823209512200,1.97151220703125,-4.020712728664279,0.7575447529479861,-0.0230144534278661
1772796823219504400,1.98150439453125,-8.859591852238774,-0.7345774265974759,0.5563556064534932
1772796823229496300,1.991496337890625,-11.97296528006792,-2.514682727536559,1.4788573320418594
1772796823239488300,2.00148828125,-13.17753629989624,-4.4249484860882164,3.1710446955531832
1772796823249481500,2.0114814453125,-13.291508716034889,-5.831126074105501,4.079584019827842
1772796823259473400,2.021473388671875,-14.293794245499372,-5.356228926742077,3.582506312577426
1772796823269465000,2.031465087890625,-16.842427757954596,-4.598081239464879,2.3977191667579114
1772796823279457300,2.041457275390625,-19.172268881881237,-6.921103331026434,2.5523791287243363
1772796823289449200,2.05144921875,-16.996355752384662,-7.111895367473363,2.2749882746241985
1772796823299442200,2.061442138671875,-10.077608629095554,-5.602113904857635,-0.21645400870889425
1772796823309434400,2.071434326171875,-6.265756677532195,-3.7039173542842265,-1.0837272566154599
1772796823319426300,2.08142626953125,-11.978230653250217,-1.5310535293556748,1.5075607178263366
1772796823329418500,2.09141845703125,-24.16683774886131,0.5388220686547458,5.9127393584311
1772796823339410400,2.101410400390625,-31.11956429864168,1.0297731097184122,9.226971458691358
1772796823349403400,2.1114033203125,-29.712348892009256,0.3146009330756962,9.057527330699562
1772796823359395300,2.121395263671875,-23.074810573673247,-0.8489186760485172,6.828827782911062
1772796823369387300,2.13138720703125,-12.698847943556308,-1.352099668610096,3.4324347013145684
1772796823379379200,2.141379150390625,-4.548198725920916,-1.5831458279035984,1.0251005147974936
1772796823389371400,2.151371337890625,0.819401489663124,-1.710392882287502,-0.18150069568417965
1772796823399363300,2.16136328125,4.67284568080902,-1.3558363709203898,-0.37043994387127455
1772796823409356300,2.171356201171875,7.265532270002365,-0.6421954954981803,-0.6608462007585912
1772796823419348200,2.18134814453125,8.729931453102827,0.4613011682093143,-1.141852478652075
1772796823429340400,2.19134033203125,9.35377062317729,1.5311337549850343,-1.337643857756257
1772796823439332400,2.201332275390625,9.903451501107215,2.5227795247524973,-1.479998464901
1772796823449324300,2.21132421875,10.395925221693515,3.1950171072930096,-1.4447848204396665
1772796823459317200,2.221317138671875,11.107861192893981,3.044236178717017,-1.211239245545864
1772796823469309400,2.231309326171875,12.03382102304697,2.498406423257291,-0.9707655518893152
1772796823479301000,2.241301025390625,13.181680560094117,2.181539152684808,-0.8967303016025573
1772796823489293300,2.251293212890625,14.509423201560974,2.2700103400811553,-1.033472402627766
1772796823499285200,2.26128515625,15.624003569340704,2.6083359937459227,-1.7406889440909028
1772796823509277400,2.27127734375,16.361220112270114,3.0851722924783824,-2.540845342797041
1772796823519270400,2.2812705078125,16.79674386514425,3.6882650271221995,-2.9659722048193213
1772796823529262300,2.291262451171875,16.59324140020609,4.472475084155798,-2.877506570380926
1772796823539254500,2.301254638671875,15.601117199271917,4.962020350074768,-2.4793439953908325
1772796823549246200,2.31124609375,14.09664670254588,5.267129086053371,-1.9810200874716042
1772796823559238400,2.32123828125,12.392412342888116,5.20418835349381,-1.3355058228142558
1772796823569231400,2.3312314453125,10.842633216404915,4.8684047855272885,-0.5864613333165645
1772796823579223300,2.341223388671875,9.293888693666458,4.633808094145357,0.13506225817948578
1772796823589215200,2.35121533203125,8.222108187693356,4.239366000983119,0.6089435064986348
1772796823599207400,2.36120751953125,7.796815905976295,4.062892705006897,0.4865653002601117
1772796823609199400,2.371199462890625,7.671320225304365,3.644047699733078,0.23509053931348026
1772796823619191300,2.38119140625,7.309564303952455,2.8518258934184906,0.369176499806717
1772796823629184300,2.391184326171875,6.237074188405275,2.449876785627007,0.38029410614855585
1772796823639176400,2.401176513671875,4.214311054703593,1.9568164973244069,0.1983054808169603
1772796823649168100,2.411168212890625,1.2878180428355932,1.2243293210044504,0.2512188134241849
1772796823659160300,2.421160400390625,-2.291674182617664,0.0793418322622776,0.2556313691694289
1772796823669152300,2.43115234375,-6.1641930765897035,-1.9040403081655501,0.11144355524815619
1772796823679145200,2.441145263671875,-10.114702388215065,-3.99696886498332,-0.07437478443942963
1772796823689137200,2.45113720703125,-13.779916502356528,-6.3544976217806335,-0.28452465150281786
1772796823699129300,2.46112939453125,-16.425626241207123,-7.981695503509044,-0.16283800772503018
1772796823709121300,2.471121337890625,-17.253442507994173,-7.917353087458014,1.0477317410614342
1772796823719113500,2.481113525390625,-16.205499973726273,-5.7289937333643435,2.0797525566413997
1772796823729106400,2.4911064453125,-14.45467454328537,-5.807970823967456,2.6064643546551465
1772796823739098400,2.501098388671875,-10.945596747273205,-8.539854286926984,2.7553981940597296
1772796823749090600,2.511090576171875,-5.256541641065478,-8.831943382334709,2.2980162451207637
1772796823759082200,2.521082275390625,-1.3542787662148474,-8.21175162885189,1.2451271943613886
1772796823769074400,2.531074462890625,-5.36536149674654,-6.684321112298965,0.45826012001298366
1772796823779066400,2.54106640625,-17.1663756344378,-3.2481939862072466,0.5502723410170525
1772796823789059300,2.551059326171875,-28.642624734044073,-0.18308569985330103,2.0864427019298075
1772796823799051300,2.56105126953125,-32.21364197661877,0.7314560797065496,4.966284437260032
1772796823809043500,2.57104345703125,-28.420132321953773,0.01504427826628089,5.674232215607166
1772796823819035400,2.581035400390625,-22.065797197258473,-0.09626754036098718,3.2188778753519056
1772796823829027300,2.59102734375,-13.305782740581035,-0.6153434366688132,1.259553048468381
1772796823839020300,2.601020263671875,-4.07477691180706,-0.3353999754764139,-0.27342092755585906
1772796823849012500,2.611012451171875,2.199053182065487,-0.08753463719859719,-1.8722709589391946
1772796823859004200,2.621004150390625,6.408388786444068,0.06769348004460335,-2.059173878993094
1772796823868996400,2.630996337890625,8.863755986180902,0.6020525779411197,-2.0123102748788892
1772796823878988300,2.64098828125,10.322245068454741,0.9722656542539596,-2.104292393005639
1772796823888980500,2.65098046875,10.772027648305892,1.3734066605329514,-2.2600267062053083
1772796823898973200,2.66097314453125,10.468694689828157,1.672576361851394,-1.4962518266960978
1772796823908965400,2.67096533203125,10.354258163309098,1.2348442852780221,-0.031248722885735332
1772796823918957300,2.680957275390625,11.157681162595749,0.6120420570358633,0.5363869504623114
1772796823928949200,2.69094921875,12.942400679332017,0.5154840092957019,0.7076906617809087
1772796823938941200,2.700941162109375,14.949530775094031,0.8661074189975857,0.7733912875078618
1772796823948934400,2.710934326171875,16.539196506285666,1.401544667519629,0.3625341391827911
1772796823958926300,2.72092626953125,17.775456795841453,1.9583099507525563,-0.008386281681805849
1772796823968918300,2.730918212890625,18.516968405616282,2.7303186978608367,-0.22916659262459724
1772796823978910200,2.74091015625,18.438988509356975,3.6655057905644175,-0.28937103208806364
1772796823988902400,2.75090234375,17.471203799909354,4.195007803818584,0.161252382501401
1772796823998894300,2.760894287109375,15.613863283598421,4.226886750899255,0.5960852305019274
1772796824008887300,2.77088720703125,13.418427122986316,4.075493535643815,0.7300554191283881
1772796824018879500,2.78087939453125,11.1596732131958,3.998257443489134,0.4015291653463617
1772796824028871400,2.790871337890625,9.532416294756532,4.084537842842936,-0.11747366572525351
1772796824038863400,2.80086328125,8.79135652040243,4.137002774095535,-0.5921870905522256
1772796824048855300,2.810855224609375,8.379543313461541,4.141123361156881,-1.19565742633678
1772796824058848300,2.82084814453125,7.925227181833982,4.25174792817235,-1.8307076531901953
1772796824068840200,2.830840087890625,7.243140405452251,4.369409554217755,-2.3058296953506767
1772796824078832400,2.840832275390625,5.770792309173942,4.364899675577878,-2.4752964735656975
1772796824088824300,2.85082421875,3.8246003739774226,4.172049537557363,-2.353762682262063
1772796824098816500,2.86081640625,1.864095835790038,3.941946065941453,-1.99425074044466
1772796824108808200,2.87080810546875,-0.28930151051580905,4.029742422816157,-1.9160086861178278
1772796824118801400,2.880801513671875,-3.4696804361253974,4.271588939195871,-1.8433406325310469
1772796824128793300,2.89079345703125,-7.233944707083702,3.409906058642268,-1.1612985720738769
1772796824138785300,2.900785400390625,-10.01793245128989,0.6745655870966613,-0.08421148412525653
1772796824148777200,2.910777099609375,-11.675768632388115,-2.6734447179943324,1.2514689646035433
1772796824158769400,2.920769287109375,-12.410367686295508,-4.853195233696699,2.198689024928212
1772796824168761900,2.930761962890625,-12.520940523123741,-4.839950259937345,2.160565484369546
1772796824178753500,2.94075341796875,-13.008817563569545,-2.8101825081706044,1.9333007433108984
1772796824188745700,2.950745849609375,-15.707449914312361,-1.8770780669599771,3.166708712175488
1772796824198737700,2.960737548828125,-17.803292897272108,-2.6970363137230278,2.6101702234357593
1772796824208729900,2.970729736328125,-15.407487309050559,-2.8158234366670247,1.113885955774784
1772796824218721500,2.980721435546875,-11.042130537354945,-5.594575326046347,1.7188000606268643
1772796824228714800,2.99071484375,-9.028768269205093,-6.390099096515774,2.2362939484402538
1772796824238706700,3.000706787109375,-13.419331962871551,-3.9216792307212947,3.117110860791802
1772796824248698600,3.01069873046875,-23.6530149507761,-0.3362485551297664,4.392985952377319
1772796824258690600,3.020690673828125,-30.669421653306483,1.9714915038868783,5.091488441509008
1772796824268682800,3.030682861328125,-29.84979336915016,1.7984283086150883,4.67500958084464
1772796824278675500,3.040675537109375,-23.970508536553382,0.6244308523572981,3.4119308424681423
1772796824288667600,3.050667724609375,-15.874737741053103,-0.24942542720139024,1.3464753989875315
1772796824298659600,3.06065966796875,-8.08150027808547,-0.6848952579312027,-0.5821104446306824
1772796824308651800,3.07065185546875,-1.0942787535071372,-1.0197913755387067,-2.2732653963543474
1772796824318643500,3.0806435546875,4.399907860594988,-1.0851261636279523,-2.7049080700114367
1772796824328635600,3.0906357421875,7.6021689476668834,-0.6715060533955692,-2.6347037761896845
1772796824338628900,3.10062890625,8.59413357412517,-0.030727731218934056,-2.563362879553437
1772796824348620500,3.11062060546875,8.28006879375279,0.7968678785547614,-2.7458722408235072
1772796824358612700,3.12061279296875,7.705822798886895,1.7679869931221008,-2.577570560865104
1772796824368604700,3.130604736328125,7.285975338572263,2.4830443112134932,-2.234493036498129
1772796824378596600,3.1405966796875,7.113060319599509,2.3649228125713764,-2.1666960960790513
1772796824388589600,3.150589599609375,8.033208248603344,1.8701158267319202,-1.781434795977175
1772796824398581800,3.160581787109375,10.101555321872233,1.658152699701488,-1.7372404110722244
1772796824408573700,3.17057373046875,12.323131301391124,1.580433792465925,-2.1903908599212762
1772796824418565600,3.180565673828125,14.314550617802142,1.7251979449704289,-2.985612140312791
1772796824428557600,3.1905576171875,15.928710154259203,2.071797798244655,-3.983292806330323
1772796824438549800,3.2005498046875,16.692335396164655,2.423485914568603,-4.6300998872771855
1772796824448542700,3.210542724609375,16.3678520976305,2.7522140110656617,-4.402169375786185
1772796824458534700,3.22053466796875,15.264791487252712,3.3848362070545552,-3.216507054567337
1772796824468526600,3.230526611328125,13.888983610796927,4.2323467698708175,-2.268804617553204
1772796824478518800,3.240518798828125,12.5011345834136,4.6729766137123105,-1.7159681982018054
1772796824488510700,3.2505107421875,11.200640014356374,4.768291383393109,-1.2260051452621816
1772796824498503700,3.260503662109375,10.090199230599403,4.847167059448361,-0.8871655507259071
1772796824508495600,3.27049560546875,9.376846378338337,4.5923643231227995,-0.2665809985332191
1772796824518487800,3.28048779296875,9.255759161758423,4.283988402041793,0.46584743333682416
1772796824528479500,3.2904794921875,9.468454402455688,4.228181174623966,0.7928415456481277
1772796824538471700,3.3004716796875,9.243090818843244,4.226257513085008,0.8297617017664015
1772796824548463600,3.310463623046875,8.165914591306448,3.9953023930758236,0.6341317237690091
1772796824558456600,3.32045654296875,6.733354900059104,3.3940988331794735,0.19291969612538815
1772796824568448500,3.330448486328125,4.9490246749013656,2.7992133703887463,-0.3803458363357931
1772796824578440700,3.340440673828125,2.405938275179267,2.281571306276321,-0.9039318304792046
1772796824588432600,3.3504326171875,-1.1041203485637903,1.4832470914334057,-0.6473268670372665
1772796824598424600,3.360424560546875,-5.3646501336067915,-0.06294584712609648,-0.09407923653647303
1772796824608416500,3.37041650390625,-9.330376888108253,-1.8814865310519933,-0.0524665386877954
1772796824618409700,3.38040966796875,-12.362420524728298,-3.7604362371027467,0.01885024642050266
1772796824628401700,3.390401611328125,-13.577362131923437,-5.367108632674813,0.2158374111805111
1772796824638393600,3.4003935546875,-13.383105634236335,-6.225279705715179,0.9924187999665737
1772796824648385800,3.4103857421875,-12.686364894080162,-5.030870598939061,2.633135211698711
1772796824658377700,3.420377685546875,-13.667187948799132,-4.050425437621772,3.899356339754164
1772796824668370700,3.43037060546875,-15.40978097294569,-6.072042616158724,4.914343822142482
1772796824678362600,3.440362548828125,-13.326428053724765,-6.6754375486195086,5.595274414226412
1772796824688354800,3.450354736328125,-7.957814861705899,-7.515678412693738,4.364357239264249
1772796824698346500,3.460346435546875,-5.381523526996374,-6.584240443390607,1.800096241827309
1772796824708338700,3.470338623046875,-10.612390044057369,-3.942685778392851,0.0773496355317533
1772796824718331600,3.48033154296875,-21.329690076875686,-1.667241576694697,2.0477771634489295
1772796824728323600,3.490323486328125,-28.92191864528656,-0.16785978140980004,5.984959375989437
1772796824738315500,3.5003154296875,-28.794090722274778,-0.49071767069920896,6.914328137803078
1772796824748307700,3.5103076171875,-23.600693227386472,-1.9490680751547216,5.2456642732203
1772796824758299600,3.520299560546875,-13.854796094512938,-2.3730197559177872,2.4051586691088973
1772796824768291600,3.53029150390625,-4.680750170323252,-2.5521032343924044,0.23849077621102333
1772796824778284500,3.540284423828125,1.3421113585591316,-2.3773439027272163,-0.5966016190588473
1772796824788276700,3.55027685546875,4.930879946401715,-1.7626631677508353,-0.5892176462873816
1772796824798268700,3.5602685546875,6.558001840284466,-1.1941298514433205,-0.7290260760806501
1772796824808260600,3.570260498046875,7.337079502865672,-0.31284312962293626,-1.0656091238617897
1772796824818252500,3.58025244140625,7.6204516233325,0.713553051008284,-1.1203056135587393
1772796824828244700,3.59024462890625,7.448179578438401,1.5721762517303228,-1.152703031555563
1772796824838237700,3.60023779296875,7.6028540073215956,2.0765268725931643,-1.1418494829773902
1772796824848229600,3.610229736328125,8.35439016750455,2.0931451221778987,-1.267157093731314
1772796824858221800,3.620221923828125,9.702187755006552,1.9729852495759725,-1.4376567221254108
1772796824868213800,3.6302138671875,11.168188528084753,1.9067396302521227,-1.7478635118953882
1772796824878205700,3.640205810546875,12.416175495791434,1.8668287678852675,-2.052506968449801
1772796824888198700,3.65019873046875,13.449897781527042,1.8669792822718618,-2.130811274357885
1772796824898190800,3.66019091796875,14.260124615609644,2.024036514638364,-2.03576640765965
1772796824908182500,3.6701826171875,14.829488683652876,2.410655951350927,-1.8648527916371822
1772796824918174700,3.6801748046875,15.070332744991779,2.8722634090304373,-1.977332485000044
1772796824928166700,3.690166748046875,15.080917267370223,3.4571693295985457,-2.158644160918146
1772796824938158800,3.700158935546875,14.652563259994983,4.219017917220294,-2.1622790102891623
1772796824948151600,3.710151611328125,13.523144219523667,4.908130938977003,-2.0188969597928224
1772796824958143700,3.720143798828125,11.783493678569792,5.070098447477817,-1.797508709552139
1772796824968135700,3.7301357421875,10.131881486552953,5.067397956347465,-1.5953794326633215
1772796824978127600,3.740127685546875,9.125326024684309,4.950705175334215,-1.4305980357855557
1772796824988119600,3.75011962890625,8.645544612410664,4.582996483057737,-1.0491051483064888
1772796824998112800,3.76011279296875,8.357032790967821,4.272140727859735,-0.5619922241009772
1772796825008104400,3.7701044921875,7.941174108028411,4.141940230497718,-0.3088362320691347
1772796825018096600,3.7800966796875,7.204149872800707,3.821533387622237,-0.36721689017154274
1772796825028088600,3.790088623046875,6.395972372463345,3.4422441476672887,-0.5387476882442832
1772796825038080800,3.800080810546875,5.236275682628154,3.0227219737842677,-0.6898716581042855
1772796825048072700,3.81007275390625,3.368092285263538,1.9354877319611608,-0.7042752273142338
1772796825058065700,3.820065673828125,0.8136094622582196,0.7241923723138869,-0.4434010621204972
1772796825068057900,3.830057861328125,-2.4357827938228844,-0.3152341164126992,-0.08295198558345436
1772796825078049500,3.840049560546875,-6.256060043904185,-1.3183774317502974,-0.029186127800121902
1772796825088041500,3.85004150390625,-10.134005639100074,-2.398648556562513,-0.41373124245665965
1772796825098033700,3.86003369140625,-12.483699464488028,-4.0884345580205315,-1.174995162058249
1772796825108026600,3.870026611328125,-12.553372135651111,-4.813667233167588,-0.9087401806090026
1772796825118018600,3.8800185546875,-11.029268717694283,-3.241665168960392,-0.5936861700035632
1772796825128010800,3.8900107421875,-9.399997536823152,-3.4303827372208238,0.7824785570658743
1772796825138002700,3.900002685546875,-7.47404876371026,-5.63194497949779,3.3576427874416113
1772796825147995000,3.909994873046875,-4.401895819541812,-6.011468028208613,5.0558115634500975
1772796825157986600,3.919986572265625,-3.2873183743715284,-5.429979222607613,5.193355993834138
1772796825167980300,3.929980224609375,-8.74049843982458,-3.3394586037144065,3.4291783298671246
1772796825177972000,3.939971923828125,-20.59855840681791,-0.24594657210968435,1.958224318295717
1772796825187964200,3.949964111328125,-33.795802446746826,2.5490169588148595,3.1046392094925044
1772796825197956000,3.9599560546875,-39.48722662017345,2.4995842348650097,5.198035091561079
1772796825207948300,3.9699482421875,-36.89954587644338,0.043064686755277214,5.361198531848192
1772796825217941000,3.97994091796875,-28.94315783267021,-1.1710926016617567,3.4012527965873476
1772796825227933200,3.98993310546875,-19.440253463602065,-1.7993955462120472,0.9947595178738236
1772796825237925000,3.999925048828125,-10.829303779232502,-2.641394798260927,-0.7897455523941666
1772796825247917000,4.0099169921875,-3.282812879645824,-3.241167448571324,-1.902600630751252
1772796825257909000,4.019908935546875,1.7555670720100403,-3.0510385522082446,-2.458775839136541
1772796825267901200,4.029901123046875,3.910807415834069,-2.3107918478026983,-2.5332529879719017
1772796825277894100,4.03989404296875,4.478278217476606,-1.0967682322353125,-2.4427963258467615
1772796825287886000,4.049885986328125,4.722855620124935,0.14668226108551025,-2.49052852948904
1772796825297878300,4.059878173828125,5.533177731275559,1.222947803518176,-2.304136481566727
1772796825307870200,4.0698701171875,7.353297647216916,2.2417383314512667,-2.0622899651870132
1772796825317862400,4.0798623046875,9.863704012608528,2.810873413044214,-2.1477438505887982
1772796825327855000,4.089855224609375,12.322806307220459,2.9976524144575,-2.258491751722991
1772796825337847300,4.099847412109375,14.478196873170136,2.992426204241812,-2.3545215378053483
1772796825347839200,4.109839111328125,16.748420271480082,2.920267561481893,-2.2586159626245497
1772796825357831200,4.1198310546875,18.987688559556005,3.1942417390063405,-1.8264630013577638
1772796825367823000,4.129822998046875,20.742738914215565,3.8182822768718,-1.5284965383492408
1772796825377815300,4.139815185546875,21.747005972886083,4.462459886097908,-1.58646298962757
1772796825387808000,4.14980810546875,21.896582786369322,4.966783034431934,-1.3900082512438297
1772796825397800200,4.15980029296875,20.572771639132498,5.545507636016607,-0.9811705529823899
1772796825407792000,4.169792236328125,18.435869500553608,5.893882682269811,-0.5133604778030887
1772796825417784300,4.179784423828125,16.276905167770384,6.191899998682737,-0.01853760027475655
1772796825427776000,4.18977587890625,14.520133980667591,6.402201622241735,0.5992339403238147
1772796825437768200,4.199768310546875,12.764999454855918,6.252346576339006,0.4835223523676395
1772796825447761200,4.20976123046875,10.980966166818142,6.066936232930422,0.15741488669775425
1772796825457753000,4.219753173828125,8.9468428501904,5.712967896714806,-0.1437480342645198
1772796825467745000,4.2297451171875,6.976357016214728,5.183508553558588,-0.19681513266135006
1772796825477737200,4.2397373046875,5.339711507183313,4.351044753226637,0.014482516197673975
1772796825487729200,4.249729248046875,3.833175310099125,3.4187241558700796,0.2846691014748067
1772796825497722000,4.25972216796875,2.27916716774404,2.452480830645561,0.8698338921748101
1772796825507714300,4.26971435546875,0.7039262677460908,1.4861799300149083,0.928232524325326
1772796825517706200,4.279706298828125,-1.572886445826292,0.428122390576452,0.2733784766536206
1772796825527698000,4.289697998046875,-4.746469719946385,-1.183171819577366,0.35566659150086344
1772796825537690000,4.299690185546875,-8.190002738380432,-2.9304227525323627,1.9364828804783523
1772796825547682000,4.30968212890625,-11.27058741080761,-4.8204167074278,3.27110899784863
1772796825557675000,4.319675048828125,-12.981091352254152,-6.623775750443339,3.374619641205668
1772796825567667200,4.329667236328125,-12.826521552789211,-7.4785893297493455,2.5811899204060436
1772796825577659100,4.3396591796875,-12.301090149974822,-5.269628501653671,0.6984865609101951
1772796825587651300,4.3496513671875,-13.735405160456896,-3.256264479938149,-0.7868778880033641
1772796825597643300,4.359643310546875,-15.07764160670042,-4.495050488579273,-1.0077097464703022
1772796825607635200,4.36963525390625,-14.415781625789403,-4.184528203119338,-0.8358137683469802
1772796825617628200,4.379628173828125,-14.735909067201613,-2.0338088438510895,0.3663381345756352
1772796825627620000,4.3896201171875,-20.956627164089678,1.239553485882282,3.029306905132532
1772796825637612000,4.399612060546875,-32.61067262496948,4.483581000059843,5.376608866947889
1772796825647604200,4.409604248046875,-41.45693913168907,6.1140188866227865,6.456826361876725
1772796825657596200,4.41959619140625,-40.22042749772071,4.309957248295843,6.840420605549216
1772796825667589000,4.429589111328125,-29.859257947587967,0.6758733086943626,5.719272549816965
1772796825677581000,4.4395810546875,-18.306551046723126,-1.5039965956039725,2.951925267027318
1772796825687573200,4.4495732421875,-8.948068592593073,-2.3188417371369896,0.913072437659651
1772796825697565200,4.459565185546875,-2.8036691807538268,-2.53826380187124,0.3455706563569605
1772796825707557000,4.46955712890625,2.303500814011693,-2.929555322048068,0.06650427026003598
1772796825717549000,4.479549072265625,6.4061196724683045,-2.2618792022041974,-0.2742763753414154
1772796825727542300,4.489542236328125,7.928809716495871,-1.2257235518418252,-1.0677825223781168
1772796825737534000,4.499533935546875,7.842275342381,-0.3174620215952396,-1.8342779128924012
1772796825747526100,4.509526123046875,7.422263631415366,1.004529216738045,-2.0432776600725946
1772796825757518000,4.51951806640625,7.823300008276105,1.9988877525955437,-1.8257243118196724
1772796825767510300,4.52951025390625,9.349081004056334,2.7939667019069194,-1.4745888609424234
1772796825777503200,4.539503173828125,11.121410410296916,3.254258400812745,-1.5457450486615298
1772796825787495200,4.5494951171875,12.902883492457866,3.076149904850125,-1.84506424145326
1772796825797487400,4.5594873046875,14.799135630965232,2.592397250857949,-2.1495041382595894
1772796825807479000,4.56947900390625,16.93643992060423,1.9784069823637604,-2.2059099160924553
1772796825817471200,4.57947119140625,19.04566494770646,1.7213170118838548,-2.3635407105632127
1772796825827463200,4.589463134765625,20.59246535063982,2.021716839519143,-2.820092492288351
1772796825837456100,4.5994560546875,21.31929260150194,2.499753453952074,-2.6131825569942593
1772796825847448000,4.609447998046875,20.743384226381778,3.3815698987349867,-2.0839137679740785
1772796825857440300,4.619440185546875,18.545857815492152,4.423235252429545,-1.6025927250429988
1772796825867432200,4.62943212890625,15.581813948386907,4.856592767180502,-1.0124567948669194
1772796825877424000,4.639424072265625,12.943727544021606,4.78940928248465,-0.2393087415304035
1772796825887417000,4.6494169921875,11.262523346817492,4.621981462751329,0.6453778518613428
1772796825897409300,4.6594091796875,10.633367365634442,4.691692420098185,1.3359309163585305
1772796825907401000,4.66940087890625,10.243763652414083,4.746554475620389,1.5069989922903477
1772796825917393200,4.67939306640625,9.11601985167861,4.50852138004899,0.8949929564159363
1772796825927385000,4.689385009765625,7.599211851426959,4.2063732474416495,0.44968569534793496
1772796825937377300,4.699377197265625,6.075543902277946,4.020395041017234,0.6042405164394528
1772796825947370000,4.709369873046875,4.554244435825944,3.6715783884763717,1.0490097251079975
1772796825957362200,4.719362060546875,3.120298258656263,2.8184152067258954,1.4187418860360979
1772796825967354000,4.72935400390625,1.5511188506543636,1.975965580561012,1.4940443797796963
1772796825977346300,4.73934619140625,-0.13453355813026427,0.9194966254882514,0.9093969640173017
1772796825987338000,4.749337890625,-2.1632395258843897,-0.6416894456721842,0.262477216476202
1772796825997330200,4.759330078125,-3.8072307215034957,-2.0616247792765496,-0.13439813171494752
1772796826007323400,4.769323486328125,-5.036269243112206,-3.4377272547647353,-0.1816053068361245
1772796826017315000,4.779315185546875,-6.32309827491045,-5.258638321083784,-0.08253752303104847
1772796826027307300,4.789307373046875,-8.391679741457104,-6.7974635073542595,-0.22109131312072275
1772796826037299200,4.79929931640625,-11.058412979114054,-7.35754069161415,-0.45221598101053384
1772796826047291100,4.809291015625,-13.522565542852877,-4.593768929223716,-0.151538688140735
1772796826057284000,4.8192841796875,-15.51518897435665,-2.1248281082950533,-0.28443697321936484
1772796826067276300,4.8292763671875,-16.216477294814585,-3.034278848326206,-0.46079424160048366
1772796826077268200,4.839268310546875,-14.989989042210578,-3.0589070936262606,-0.5828833286993205
1772796826087260200,4.84926025390625,-14.269860412204265,-2.349078469968587,-0.24542700521498917
1772796826097252000,4.859252197265625,-17.746320717728135,-1.156778318170458,1.2983737775109707
1772796826107244300,4.869244384765625,-25.574205131185053,0.8362586625702678,3.3982746575593947
1772796826117237000,4.879237060546875,-32.29440419707298,1.5191354202859102,4.97579753101468
1772796826127229200,4.889229248046875,-32.89825739469528,0.3892608180668205,5.4380263354629275
1772796826137221000,4.89922119140625,-27.318530678212642,-1.118310348088294,4.869947046533227
1772796826147213300,4.90921337890625,-19.565186834216117,-2.1007615885309874,2.9611475611418485
1772796826157205000,4.919205078125,-11.486332102203368,-3.0507793167501687,1.0292769967645405
1772796826167198000,4.929197998046875,-2.8311493083536625,-3.3649189159244295,-0.4963374102771282
1772796826177190100,4.939190185546875,3.148784932950139,-2.587438167145848,-1.300843528625369
1772796826187181800,4.949181884765625,6.1079141400068995,-1.5754880066268144,-1.4738678531914948
1772796826197174000,4.959174072265625,6.995517059236764,-0.7535840326234697,-1.2906724093534052
1772796826207166000,4.969166015625,6.8643234591841695,0.05495353319793939,-1.363591661222279
1772796826217158100,4.979158203125,7.0360729415088885,0.8222180083885788,-1.1897873652596025
1772796826227150800,4.98915087890625,7.6827067117154595,1.3607950162410736,-1.170571792658046
1772796826237143000,4.99914306640625,8.995062398958206,1.928807961936295,-1.350603877094388
1772796826247135000,5.009135009765625,10.65746486505866,2.472413903866708,-1.6065020074412226
1772796826257127200,5.019127197265625,12.208238847798109,2.6511995684385297,-1.6766360125057398
1772796826267118800,5.029118896484375,13.780655338025092,2.361903318619728,-1.8475579579651356
1772796826277111000,5.039111083984375,15.401548566651343,1.8379209455698728,-1.7172326651796697
1772796826287104300,5.049104248046875,16.77241138792038,1.3300506261482834,-1.3520254343301057
1772796826297096000,5.059095947265625,17.839535592520235,1.1445154873162506,-1.1613553437624127
1772796826307088100,5.069088134765625,18.390961852812765,1.4715914326921105,-0.6338712462019175
1772796826317080000,5.079080078125,17.766372156631945,2.1710446466773745,0.10696085687614977
1772796826327072300,5.089072265625,16.20494467793107,2.9587019215553996,0.550821134006232
1772796826337065000,5.09906494140625,14.361938976442813,3.946568465045094,0.8245431634005158
1772796826347057200,5.10905712890625,12.442475473695993,4.703713405020535,0.7574439959872513
1772796826357049000,5.119049072265625,10.80385135806799,4.927655723658204,0.5338669304654002
1772796826367041000,5.129041015625,9.489162259441613,4.957884857705235,0.31521416960321363
1772796826377033000,5.139032958984375,8.29291775393188,4.823424949333072,-0.0033089053522795436
1772796826387025200,5.149025146484375,7.297443658047914,4.452157687792182,-0.2763478478532284
1772796826397017900,5.159017822265625,6.500990497773885,4.139817246994376,-0.18083843238316474
1772796826407010000,5.169010009765625,5.29379965083599,3.780157713399827,-0.11564838652685284
1772796826417002000,5.179001953125,3.980841906046867,3.044884998014569,-0.3746506934341043
1772796826426994200,5.188994140625,3.491992221176624,2.1687024674654007,-0.6272833191789686
1772796826436985900,5.19898583984375,3.5086481724232432,1.0392154763244092,-0.36174883402399716
1772796826446979000,5.20897900390625,2.9421611211210488,-0.5053155203722417,-0.09190255008451641
1772796826456971000,5.218970947265625,1.255080140838027,-1.5206513778068125,0.33502690438032146
1772796826466963000,5.228962890625,-2.1493010169029234,-2.3386818713776765,0.672163055999577
1772796826476955000,5.238954833984375,-7.411504336991905,-3.508012797129154,0.5560280549995601
1772796826486947000,5.248947021484375,-13.002570193612575,-4.851649173298478,0.6701986240588128
1772796826496939000,5.25893896484375,-17.017661575263737,-5.150505863144994,0.7993678786769509
1772796826506932000,5.268931884765625,-17.96987462157011,-4.047294446119666,1.1729242010030896
1772796826516924200,5.278924072265625,-16.91728396923542,-2.787240608522296,2.303900919245183
1772796826526916000,5.288916015625,-14.392895255720614,-4.01649540323019,2.8818098205327987
1772796826536908000,5.298907958984375,-10.028428126341105,-5.0324645901322365,3.2573864697054025
1772796826546900000,5.30889990234375,-6.595442220884562,-4.746577564235031,2.256973017723113
1772796826556893200,5.31889306640625,-8.601062496605515,-3.829722539296746,0.5515555857606231
1772796826566885000,5.328885009765625,-17.645238178300858,-0.8369140577390789,-0.0981106840096414
1772796826576877000,5.338876953125,-29.93036386642456,2.816893988507986,1.507337722725421
1772796826586869000,5.348868896484375,-38.22771288080215,3.0365467932581898,3.3423695227250456
1772796826596861200,5.358861083984375,-36.347516389560695,1.0673068676903843,4.050788133454323
1772796826606853000,5.36885302734375,-27.16987740931511,-0.5622416688174009,3.4152012424409386
1772796826616846000,5.37884619140625,-16.79305553202033,-1.6983721896260975,1.1372576251424849
1772796826626838000,5.388838134765625,-5.487968470239639,-2.815952323743701,-1.1371218699336052
1772796826636830200,5.398830322265625,2.6968466363698242,-2.8284879801899194,-2.134297801299393
1772796826646822000,5.40882177734375,6.5683829490453,-2.2475341582484543,-1.8983637238338589
1772796826656814000,5.41881396484375,8.363328676241636,-1.2746600167073308,-1.530160087647289
1772796826666806000,5.428805908203125,8.829784158474206,-0.5834121748790144,-2.05223838064149
1772796826676799000,5.438799072265625,9.265045461019874,0.06025894612967968,-2.303041379806399
1772796826686791000,5.448791015625,10.250144293361902,0.9461553537026047,-1.8968483508348464
1772796826696783000,5.458783203125,11.655061359924078,1.4766273810327053,-1.4754606753408908
1772796826706775000,5.468775146484375,13.221880468535423,1.6355053990855812,-1.2081002168677746
1772796826716767000,5.47876708984375,14.512848499834536,1.388276897406578,-1.2219721634190528
1772796826726760200,5.48876025390625,15.603295127832888,0.9990841030746698,-1.3956626237437129
1772796826736752000,5.498752197265625,16.700152791917322,0.6974371979877352,-1.471870249633491
1772796826746743800,5.508743896484375,17.787594977402687,0.6279048120781779,-1.537794089657068
1772796826756736000,5.518736083984375,18.998545469135045,0.9288263255000114,-1.5188940127454698
1772796826766728000,5.52872802734375,19.830989980244635,1.840505409105122,-1.2558029021546244
1772796826776720100,5.53872021484375,19.370366857427356,3.0036969553187487,-0.8781403135534376
1772796826786713000,5.548713134765625,17.508515001171826,4.075454372677207,-0.46903716928884387
1772796826796705000,5.558705078125,14.787809934830666,4.931870126482844,-0.44541649359613655
1772796826806697200,5.568697265625,12.002240474390982,5.31737400316894,-0.5531834792234003
1772796826816689000,5.57868896484375,9.591552374336123,5.372173514848948,-0.535804182138294
1772796826826681000,5.58868115234375,7.909417618283629,5.462831690895557,-0.7109638382326812
1772796826836673000,5.598673095703125,6.833966899365186,5.364513355484605,-0.8577876266807317
1772796826846666000,5.608666015625,6.2275587565630675,5.0634419121980665,-0.6580690641954541
1772796826856658000,5.618657958984375,5.699015359207987,4.979876909282803,-0.09097593675889075
1772796826866650000,5.628650146484375,4.645194872817397,4.319759972646832,0.047592649041116236
1772796826876642000,5.63864208984375,3.4267221688866614,3.5493925630047913,-0.30462533637583256
1772796826886634000,5.648634033203125,1.9314853644520042,2.7661031279474497,-0.22513525474928317
1772796826896627000,5.658626953125,-0.18563889146745205,1.868127867785096,0.12225757553353905
1772796826906619100,5.668619140625,-2.9293472322553393,0.6787849583573639,0.026316198386996982
1772796826916611000,5.678611083984375,-5.261019078740477,-1.1584709474325179,-0.39142230694964525
1772796826926603000,5.68860302734375,-6.908626126769184,-2.5754700814545153,-0.5623947404872626
1772796826936595000,5.698594970703125,-7.993015938946605,-3.7734786740273236,-0.5613800104867667
1772796826946587100,5.708587158203125,-9.211319131529331,-5.125908597505092,-0.10053535387329757
1772796826956579800,5.718579833984375,-11.260886685526371,-6.282297477966547,0.5302472055982798
1772796826966572000,5.728572021484375,-12.979724740076064,-4.972033210045099,0.47313569064885375
1772796826976564000,5.73856396484375,-14.247669623184203,-2.3191806137025357,-0.011017506968230008
1772796826986556200,5.74855615234375,-15.674789169204233,-4.235245413921773,0.3141688252687454
1772796826996547800,5.7585478515625,-14.193267001867293,-7.023810841307044,0.9025500207319855
1772796827006541000,5.768541015625,-9.203809194290637,-6.989577732315659,0.42676980692371724
1772796827016533200,5.778533203125,-6.660078066924214,-5.584204738679528,0.43757396340221166
1772796827026525000,5.78852490234375,-12.534174098706245,-2.4336378907486793,1.763688273014873
1772796827036517000,5.79851708984375,-23.418069884347915,1.0327056560389698,3.640094285932183
1772796827046509000,5.808509033203125,-31.772271835803984,1.4661080328449605,6.043600365528464
1772796827056501200,5.818501220703125,-31.465704133188723,-0.29600992211326954,6.310681860929727
1772796827066494000,5.828493896484375,-23.033562032961843,-1.5205616536967455,4.4181057805866
1772796827076486100,5.838486083984375,-13.269862701416015,-2.580624103216827,1.7306904049068688
1772796827086478000,5.84847802734375,-5.715691768720745,-3.825132581157982,-0.8558731713615357
1772796827096470000,5.858469970703125,1.9967022252500055,-4.123755754509568,-3.046578650189936
1772796827106462000,5.8684619140625,7.229376083993912,-3.401466731598973,-3.334940249507129
1772796827116455200,5.878455078125,9.354871277895569,-2.2751611469730735,-2.732929172620177
1772796827126446800,5.88844677734375,8.596644680163264,-1.0047909364141523,-2.5788340049296616
1772796827136439000,5.89843896484375,6.2767129558324815,0.07522709041982889,-2.4103575529262424
1772796827146431000,5.908430908203125,4.25943146841228,0.9174018451660871,-1.687048831579089
1772796827156423200,5.918423095703125,4.258855714350939,1.4831561982795596,-1.1595309778794645
1772796827166415400,5.928415283203125,6.406053621494769,1.8420168365813792,-0.9621800213083624
1772796827176408300,5.938408203125,9.59868120330274,1.6250024175107478,-1.1115480143465102
1772796827186400500,5.948400390625,12.78470836393237,1.357718969796598,-1.386367995045334
1772796827196392200,5.95839208984375,15.589535482549666,1.2228075182646512,-1.8541823445409535
1772796827206384400,5.96838427734375,17.49172753250003,1.0032654804125427,-2.117317878795415
1772796827216376300,5.978376220703125,18.399891009199617,0.905775704780221,-2.15164758002907
1772796827226368500,5.988368408203125,18.163427354902026,1.3841340985134243,-1.9903606011383235
1772796827236361500,5.998361572265625,16.817780807954072,2.2778312429651617,-1.6050319348886608
1772796827246353400,6.008353515625,14.939916559052467,3.1372192905798553,-1.2997463810384273
1772796827256345600,6.018345703125,13.175979133582114,3.8829938184961676,-1.077790852303803
1772796827266337300,6.028337158203125,12.132869426298141,4.455692876181006,-0.9987157081536948
1772796827276329500,6.03832958984375,11.796723747020959,4.785550853490829,-1.1856086913354693
1772796827286322400,6.048322509765625,11.772184349048137,4.92031412872374,-1.3169035598054528
1772796827296314400,6.058314453125,11.338120731854438,5.059474177610874,-1.1312854188650845
1772796827306306300,6.068306396484375,10.038166261023282,4.913058458507061,-0.4450226719729602
1772796827316298500,6.078298583984375,8.346221474096179,4.6360155410617585,0.14382263387069105
1772796827326290400,6.08829052734375,6.749579474151134,4.51584163993448,0.42999476031959055
1772796827336282400,6.098282470703125,5.551671419343352,4.475046395948529,0.5483526980660856
1772796827346275300,6.108275390625,4.3002655831038945,4.393889623218775,0.3688099315166473
1772796827356267500,6.118267578125,2.5800264295846222,3.8976241091340778,0.12079831663593649
1772796827366259500,6.128259521484375,0.32948329877853394,2.9668139163404703,-0.18170520528033374
1772796827376251400,6.13825146484375,-2.203234267142415,1.883049104193598,-0.6543272473186255
1772796827386243300,6.148243408203125,-4.682885428786277,0.5730059316769242,-1.1069124635003507
1772796827396235500,6.158235595703125,-6.5924383628934615,-0.7723059764891862,-1.450941151112318
1772796827406228200,6.168228271484375,-7.948134594690799,-1.8619703680686652,-1.0356715201072395
1772796827416220400,6.178220458984375,-9.84402432962656,-3.0625740917012094,0.4625464190300554
1772796827426212400,6.18821240234375,-11.588282072114945,-4.589840065342187,2.117886180202663
1772796827436204500,6.19820458984375,-13.395476455509662,-4.103813913460075,2.276996545706689
1772796827446196200,6.2081962890625,-15.173458772945404,-1.6224914576031266,1.6957485631242393
1772796827456189400,6.218189453125,-16.963662274050712,-0.2586453832283616,1.0021189407259226
1772796827466181600,6.228181640625,-17.635109582996368,-1.1317197186291217,1.5426275011628865
1772796827476173300,6.23817333984375,-17.279590510207413,-1.7751624377094208,2.9321818711593743
1772796827486165500,6.24816552734375,-18.604113605105876,-1.9176701895892618,3.3390017998576162
1772796827496157400,6.258157470703125,-23.028778305816648,-2.363184590601921,2.675384746146202
1772796827506149400,6.2681494140625,-27.95496980214119,-2.503805944213271,2.886252771416306
1772796827516142300,6.278142333984375,-29.78822918564081,-3.0175276200115677,4.93122364527285
1772796827526134500,6.288134521484375,-26.76984465653896,-4.057708872628211,5.174038714423776
1772796827536126500,6.29812646484375,-20.326243686938284,-4.781858428713679,3.2725513056114313
1772796827546118400,6.308118408203125,-13.112509408712386,-5.448168374770879,1.932765467390418
1772796827556110300,6.3181103515625,-7.479045256823301,-5.59548425758481,1.1233336561430245
1772796827566103600,6.328103515625,-1.9380840320646762,-5.439989744490385,0.9194855195723474
1772796827576095200,6.33809521484375,4.326541595610976,-5.322214428937435,1.5646527243576942
1772796827586087400,6.34808740234375,8.16880096039772,-4.04475119137764,1.179328368956968
1772796827596079400,6.358079345703125,8.049824452361465,-1.8224685248941181,0.5104588015448301
1772796827606071600,6.368071533203125,6.192706054368615,-0.04129208759218454,0.2871377566106617
1772796827616063200,6.378063232421875,4.999208801740408,0.939325215421617,-0.9710814129054546
1772796827626056400,6.388056396484375,5.047288649776577,2.081346547834575,-1.8232481309644877
1772796827636048400,6.39804833984375,6.7740364545375105,2.776699633024633,-1.204705313732475
1772796827646040300,6.408040283203125,9.295542890614271,2.5447856048554183,-0.4283465547211468
1772796827656032300,6.4180322265625,11.630416748011111,2.31738203984797,0.2764009662799537
1772796827666024400,6.4280244140625,13.539120371812581,2.247304295015335,0.6853394215021282
1772796827676016400,6.438016357421875,14.806832615208625,2.1398475443810225,0.17835487193912267
1772796827686009300,6.44800927734375,15.734899062252044,2.1323703403681513,-0.6644845572609454
1772796827696001300,6.458001220703125,16.51358626421094,2.5243141869738697,-1.5784508019551633
1772796827705993500,6.467993408203125,17.096003875094652,3.026000264802575,-2.7454627832397818
1772796827715985400,6.4779853515625,17.022044320392606,3.4859839206725356,-3.5731560081690548
1772796827725977300,6.487977294921875,16.26633935009241,3.5999081137552857,-3.8162919798374175
1772796827735970600,6.497970458984375,15.176614022105932,3.8252369183152912,-3.8217388470664617
1772796827745962500,6.50796240234375,13.794072453480958,4.226695612241327,-3.5534155349105596
1772796827755954400,6.517954345703125,11.988946108531952,4.487347659116983,-3.1852228585094213
1772796827765946400,6.5279462890625,9.924859030795096,4.579282138709724,-2.943434209796786
1772796827775938600,6.5379384765625,8.191434817010164,4.704583173592388,-2.8141961277261376
1772796827785930500,6.547930419921875,6.934205973705649,4.794169044232368,-2.283303975287825
1772796827795923500,6.55792333984375,5.756532313153147,4.669729010093212,-1.2012984278984367
1772796827805915400,6.567915283203125,4.387964324823022,4.5787794498845935,0.006980652667582034
1772796827815907600,6.577907470703125,2.8832231944620608,4.5820758610814805,1.0923184132196009
1772796827825899300,6.587899169921875,1.1501485247671603,4.688520219802856,1.7998150867983698
1772796827835891500,6.597891357421875,-0.40603170092999935,4.544437912082672,2.6180364267662166
1772796827845883400,6.60788330078125,-1.3580062623053788,4.1694063295722,3.438874963495135
1772796827855876400,6.61787646484375,-2.228757999977469,3.75423796698451,3.5998949620127676
1772796827865868300,6.627868408203125,-2.9206401941865683,2.4894722984343765,3.2452272453561424
1772796827875860500,6.637860595703125,-3.0551790130138397,0.017521628165245055,2.84894566180706
1772796827885852400,6.647852294921875,-2.7005349694937464,-2.7872911696657536,2.2793488079212603
1772796827895844400,6.65784423828125,-2.38256382933259,-5.179141590520739,1.5073152186326682
1772796827905837300,6.66783740234375,-3.1054671847492457,-6.21516981511116,1.3762299012601376
1772796827915829500,6.67782958984375,-5.326143000558019,-6.114359078362583,1.9606633820109067
1772796827925821200,6.6878212890625,-8.584161630687117,-4.186840863975882,2.4637352151095864
1772796827935813400,6.6978134765625,-12.025845806384085,-1.6186524639621376,1.7160894864939151
1772796827945805300,6.707805419921875,-13.605863419264555,-2.3162504054695368,-1.1846199725590645
1772796827955797500,6.717797607421875,-13.951995070505141,-3.9637954941779374,-3.0220927359700203
1772796827965790500,6.72779052734375,-13.893283353817463,-5.2056911592721935,-0.7455240602865815
1772796827975782400,6.737782470703125,-14.65273627847433,-4.582809436053037,3.0745515297427772
1772796827985774600,6.747774658203125,-17.97774462429285,-3.193616008323431,5.326309004774689
1772796827995766500,6.7577666015625,-22.861174837255476,-1.1337798660293221,6.755673114851117
1772796828005758500,6.767758544921875,-26.459447166502475,0.23945421441569922,7.551764456075429
1772796828015750400,6.77775048828125,-25.640394051885604,-0.2823207117177546,6.269436242827773
1772796828025743400,6.787743408203125,-18.837446560162306,-1.0047245931796729,3.8817572624385352
1772796828035735300,6.7977353515625,-11.347636748218536,-1.239435996982455,1.5643867668978868
1772796828045727500,6.8077275390625,-5.980747895774245,-1.3331532683387397,0.03799713770002126
1772796828055719400,6.817719482421875,-2.5069009876191615,-0.9492081654019653,-0.8234855441063642
1772796828065711600,6.827711669921875,0.11721300549507141,-0.41952158936113115,-1.2154827283345162
1772796828075704300,6.837704345703125,2.3491566497713325,0.039112697726488115,-1.398141727208346
1772796828085696500,6.847696533203125,4.185978109666705,0.6941995312407613,-2.0873129088930784
1772796828095688400,6.8576884765625,5.7828621016740795,1.4970564210772515,-2.973403816124797
1772796828105680400,6.867680419921875,7.421739315280318,1.9290888247042892,-3.2461893683865664
1772796828115672300,6.87767236328125,9.187212864276766,2.25096866274178,-2.9733909566432235
1772796828125664500,6.88766455078125,10.860540629017352,2.6457149995476006,-2.6278976033061743
1772796828135657200,6.8976572265625,12.279585589653253,2.7988644108206033,-2.3650157515518364
1772796828145649400,6.9076494140625,13.230629592180252,2.832945544120669,-2.0023563054889437
1772796828155641300,6.917641357421875,13.91803434871435,3.1210403091952204,-1.439442582628876
1772796828165632500,6.927632568359375,13.805689241516589,3.3782927767604587,-1.464255098454654
1772796828175624700,6.937624755859375,13.172132979547976,3.6061750651955604,-2.0152888522982595
1772796828185617700,6.94761767578125,12.785048555672168,3.9395895659431814,-1.7372895109109578
1772796828195609600,6.957609619140625,12.207424024283885,4.444007699084282,-1.3231411390207708
1772796828205601800,6.967601806640625,10.81667810641527,4.667153022125363,-1.1439023238539696
1772796828215593500,6.977593505859375,8.956223257476092,5.056444016134739,-1.120223049841821
1772796828225585400,6.98758544921875,7.083391157522797,5.555782946315407,-1.1073162219956516
1772796828235577600,6.99757763671875,5.2139849403649565,5.7897921931982035,-0.8510580261647701
1772796828245570600,7.007570556640625,3.286056391611695,5.8247477712452405,-0.40454803824350233
1772796828255562500,7.0175625,1.7024597512006758,5.767063059517741,-0.12367913276925682
1772796828265554700,7.0275546875,0.7977426155626773,4.959622641283273,-0.28905381936505437
1772796828275546600,7.037546630859375,0.6428793861091137,2.8269302293539047,-0.7781472498632968
1772796828285538600,7.04753857421875,1.175785654848814,0.2339236144259572,-1.6465309432297943
1772796828295530500,7.057530517578125,2.258212642520666,-1.9411340672850608,-2.173602076075226
1772796828305523700,7.067523681640625,3.047597179582715,-3.6933839775711297,-1.6893083009436725
1772796828315515400,7.077515380859375,3.114185328733921,-5.347386279594898,-0.40582404952868817
1772796828325507600,7.087507568359375,2.9498095900475976,-6.276914031362534,1.0330166216842829
1772796828335499500,7.09749951171875,2.9628859292417764,-6.372804847365617,1.9842812812246382
1772796828345491700,7.10749169921875,3.0760633956104515,-6.02204787441194,1.9227116908878086
1772796828355484400,7.117484375,1.7601614140629767,-5.3103743535399435,0.5530921476781367
1772796828365476600,7.1274765625,-1.5814946996957062,-4.221395460006595,-0.5000003166988491
1772796828375468500,7.137468505859375,-5.890267998903989,-2.594671333269775,-0.17606500743627548
1772796828385460700,7.147460693359375,-8.968877571865915,-1.0746467090591787,0.9557412204325199
1772796828395452400,7.157452392578125,-10.365133777588605,0.8755293273374438,1.6511536345943807
1772796828405444600,7.167444580078125,-11.90707563457489,2.7873879080384967,2.1476915358796713
1772796828415437600,7.1774375,-14.548193369460105,3.9051813926458356,2.4849630043163895
