time,seconds_elapsed,z,y,x
1772796821301004300,0.06300439453125,-0.05604805797338486,-0.026342658326029778,-1.1847578287124634
1772796821310996500,0.07299658203125,0.008941270411014557,0.15489830076694489,-1.1948959827423096
1772796821320988400,0.082988525390625,-0.021108508110046387,0.09698359668254852,-1.2589055299758911
1772796821330981400,0.0929814453125,-0.09687630087137222,-0.1090611070394516,-1.1872577667236328
1772796821340973300,0.102973388671875,-0.17565952241420746,-0.37032389640808105,-0.9391822218894958
1772796821350965500,0.112965576171875,-0.21608874201774597,-0.6013702154159546,-0.5918941497802734
1772796821360957400,0.12295751953125,-0.2081005871295929,-0.684736967086792,-0.2321585714817047
1772796821370949600,0.13294970703125,-0.20059409737586975,-0.5976523160934448,0.11873922497034073
1772796821380941300,0.14294140625,-0.19494660198688507,-0.47164052724838257,0.45949840545654297
1772796821390934500,0.1529345703125,-0.22059302031993866,-0.5026459097862244,0.6877550482749939
1772796821400926500,0.162926513671875,-0.241676464676857,-0.4484439194202423,0.5605611801147461
1772796821410918400,0.17291845703125,-0.2630491852760315,0.0070739989168941975,0.14051422476768494
1772796821420910300,0.182910400390625,-0.2249571979045868,0.7339521050453186,-0.3562169671058655
1772796821430902500,0.192902587890625,0.08054564148187637,1.2025527954101562,-0.5674343705177307
1772796821440895500,0.2028955078125,0.35241416096687317,0.9106794595718384,-0.1482815444469452
1772796821450887400,0.212887451171875,0.32399263978004456,0.19837035238742828,0.40743815898895264
1772796821460879600,0.222879638671875,0.1920205056667328,-0.16492688655853271,0.13517601788043976
1772796821470871600,0.23287158203125,-0.0026042088866233826,0.1260455995798111,-1.1851290464401245
1772796821480863200,0.24286328125,-0.25467824935913086,0.40678033232688904,-2.4132466316223145
1772796821490856400,0.2528564453125,-0.3202652931213379,0.36759644746780396,-2.4607536792755127
1772796821500848600,0.2628486328125,-0.18539908528327942,0.14250792562961578,-1.300970196723938
1772796821510840300,0.27284033203125,0.020630480721592903,-0.11798776686191559,0.340810090303421
1772796821520832500,0.28283251953125,0.2222064733505249,-0.39206671714782715,1.7389153242111206
1772796821530824400,0.292824462890625,0.20565223693847656,-0.5731536149978638,2.039227247238159
1772796821540817400,0.3028173828125,0.040602561086416245,-0.6507879495620728,1.3908207416534424
1772796821550809300,0.312809326171875,-0.09765812754631042,-0.639191746711731,0.7667497396469116
1772796821560801500,0.322801513671875,-0.1847781240940094,-0.5655825138092041,0.5323536992073059
1772796821570793500,0.33279345703125,-0.18845705687999725,-0.3629262447357178,0.6836553812026978
1772796821580785400,0.342785400390625,-0.15323729813098907,-0.18372108042240143,1.0977452993392944
1772796821590777300,0.35277734375,-0.09452062100172043,-0.22086051106452942,1.6087510585784912
1772796821600770600,0.3627705078125,-0.04936593025922775,-0.39646536111831665,2.0256874561309814
1772796821610762200,0.37276220703125,-0.011652675457298756,-0.5635289549827576,2.20168137550354
1772796821620754400,0.38275439453125,-0.0056104958057403564,-0.6141402125358582,2.0951085090637207
1772796821630746400,0.392746337890625,-0.03390970081090927,-0.5239962339401245,1.7659105062484741
1772796821640738600,0.402738525390625,-0.07691362500190735,-0.32320985198020935,1.3213926553726196
1772796821650731500,0.4127314453125,-0.12618640065193176,-0.1188168078660965,0.9061003923416138
1772796821660723500,0.422723388671875,-0.21499136090278625,-0.028485316783189774,0.5816258788108826
1772796821670715400,0.43271533203125,-0.33044394850730896,-0.06633336842060089,0.2973989248275757
1772796821680707300,0.442707275390625,-0.42142152786254883,-0.15137475728988647,0.012481160461902618
1772796821690699300,0.45269921875,-0.448523610830307,-0.24269136786460876,-0.2523234784603119
1772796821700692500,0.4626923828125,-0.38292354345321655,-0.2226063311100006,-0.5053677558898926
1772796821710684400,0.472684326171875,-0.2818313539028168,-0.09854159504175186,-0.7758402824401855
1772796821720676400,0.48267626953125,-0.1982024908065796,-0.004119482357054949,-1.0065746307373047
1772796821730668500,0.49266845703125,-0.13003438711166382,-0.006705679465085268,-1.1198176145553589
1772796821740660500,0.502660400390625,-0.09920589625835419,-0.030131377279758453,-1.1507701873779297
1772796821750653400,0.5126533203125,-0.08870100975036621,-0.03193390741944313,-1.1587544679641724
1772796821760645400,0.522645263671875,-0.09467367827892303,-0.04000674560666084,-1.119412899017334
1772796821770637600,0.532637451171875,-0.08175133168697357,-0.06365998834371567,-1.027989387512207
1772796821780629500,0.54262939453125,-0.07461193203926086,-0.12953540682792664,-0.9385623335838318
1772796821790621400,0.552621337890625,-0.06523163616657257,-0.17476962506771088,-0.8804641962051392
1772796821800613400,0.56261328125,-0.01931980438530445,-0.18831180036067963,-0.8534389734268188
1772796821810606600,0.572606689453125,-0.0027300661895424128,-0.32463836669921875,-0.8335345387458801
1772796821820598300,0.582598388671875,-0.07748712599277496,-0.6463689804077148,-0.7101039886474609
1772796821830590500,0.592590576171875,-0.21968841552734375,-0.914651095867157,-0.3960725665092468
1772796821840582400,0.60258251953125,-0.3217908442020416,-0.9634612798690796,0.09963279217481613
1772796821850574600,0.61257470703125,-0.326499879360199,-0.5749268531799316,0.6227555871009827
1772796821860567600,0.622567626953125,-0.25274521112442017,0.22670243680477142,0.9539375305175781
1772796821870559500,0.6325595703125,-0.18575119972229004,0.8844135403633118,0.9212684035301208
1772796821880551400,0.642551513671875,-0.10002085566520691,1.088585615158081,0.622318685054779
1772796821890543400,0.65254345703125,-0.21962979435920715,0.8520853519439697,0.2874535024166107
1772796821900535300,0.662535400390625,-0.34869617223739624,0.2542583644390106,0.029443781822919846
1772796821910528500,0.672528564453125,-0.3318185806274414,-0.4254310131072998,-0.6660330295562744
1772796821920520400,0.6825205078125,-0.31846603751182556,-0.8227208852767944,-2.269421100616455
1772796821930512400,0.692512451171875,-0.41908425092697144,-0.8081933259963989,-4.382591724395752
1772796821940504600,0.702504638671875,-0.618465006351471,-0.6844234466552734,-5.6371989250183105
1772796821950496500,0.71249658203125,-0.710569441318512,-0.8737611174583435,-5.194882869720459
1772796821960489500,0.722489501953125,-0.5673156380653381,-1.216458797454834,-3.4321749210357666
1772796821970481400,0.7324814453125,-0.24614477157592773,-1.1718392372131348,-1.5129088163375854
1772796821980473600,0.7424736328125,0.2660471498966217,-0.6905080080032349,0.18394160270690918
1772796821990465300,0.75246533203125,0.5903299450874329,-0.106269970536232,1.1184717416763306
1772796822000457500,0.76245751953125,0.7354493141174316,0.2559497356414795,1.4771997928619385
1772796822010450400,0.772450439453125,0.7081644535064697,0.48458927869796753,1.6154789924621582
1772796822020442400,0.7824423828125,0.6615833640098572,0.5584760308265686,1.6303863525390625
1772796822030434300,0.792434326171875,0.6151948571205139,0.4638672173023224,1.6624449491500854
1772796822040426500,0.802426513671875,0.48758307099342346,0.30058348178863525,1.7798833847045898
1772796822050418400,0.81241845703125,0.34330782294273376,0.07029051333665848,2.0362110137939453
1772796822060410600,0.82241064453125,0.18706682324409485,-0.16349108517169952,2.3072173595428467
1772796822070403300,0.8324033203125,0.05417858064174652,-0.3811122179031372,2.4555881023406982
1772796822080395500,0.8423955078125,-0.052614975720644,-0.47935381531715393,2.434882879257202
1772796822090387500,0.852387451171875,-0.10331737250089645,-0.38267257809638977,2.2568697929382324
1772796822100379400,0.86237939453125,-0.11796901375055313,-0.10083265602588654,1.9783366918563843
1772796822110371300,0.872371337890625,-0.13779650628566742,0.1548951119184494,1.5863637924194336
1772796822120364500,0.882364501953125,-0.15228569507598877,0.24918459355831146,1.0316989421844482
1772796822130356500,0.8923564453125,-0.1592777818441391,0.23658111691474915,0.3702029585838318
1772796822140348400,0.902348388671875,-0.15215621888637543,0.17926616966724396,-0.2393711656332016
1772796822150340600,0.912340576171875,-0.1397913694381714,0.1365143358707428,-0.696313202381134
1772796822160331800,0.922331787109375,-0.13990642130374908,0.07065276801586151,-0.9563498497009277
1772796822170324700,0.93232470703125,-0.14008228480815887,-0.01089903712272644,-1.0640376806259155
1772796822180317000,0.94231689453125,-0.12392408400774002,-0.05880344659090042,-1.0693895816802979
1772796822190308900,0.952308837890625,-0.07126736640930176,-0.06356752663850784,-1.0297269821166992
1772796822200301000,0.962301025390625,0.0019224239513278008,-0.07220228761434555,-0.9726465940475464
1772796822210292700,0.972292724609375,0.05559844151139259,-0.086264468729496,-0.9724307060241699
1772796822220285000,0.982284912109375,0.09792646020650864,-0.0977964922785759,-0.998489499092102
1772796822230278000,0.99227783203125,0.13287143409252167,-0.17343446612358093,-1.004873275756836
1772796822240269800,1.002269775390625,0.14444686472415924,-0.30607640743255615,-0.9771220684051514
1772796822250261800,1.01226171875,0.12561044096946716,-0.48985013365745544,-0.892476499080658
1772796822260254000,1.02225390625,0.09772475063800812,-0.6447067856788635,-0.6849731206893921
1772796822270246000,1.032245849609375,0.04536451771855354,-0.6113073825836182,-0.38062432408332825
1772796822280238800,1.04223876953125,0.03077119216322899,-0.1117076724767685,0.08824437111616135
1772796822290230800,1.052230712890625,0.17099592089653015,0.9052927494049072,0.8548115491867065
1772796822300223000,1.062222900390625,0.322904497385025,1.8988277912139893,1.7098431587219238
1772796822310214700,1.072214599609375,0.35473501682281494,2.266550302505493,2.3053829669952393
1772796822320206800,1.082206787109375,0.2453147917985916,1.9311935901641846,2.580390691757202
1772796822330199800,1.09219970703125,-0.0066315471194684505,0.9286773800849915,2.354498863220215
1772796822340191700,1.102191650390625,-0.3114425837993622,-0.2760983407497406,1.5937833786010742
1772796822350183700,1.11218359375,-0.4489322006702423,-1.1197028160095215,0.3886761963367462
1772796822360175900,1.12217578125,-0.5263398885726929,-1.442897081375122,-1.3029136657714844
1772796822370167800,1.132167724609375,-0.5594044327735901,-1.4172747135162354,-3.3668212890625
1772796822380159700,1.14215966796875,-0.49307602643966675,-0.9373528957366943,-4.863067150115967
1772796822390153000,1.152153076171875,-0.4237273335456848,-0.4412147104740143,-4.8823418617248535
1772796822400145000,1.162144775390625,-0.3950059413909912,-0.6504830121994019,-3.4332871437072754
1772796822410136800,1.17213671875,-0.2860001027584076,-0.9770411849021912,-1.5017400979995728
1772796822420128800,1.182128662109375,-0.061367280781269073,-0.8025255799293518,-0.02672804705798626
1772796822430121000,1.192120849609375,0.19990035891532898,-0.41325297951698303,0.827042281627655
1772796822440113700,1.20211376953125,0.4570828676223755,-0.09796959906816483,1.1933361291885376
1772796822450105900,1.21210595703125,0.7020190358161926,0.14472459256649017,1.3025046586990356
1772796822460097800,1.222097900390625,0.8209496736526489,0.3663467466831207,1.0935742855072021
1772796822470090000,1.232090087890625,0.7870603799819946,0.5724352598190308,0.6801862120628357
1772796822480082000,1.24208203125,0.6179283261299133,0.5946515798568726,0.4051882028579712
1772796822490075000,1.252074951171875,0.3765789270401001,0.40619727969169617,0.5926705002784729
1772796822500066800,1.26206689453125,0.09431767463684082,0.11849571019411087,1.147724986076355
1772796822510058800,1.272058837890625,-0.16187110543251038,-0.21381837129592896,1.747380018234253
1772796822520050700,1.28205078125,-0.3280411660671234,-0.45601049065589905,2.165337324142456
1772796822530043000,1.29204296875,-0.4193491041660309,-0.5431949496269226,2.2500808238983154
1772796822540034800,1.302034912109375,-0.412089079618454,-0.5011228919029236,2.0479414463043213
1772796822550027800,1.31202783203125,-0.2829422354698181,-0.30153337121009827,1.6492133140563965
1772796822560019700,1.322019775390625,-0.083467997610569,-0.005655115470290184,1.0665736198425293
1772796822570012000,1.332011962890625,0.05131036788225174,0.29580119252204895,0.3423163592815399
1772796822580003800,1.34200390625,0.09489886462688446,0.416544109582901,-0.42343008518218994
1772796822589995800,1.351995849609375,0.07451789826154709,0.38442885875701904,-1.059288501739502
1772796822599989000,1.361989013671875,-0.004710879642516375,0.24776579439640045,-1.4256994724273682
1772796822609981000,1.37198095703125,-0.10685037821531296,0.05676128342747688,-1.5883688926696777
1772796822619972900,1.381972900390625,-0.18996736407279968,-0.12056049704551697,-1.6388384103775024
1772796822629964800,1.39196484375,-0.1944023221731186,-0.0640796422958374,-1.7010709047317505
1772796822639956700,1.401956787109375,-0.1118006631731987,0.2178007811307907,-1.8239566087722778
1772796822649949700,1.41194970703125,-0.0061453040689229965,0.4914686977863312,-1.9490331411361694
1772796822659942000,1.42194189453125,0.0653536468744278,0.7017329931259155,-2.007540702819824
1772796822669933800,1.431933837890625,0.10415109246969223,0.8068339228630066,-1.9321810007095337
1772796822679926000,1.441926025390625,0.0874008759856224,0.658420205116272,-1.6488350629806519
1772796822689917700,1.451917724609375,0.04194563627243042,0.33863529562950134,-1.1423747539520264
1772796822699910000,1.461909912109375,-0.00748822558671236,0.06018798053264618,-0.5709762573242188
1772796822709902800,1.47190283203125,0.024612978100776672,-0.11637359112501144,-0.13953949511051178
1772796822719894800,1.481894775390625,0.08428003638982773,-0.10568738728761673,0.1726687252521515
1772796822729886700,1.49188671875,0.07678023725748062,0.05471044406294823,0.5690937042236328
1772796822739879000,1.50187890625,0.04763886705040932,0.30101609230041504,1.134239673614502
1772796822749870800,1.511870849609375,0.01666945219039917,0.4771724343299866,1.600639820098877
1772796822759863800,1.52186376953125,-0.0030789540614932775,0.6564984917640686,1.7016907930374146
1772796822769855700,1.531855712890625,0.06166009232401848,0.964104950428009,1.399317741394043
1772796822779848000,1.541847900390625,0.19486208260059357,1.2873549461364746,0.8488998413085938
1772796822789840000,1.55183984375,0.2831093966960907,1.3155934810638428,0.626439094543457
1772796822799831800,1.561831787109375,0.2061905562877655,0.8040267825126648,0.8010186553001404
1772796822809825000,1.571824951171875,-0.00469569955021143,0.2377408742904663,0.8363910913467407
1772796822819816700,1.581816650390625,-0.2544613182544708,0.08207963407039642,0.08837545663118362
1772796822829808600,1.59180859375,-0.46553537249565125,0.35540542006492615,-1.4149019718170166
1772796822839800800,1.60180078125,-0.5433611869812012,0.5667018890380859,-2.636953830718994
1772796822849792800,1.611792724609375,-0.44767946004867554,0.7720374464988708,-2.8161814212799072
1772796822859785000,1.621784912109375,-0.20066356658935547,0.7685242295265198,-2.0273258686065674
1772796822869778000,1.63177783203125,0.08730527013540268,0.5598717927932739,-0.7946892976760864
1772796822879769900,1.641769775390625,0.36980804800987244,0.3227791488170624,0.5453499555587769
1772796822889762000,1.651761962890625,0.4096248149871826,0.24900725483894348,1.0469690561294556
1772796822899753700,1.661753662109375,0.3054845631122589,0.1612771451473236,0.7223856449127197
1772796822909746000,1.671745849609375,0.12652862071990967,-0.004283367656171322,0.2110982984304428
1772796822919739000,1.68173876953125,-0.03727282956242561,-0.19395369291305542,-0.1539854109287262
1772796822929730800,1.691730712890625,-0.14347881078720093,-0.3935379683971405,-0.24160151183605194
1772796822939722800,1.70172265625,-0.18220943212509155,-0.5899266600608826,-0.023430032655596733
1772796822949715000,1.71171484375,-0.11321943253278732,-0.7012124061584473,0.4564487636089325
1772796822959707000,1.721706787109375,-0.02492685243487358,-0.7771868109703064,1.081887125968933
1772796822969698800,1.73169873046875,-0.001771764364093542,-0.9211276173591614,1.643568515777588
1772796822979691800,1.74169189453125,-0.05350393429398537,-1.1313204765319824,2.0113632678985596
1772796822989684000,1.75168408203125,-0.20904386043548584,-1.284916877746582,2.1173877716064453
1772796822999675600,1.761675537109375,-0.3919140696525574,-1.3261858224868774,2.0061707496643066
1772796823009667800,1.771667724609375,-0.5436457991600037,-1.2427488565444946,1.7563594579696655
1772796823019659800,1.78165966796875,-0.6467439532279968,-1.03689444065094,1.4328371286392212
1772796823029652700,1.79165283203125,-0.7206552028656006,-0.7656658291816711,1.066620111465454
1772796823039644700,1.801644775390625,-0.7768636345863342,-0.44111311435699463,0.6571548581123352
1772796823049636900,1.811636962890625,-0.7746999263763428,-0.17139241099357605,0.25772958993911743
1772796823059628800,1.82162890625,-0.6910582780838013,0.026131054386496544,-0.040882408618927
1772796823069620700,1.831620849609375,-0.5627519488334656,0.17325419187545776,-0.1969423145055771
1772796823079614000,1.841614013671875,-0.4573824405670166,0.33417490124702454,-0.2327631562948227
1772796823089606000,1.85160595703125,-0.4010469317436218,0.42806175351142883,-0.17829132080078125
1772796823099597800,1.861597900390625,-0.40810349583625793,0.4211394190788269,-0.13677850365638733
1772796823109589800,1.87158984375,-0.43327683210372925,0.3708891272544861,-0.1798153668642044
1772796823119582000,1.88158203125,-0.4599430561065674,0.27589523792266846,-0.314020037651062
1772796823129574000,1.891573974609375,-0.5000770092010498,0.09999381750822067,-0.5096710920333862
1772796823139566800,1.90156689453125,-0.4798934757709503,-0.09070129692554474,-0.6224231719970703
1772796823149558800,1.911558837890625,-0.4372054934501648,-0.23845116794109344,-0.6127028465270996
1772796823159551000,1.921551025390625,-0.3938215374946594,-0.33678650856018066,-0.6436290740966797
1772796823169543200,1.931543212890625,-0.40519800782203674,-0.5146121382713318,-0.7827211022377014
1772796823179535400,1.941535400390625,-0.4574023485183716,-0.6857588887214661,-0.8822900652885437
1772796823189528300,1.9515283203125,-0.5510196685791016,-0.7279443144798279,-0.8011158108711243
1772796823199520300,1.961520263671875,-0.6206163167953491,-0.653954029083252,-0.4527144432067871
1772796823209512200,1.97151220703125,-0.6676987409591675,-0.4863722622394562,0.20337295532226562
1772796823219504400,1.98150439453125,-0.6707784533500671,-0.2665807902812958,0.9360589385032654
1772796823229496300,1.991496337890625,-0.6314206123352051,-0.06967328488826752,1.4025458097457886
1772796823239488300,2.00148828125,-0.6191109418869019,0.07827570289373398,1.3734456300735474
1772796823249481500,2.0114814453125,-0.5034857988357544,0.4059469401836395,1.1354236602783203
1772796823259473400,2.021473388671875,-0.3457307517528534,0.8078900575637817,1.079713225364685
1772796823269465000,2.031465087890625,-0.03293528035283089,1.0505824089050293,1.387313723564148
1772796823279457300,2.041457275390625,0.20587995648384094,1.2744344472885132,1.4009233713150024
1772796823289449200,2.05144921875,-0.015097533352673054,1.609779953956604,-0.060816921293735504
1772796823299442200,2.061442138671875,-0.4249289929866791,1.6789041757583618,-2.680479049682617
1772796823309434400,2.071434326171875,-0.7302510142326355,1.139977216720581,-4.508677005767822
1772796823319426300,2.08142626953125,-0.602451503276825,0.290926069021225,-4.304081439971924
1772796823329418500,2.09141845703125,-0.22561174631118774,-0.5771931409835815,-2.7002196311950684
1772796823339410400,2.101410400390625,0.19826042652130127,-1.0978267192840576,-0.6690565347671509
1772796823349403400,2.1114033203125,0.47452956438064575,-1.1932297945022583,0.8939182162284851
1772796823359395300,2.121395263671875,0.47543954849243164,-1.1145176887512207,1.4556955099105835
1772796823369387300,2.13138720703125,0.3527372479438782,-0.8914571404457092,1.4792970418930054
1772796823379379200,2.141379150390625,0.24358946084976196,-0.6454098224639893,1.362341284751892
1772796823389371400,2.151371337890625,0.23463594913482666,-0.43676725029945374,1.2370163202285767
1772796823399363300,2.16136328125,0.2932148277759552,-0.24706655740737915,1.1247502565383911
1772796823409356300,2.171356201171875,0.3902973234653473,0.04096284136176109,1.0652936697006226
1772796823419348200,2.18134814453125,0.48911044001579285,0.28329798579216003,1.1028066873550415
1772796823429340400,2.19134033203125,0.4745293855667114,0.30655696988105774,1.2003066539764404
1772796823439332400,2.201332275390625,0.38031846284866333,0.20366626977920532,1.319068193435669
1772796823449324300,2.21132421875,0.23172351717948914,0.03480454161763191,1.4397132396697998
1772796823459317200,2.221317138671875,0.07947831600904465,-0.12030088901519775,1.5587950944900513
1772796823469309400,2.231309326171875,-0.041495319455862045,-0.2896885275840759,1.6005380153656006
1772796823479301000,2.241301025390625,-0.1413196474313736,-0.40489712357521057,1.535133719444275
1772796823489293300,2.251293212890625,-0.2159009426832199,-0.4201176166534424,1.344823956489563
1772796823499285200,2.26128515625,-0.2687484622001648,-0.42011815309524536,1.003592610359192
1772796823509277400,2.27127734375,-0.29489731788635254,-0.506475567817688,0.5318073034286499
1772796823519270400,2.2812705078125,-0.26726117730140686,-0.6258823871612549,0.04525948688387871
1772796823529262300,2.291262451171875,-0.18732349574565887,-0.6360078454017639,-0.35090455412864685
1772796823539254500,2.301254638671875,-0.07074415683746338,-0.45155948400497437,-0.6503639817237854
1772796823549246200,2.31124609375,0.053018540143966675,-0.14344514906406403,-0.8632044792175293
1772796823559238400,2.32123828125,0.15299361944198608,0.10194410383701324,-0.9556837677955627
1772796823569231400,2.3312314453125,0.2171626091003418,0.2139327973127365,-0.9208163022994995
1772796823579223300,2.341223388671875,0.2619745433330536,0.2638170123100281,-0.818642795085907
1772796823589215200,2.35121533203125,0.24788059294223785,0.20841383934020996,-0.7537951469421387
1772796823599207400,2.36120751953125,0.18241503834724426,0.016415897756814957,-0.7696553468704224
1772796823609199400,2.371199462890625,0.13777673244476318,-0.2689996063709259,-0.8516567349433899
1772796823619191300,2.38119140625,0.10985242575407028,-0.5728422999382019,-0.9474921822547913
1772796823629184300,2.391184326171875,0.13594679534435272,-0.7095047831535339,-0.9735267758369446
1772796823639176400,2.401176513671875,0.22361859679222107,-0.6995309591293335,-0.8589421510696411
1772796823649168100,2.411168212890625,0.31234997510910034,-0.5751526355743408,-0.6056597232818604
1772796823659160300,2.421160400390625,0.3738362491130829,-0.29153260588645935,-0.23081901669502258
1772796823669152300,2.43115234375,0.37674543261528015,0.07100702077150345,0.2940383851528168
1772796823679145200,2.441145263671875,0.32252344489097595,0.4210715591907501,0.8556801676750183
1772796823689137200,2.45113720703125,0.33011069893836975,0.7255312204360962,1.4335365295410156
1772796823699129300,2.46112939453125,0.5022156238555908,1.0447371006011963,2.046753406524658
1772796823709121300,2.471121337890625,0.648637056350708,1.4851491451263428,2.450946807861328
1772796823719113500,2.481113525390625,0.6542432308197021,1.6122647523880005,2.4926657676696777
1772796823729106400,2.4911064453125,0.5353150367736816,1.37871515750885,1.9321800470352173
1772796823739098400,2.501098388671875,0.29451411962509155,0.8315205574035645,0.349152147769928
1772796823749090600,2.511090576171875,-0.020465433597564697,0.36210453510284424,-2.258253812789917
1772796823759082200,2.521082275390625,-0.26225703954696655,0.09604009240865707,-4.6295270919799805
1772796823769074400,2.531074462890625,-0.4883629381656647,-0.03876027837395668,-5.464014053344727
1772796823779066400,2.54106640625,-0.6580083966255188,-0.3590781092643738,-4.554113388061523
1772796823789059300,2.551059326171875,-0.49932795763015747,-0.9742668271064758,-2.775216817855835
1772796823799051300,2.56105126953125,-0.1527540236711502,-1.2873927354812622,-0.9942368268966675
1772796823809043500,2.57104345703125,0.21288926899433136,-1.050581932067871,0.658115029335022
1772796823819035400,2.581035400390625,0.47561731934547424,-0.8197649121284485,1.5912433862686157
1772796823829027300,2.59102734375,0.5076329708099365,-0.7924176454544067,1.7571319341659546
1772796823839020300,2.601020263671875,0.41490039229393005,-0.8607511520385742,1.5878164768218994
1772796823849012500,2.611012451171875,0.3895416855812073,-0.8721522092819214,1.307644248008728
1772796823859004200,2.621004150390625,0.437150239944458,-0.6988674998283386,0.970514178276062
1772796823868996400,2.630996337890625,0.4514148235321045,-0.39432594180107117,0.6156303286552429
1772796823878988300,2.64098828125,0.3905349671840668,-0.030202051624655724,0.37899595499038696
1772796823888980500,2.65098046875,0.28907206654548645,0.22254279255867004,0.44600293040275574
1772796823898973200,2.66097314453125,0.20754310488700867,0.26913318037986755,0.8164949417114258
1772796823908965400,2.67096533203125,0.07588838040828705,0.1948687732219696,1.2155171632766724
1772796823918957300,2.680957275390625,-0.0577559694647789,0.02313217520713806,1.4213895797729492
1772796823928949200,2.69094921875,-0.12803344428539276,-0.11740443110466003,1.426729440689087
1772796823938941200,2.700941162109375,-0.12344376742839813,-0.1431766301393509,1.2545440196990967
1772796823948934400,2.710934326171875,-0.01875469647347927,-0.11929719150066376,0.9099042415618896
1772796823958926300,2.72092626953125,0.1201547160744667,-0.02888713777065277,0.4031273424625397
1772796823968918300,2.730918212890625,0.22779883444309235,0.10639461874961853,-0.21906669437885284
1772796823978910200,2.74091015625,0.3177809417247772,0.17378884553909302,-0.8087534308433533
1772796823988902400,2.75090234375,0.37624189257621765,0.2336728423833847,-1.2336317300796509
1772796823998894300,2.760894287109375,0.4275120198726654,0.2740333080291748,-1.426008701324463
1772796824008887300,2.77088720703125,0.4527619779109955,0.2700801193714142,-1.3943748474121094
1772796824018879500,2.78087939453125,0.43899211287498474,0.238878533244133,-1.2678813934326172
1772796824028871400,2.790871337890625,0.41124677658081055,0.17405137419700623,-1.1813708543777466
1772796824038863400,2.80086328125,0.3416631817817688,0.1446058601140976,-1.1590551137924194
1772796824048855300,2.810855224609375,0.22171638906002045,0.17090417444705963,-1.2049092054367065
1772796824058848300,2.82084814453125,0.09516190737485886,0.25813066959381104,-1.291386604309082
1772796824068840200,2.830840087890625,0.010545525699853897,0.4140876233577728,-1.331388235092163
1772796824078832400,2.840832275390625,-0.027030877768993378,0.5699081420898438,-1.2699390649795532
1772796824088824300,2.85082421875,-0.012552148662507534,0.6317750215530396,-1.0722023248672485
1772796824098816500,2.86081640625,0.01674235612154007,0.5539454817771912,-0.7892057299613953
1772796824108808200,2.87080810546875,0.03498678281903267,0.4957243800163269,-0.3770257830619812
1772796824118801400,2.880801513671875,0.03792797774076462,0.5929822325706482,0.19758236408233643
1772796824128793300,2.89079345703125,0.0516052320599556,0.6577560901641846,0.8390976190567017
1772796824138785300,2.900785400390625,0.07109051942825317,0.7412241101264954,1.3610177040100098
1772796824148777200,2.910777099609375,0.07785461843013763,0.90943843126297,1.6046807765960693
1772796824158769400,2.920769287109375,0.062527596950531,0.9955821633338928,1.4871916770935059
1772796824168761900,2.930761962890625,0.0865078717470169,1.0278663635253906,1.177471399307251
1772796824178753500,2.94075341796875,0.2622956931591034,0.9865956902503967,1.158344030380249
1772796824188745700,2.950745849609375,0.3216833472251892,0.6354491114616394,1.4517921209335327
1772796824198737700,2.960737548828125,0.19425855576992035,0.33362507820129395,1.0950303077697754
1772796824208729900,2.970729736328125,0.023811815306544304,0.536567747592926,-0.3202696144580841
1772796824218721500,2.980721435546875,-0.1601250022649765,1.0544042587280273,-2.4702208042144775
1772796824228714800,2.99071484375,-0.2981659770011902,1.0506757497787476,-4.127868175506592
1772796824238706700,3.000706787109375,-0.25504353642463684,0.8059446215629578,-4.237246513366699
1772796824248698600,3.01069873046875,-0.03560349717736244,0.4371532201766968,-2.9873898029327393
1772796824258690600,3.020690673828125,0.20621497929096222,0.12778177857398987,-1.3427562713623047
1772796824268682800,3.030682861328125,0.40942350029945374,-0.0147629976272583,0.05755613371729851
1772796824278675500,3.040675537109375,0.5462934374809265,-0.1572093516588211,0.9599927067756653
1772796824288667600,3.050667724609375,0.6480265259742737,-0.18035069108009338,1.4177908897399902
1772796824298659600,3.06065966796875,0.5779910087585449,-0.12799401581287384,1.3224081993103027
1772796824308651800,3.07065185546875,0.4540860056877136,-0.0535893514752388,0.8314343094825745
1772796824318643500,3.0806435546875,0.3339316248893738,0.005998610984534025,0.3294502794742584
1772796824328635600,3.0906357421875,0.256693035364151,0.02291022054851055,0.07489527016878128
1772796824338628900,3.10062890625,0.18331338465213776,0.0670049786567688,0.07114367187023163
1772796824348620500,3.11062060546875,0.13840121030807495,0.059452153742313385,0.30052024126052856
1772796824358612700,3.12061279296875,0.06354614347219467,-0.0038700944278389215,0.7033143043518066
1772796824368604700,3.130604736328125,-0.06155102327466011,-0.128697469830513,1.2373601198196411
1772796824378596600,3.1405966796875,-0.16245180368423462,-0.26282384991645813,1.7591418027877808
1772796824388589600,3.150589599609375,-0.293056458234787,-0.3715117871761322,2.108016014099121
1772796824398581800,3.160581787109375,-0.454297810792923,-0.4311559200286865,2.2009403705596924
1772796824408573700,3.17057373046875,-0.6141027808189392,-0.4370625615119934,2.0141260623931885
1772796824418565600,3.180565673828125,-0.7447699904441833,-0.46673548221588135,1.597457766532898
1772796824428557600,3.1905576171875,-0.8236060738563538,-0.538816511631012,1.0433952808380127
1772796824438549800,3.2005498046875,-0.8152048587799072,-0.5855536460876465,0.46259498596191406
1772796824448542700,3.210542724609375,-0.6927993297576904,-0.4421779215335846,-0.02187272161245346
1772796824458534700,3.22053466796875,-0.527919590473175,-0.15350539982318878,-0.359261155128479
1772796824468526600,3.230526611328125,-0.374160498380661,0.13594692945480347,-0.5540709495544434
1772796824478518800,3.240518798828125,-0.2474009394645691,0.25786086916923523,-0.6115422248840332
1772796824488510700,3.2505107421875,-0.18028679490089417,0.20696327090263367,-0.5598372220993042
1772796824498503700,3.260503662109375,-0.16182149946689606,0.08685416728258133,-0.48247528076171875
1772796824508495600,3.27049560546875,-0.17318975925445557,-0.08640417456626892,-0.46063104271888733
1772796824518487800,3.28048779296875,-0.22724874317646027,-0.3087155222892761,-0.5297624468803406
1772796824528479500,3.2904794921875,-0.2697819173336029,-0.5431458353996277,-0.6585050225257874
1772796824538471700,3.3004716796875,-0.3076682984828949,-0.7056170105934143,-0.7471864223480225
1772796824548463600,3.310463623046875,-0.3177124261856079,-0.8443676233291626,-0.8292515873908997
1772796824558456600,3.32045654296875,-0.2844705879688263,-0.9963718056678772,-0.9047071933746338
1772796824568448500,3.330448486328125,-0.22802163660526276,-1.1322782039642334,-0.8909234404563904
1772796824578440700,3.340440673828125,-0.11543650180101395,-1.1070297956466675,-0.6201534271240234
1772796824588432600,3.3504326171875,-0.011066164821386337,-0.8901016116142273,-0.017539329826831818
1772796824598424600,3.360424560546875,-0.004984836559742689,-0.43687930703163147,0.7617806792259216
1772796824608416500,3.37041650390625,0.026855479925870895,0.15814568102359772,1.5116075277328491
1772796824618409700,3.38040966796875,0.07610371708869934,0.9338991641998291,1.9366408586502075
1772796824628401700,3.390401611328125,0.1528552621603012,1.6245496273040771,1.8843669891357422
1772796824638393600,3.4003935546875,0.24062585830688477,2.0139384269714355,1.5296586751937866
1772796824648385800,3.4103857421875,0.2004133015871048,1.946925401687622,1.349250078201294
1772796824658377700,3.420377685546875,0.19810861349105835,1.0858453512191772,1.508323073387146
1772796824668370700,3.43037060546875,0.16968537867069244,0.28166595101356506,1.4537620544433594
1772796824678362600,3.440362548828125,-0.0394262969493866,0.1820022016763687,0.1107184886932373
1772796824688354800,3.450354736328125,-0.25121259689331055,0.5098930597305298,-2.3931803703308105
1772796824698346500,3.460346435546875,-0.4706568121910095,0.8323824405670166,-4.424374103546143
1772796824708338700,3.470338623046875,-0.4437963366508484,0.7220866680145264,-4.6722412109375
1772796824718331600,3.48033154296875,-0.10134550929069519,0.044359851628541946,-3.340092182159424
1772796824728323600,3.490323486328125,0.29177945852279663,-0.5038815140724182,-1.3806970119476318
1772796824738315500,3.5003154296875,0.6352282166481018,-0.6173439025878906,0.40342414379119873
1772796824748307700,3.5103076171875,0.6570162773132324,-0.6305956840515137,1.1280747652053833
1772796824758299600,3.520299560546875,0.5219034552574158,-0.4981449544429779,1.059334397315979
1772796824768291600,3.53029150390625,0.38213875889778137,-0.3870939016342163,0.6678647398948669
1772796824778284500,3.540284423828125,0.2940531075000763,-0.30512234568595886,0.2980714440345764
1772796824788276700,3.55027685546875,0.2352289855480194,-0.19566506147384644,0.06578898429870605
1772796824798268700,3.5602685546875,0.16591835021972656,-0.014176750555634499,-0.05538458004593849
1772796824808260600,3.570260498046875,0.12492869794368744,0.13874314725399017,0.0005380876827985048
1772796824818252500,3.58025244140625,0.09869762510061264,0.18354177474975586,0.26820629835128784
1772796824828244700,3.59024462890625,0.05763710290193558,0.1234082281589508,0.6554239392280579
1772796824838237700,3.60023779296875,-0.005334936082363129,0.02348082698881626,1.0007073879241943
1772796824848229600,3.610229736328125,-0.09339302778244019,-0.12410451471805573,1.2249771356582642
1772796824858221800,3.620221923828125,-0.18948893249034882,-0.24018213152885437,1.3078330755233765
1772796824868213800,3.6302138671875,-0.2864035964012146,-0.30042970180511475,1.2803261280059814
1772796824878205700,3.640205810546875,-0.36098915338516235,-0.32802775502204895,1.1653252840042114
1772796824888198700,3.65019873046875,-0.3791228234767914,-0.3555224537849426,0.9866322875022888
1772796824898190800,3.66019091796875,-0.33988672494888306,-0.41102007031440735,0.7425892949104309
1772796824908182500,3.6701826171875,-0.2741028964519501,-0.4733535945415497,0.426440566778183
1772796824918174700,3.6801748046875,-0.22044898569583893,-0.5074931979179382,0.028769908472895622
1772796824928166700,3.690166748046875,-0.18849657475948334,-0.47537925839424133,-0.38273319602012634
1772796824938158800,3.700158935546875,-0.18324162065982819,-0.41492149233818054,-0.7140035629272461
1772796824948151600,3.710151611328125,-0.1624806672334671,-0.36867472529411316,-0.8427680134773254
1772796824958143700,3.720143798828125,-0.13750261068344116,-0.33668696880340576,-0.817237377166748
1772796824968135700,3.7301357421875,-0.1072382852435112,-0.3439787030220032,-0.7699863314628601
1772796824978127600,3.740127685546875,-0.04573950171470642,-0.37773773074150085,-0.7392992377281189
1772796824988119600,3.75011962890625,0.03791096433997154,-0.4129534661769867,-0.7451058626174927
1772796824998112800,3.76011279296875,0.12861822545528412,-0.46058088541030884,-0.7618587613105774
1772796825008104400,3.7701044921875,0.1816556602716446,-0.5026335120201111,-0.7718532681465149
1772796825018096600,3.7800966796875,0.17763347923755646,-0.6255184412002563,-0.8063116669654846
1772796825028088600,3.790088623046875,0.1823640763759613,-0.8405165672302246,-0.8312815427780151
1772796825038080800,3.800080810546875,0.21456408500671387,-0.9692550897598267,-0.8063399791717529
1772796825048072700,3.81007275390625,0.2482473999261856,-0.8707913160324097,-0.6265308260917664
1772796825058065700,3.820065673828125,0.28028255701065063,-0.42201489210128784,-0.23466557264328003
1772796825068057900,3.830057861328125,0.36147579550743103,0.32785362005233765,0.36606281995773315
1772796825078049500,3.840049560546875,0.45174312591552734,1.1645426750183105,0.9841985106468201
1772796825088041500,3.85004150390625,0.4802088439464569,1.635548710823059,1.4286102056503296
1772796825098033700,3.86003369140625,0.4818996787071228,1.7490133047103882,1.6036564111709595
1772796825108026600,3.870026611328125,0.3238106071949005,1.705991268157959,1.4391415119171143
1772796825118018600,3.8800185546875,0.166753888130188,1.4254556894302368,1.095613718032837
1772796825128010800,3.8900107421875,0.03997531905770302,0.8619977831840515,0.5048599243164062
1772796825138002700,3.900002685546875,-0.15201090276241302,0.24216540157794952,-0.8285155892372131
1772796825147995000,3.909994873046875,-0.47739377617836,-0.07710367441177368,-3.129035234451294
1772796825157986600,3.919986572265625,-0.7713385820388794,-0.09722598642110825,-5.452977657318115
1772796825167980300,3.929980224609375,-0.8632954359054565,0.044632889330387115,-6.348095417022705
1772796825177972000,3.939971923828125,-0.6418588757514954,-0.009626353159546852,-5.303658485412598
1772796825187964200,3.949964111328125,-0.14989612996578217,-0.3650808036327362,-3.0581812858581543
1772796825197956000,3.9599560546875,0.2867107391357422,-0.6181857585906982,-0.7430896162986755
1772796825207948300,3.9699482421875,0.5426099300384521,-0.6758520603179932,0.9312764406204224
1772796825217941000,3.97994091796875,0.6220011115074158,-0.6370029449462891,1.85811448097229
1772796825227933200,3.98993310546875,0.6023150086402893,-0.6846139430999756,2.1756553649902344
1772796825237925000,3.999925048828125,0.43734630942344666,-0.7351725101470947,1.8465003967285156
1772796825247917000,4.0099169921875,0.17625519633293152,-0.824860692024231,1.324122667312622
1772796825257909000,4.019908935546875,-0.06555982679128647,-0.9112139344215393,1.0173920392990112
1772796825267901200,4.029901123046875,-0.2706642150878906,-0.9370915293693542,1.0322643518447876
1772796825277894100,4.03989404296875,-0.3991316258907318,-0.895268976688385,1.371814250946045
1772796825287886000,4.049885986328125,-0.4464288353919983,-0.6972762942314148,1.9135253429412842
1772796825297878300,4.059878173828125,-0.4871336817741394,-0.3377908170223236,2.4274332523345947
1772796825307870200,4.0698701171875,-0.5738018155097961,0.003181577194482088,2.784832239151001
1772796825317862400,4.0798623046875,-0.6681398153305054,0.21863263845443726,2.951306104660034
1772796825327855000,4.089855224609375,-0.7459298968315125,0.32303446531295776,2.9175353050231934
1772796825337847300,4.099847412109375,-0.815682053565979,0.27306291460990906,2.712271213531494
1772796825347839200,4.109839111328125,-0.8507266044616699,0.054679714143276215,2.389122247695923
1772796825357831200,4.1198310546875,-0.8348009586334229,-0.27289754152297974,1.9706332683563232
1772796825367823000,4.129822998046875,-0.8465407490730286,-0.667648196220398,1.3369379043579102
1772796825377815300,4.139815185546875,-0.8598840236663818,-0.9966346025466919,0.5236012935638428
1772796825387808000,4.14980810546875,-0.7865480184555054,-1.1469159126281738,-0.21934515237808228
1772796825397800200,4.15980029296875,-0.6902140378952026,-1.1364781856536865,-0.7888656258583069
1772796825407792000,4.169792236328125,-0.5781950950622559,-0.9985110759735107,-1.2128231525421143
1772796825417784300,4.179784423828125,-0.443173885345459,-0.752441942691803,-1.510746717453003
1772796825427776000,4.18977587890625,-0.3437312841415405,-0.4235224425792694,-1.7259981632232666
1772796825437768200,4.199768310546875,-0.26968929171562195,-0.09623192995786667,-1.8697657585144043
1772796825447761200,4.20976123046875,-0.2307380735874176,0.19884093105793,-1.9024165868759155
1772796825457753000,4.219753173828125,-0.19678117334842682,0.37440451979637146,-1.8463191986083984
1772796825467745000,4.2297451171875,-0.1683335304260254,0.3752534091472626,-1.7357020378112793
1772796825477737200,4.2397373046875,-0.1280636191368103,0.28648653626441956,-1.5933561325073242
1772796825487729200,4.249729248046875,-0.014163985848426819,0.22169069945812225,-1.431806206703186
1772796825497722000,4.25972216796875,0.09286738932132721,0.18027640879154205,-1.2601375579833984
1772796825507714300,4.26971435546875,0.11680161207914352,0.19072772562503815,-1.0612856149673462
1772796825517706200,4.279706298828125,0.10567466169595718,0.2642589211463928,-0.8142173886299133
1772796825527698000,4.289697998046875,0.15031787753105164,0.28298479318618774,-0.48365098237991333
1772796825537690000,4.299690185546875,0.2121514081954956,0.24930377304553986,0.007900375872850418
1772796825547682000,4.30968212890625,0.2068694680929184,0.273693710565567,0.4993833899497986
1772796825557675000,4.319675048828125,0.17262548208236694,0.32179227471351624,0.7630482912063599
1772796825567667200,4.329667236328125,0.04598507285118103,0.4218428134918213,0.7362211346626282
1772796825577659100,4.3396591796875,-0.09887251257896423,0.4584117531776428,0.602785587310791
1772796825587651300,4.3496513671875,-0.14597836136817932,0.19055061042308807,0.2938607633113861
1772796825597643300,4.359643310546875,-0.22387529909610748,0.1731250137090683,-0.7888221144676208
1772796825607635200,4.36963525390625,-0.3582911491394043,0.7175127267837524,-2.6665334701538086
1772796825617628200,4.379628173828125,-0.35295844078063965,1.4496632814407349,-4.24161434173584
1772796825627620000,4.3896201171875,-0.16213078796863556,1.974384069442749,-4.250751972198486
1772796825637612000,4.399612060546875,0.16071757674217224,1.8146021366119385,-2.545426368713379
1772796825647604200,4.409604248046875,0.4348250925540924,1.2045743465423584,-0.4049832224845886
1772796825657596200,4.41959619140625,0.5306168794631958,0.6747110486030579,0.9527879357337952
1772796825667589000,4.429589111328125,0.39396846294403076,0.16132667660713196,1.5355989933013916
1772796825677581000,4.4395810546875,0.2203277200460434,-0.3904310166835785,1.688727855682373
1772796825687573200,4.4495732421875,0.22216260433197021,-0.7611835598945618,1.807080864906311
1772796825697565200,4.459565185546875,0.2435070425271988,-0.8984453082084656,1.560523271560669
1772796825707557000,4.46955712890625,0.2849844992160797,-0.7723320126533508,1.1451585292816162
1772796825717549000,4.479549072265625,0.32811757922172546,-0.46187537908554077,0.8558700680732727
1772796825727542300,4.489542236328125,0.33060765266418457,-0.1707078218460083,0.8439906239509583
1772796825737534000,4.499533935546875,0.2615777254104614,-0.03385915979743004,1.1526260375976562
1772796825747526100,4.509526123046875,0.1356530338525772,-0.12023910135030746,1.5513131618499756
1772796825757518000,4.51951806640625,0.023218898102641106,-0.3580141067504883,1.8755894899368286
1772796825767510300,4.52951025390625,-0.08885267376899719,-0.5752890706062317,2.103072166442871
1772796825777503200,4.539503173828125,-0.1963338553905487,-0.7354052066802979,2.2348484992980957
1772796825787495200,4.5494951171875,-0.2972455620765686,-0.8361209034919739,2.208475112915039
1772796825797487400,4.5594873046875,-0.34657901525497437,-0.8686628937721252,1.9939807653427124
1772796825807479000,4.56947900390625,-0.3590409755706787,-0.8141078948974609,1.569845199584961
1772796825817471200,4.57947119140625,-0.3750971853733063,-0.6714881658554077,0.9773301482200623
1772796825827463200,4.589463134765625,-0.35873839259147644,-0.543902575969696,0.2688741683959961
1772796825837456100,4.5994560546875,-0.36300691962242126,-0.5272663831710815,-0.42065683007240295
1772796825847448000,4.609447998046875,-0.3921828866004944,-0.4635395407676697,-0.9188408255577087
1772796825857440300,4.619440185546875,-0.4025915861129761,-0.41730597615242004,-1.1448031663894653
1772796825867432200,4.62943212890625,-0.3473970293998718,-0.3537845313549042,-1.157687783241272
1772796825877424000,4.639424072265625,-0.23857493698596954,-0.2187015414237976,-1.0877821445465088
1772796825887417000,4.6494169921875,-0.08746835589408875,-0.027853142470121384,-1.094078540802002
1772796825897409300,4.6594091796875,0.09321247041225433,0.16422656178474426,-1.1869930028915405
1772796825907401000,4.66940087890625,0.22088755667209625,0.26889681816101074,-1.2534146308898926
1772796825917393200,4.67939306640625,0.28545722365379333,0.2811247408390045,-1.2440813779830933
1772796825927385000,4.689385009765625,0.307593435049057,0.16630323231220245,-1.1544197797775269
1772796825937377300,4.699377197265625,0.3036351799964905,-0.09419040381908417,-0.9740161895751953
1772796825947370000,4.709369873046875,0.31335675716400146,-0.38413476943969727,-0.7448492050170898
1772796825957362200,4.719362060546875,0.31286701560020447,-0.6390551924705505,-0.4937996566295624
1772796825967354000,4.72935400390625,0.27940309047698975,-0.9265316724777222,-0.19918525218963623
1772796825977346300,4.73934619140625,0.23955635726451874,-1.1006981134414673,0.19585181772708893
1772796825987338000,4.749337890625,0.2064385712146759,-1.028520941734314,0.5859683156013489
1772796825997330200,4.759330078125,0.20145659148693085,-0.625657320022583,0.8389372229576111
1772796826007323400,4.769323486328125,0.21587403118610382,0.06257151067256927,0.8220686912536621
1772796826017315000,4.779315185546875,0.20321042835712433,0.774360179901123,0.5984271168708801
1772796826027307300,4.789307373046875,0.21490301191806793,1.2785028219223022,0.45249423384666443
1772796826037299200,4.79929931640625,0.264123797416687,1.6707978248596191,0.5130534768104553
1772796826047291100,4.809291015625,0.21873082220554352,1.6264052391052246,0.6008603572845459
1772796826057284000,4.8192841796875,0.15334835648536682,1.102386713027954,0.3937378525733948
1772796826067276300,4.8292763671875,0.02970653399825096,0.4942052960395813,-0.43510428071022034
1772796826077268200,4.839268310546875,-0.12795792520046234,0.4461813271045685,-1.9336618185043335
1772796826087260200,4.84926025390625,-0.14123287796974182,0.9012605547904968,-3.2795212268829346
1772796826097252000,4.859252197265625,-0.02405432239174843,1.199771523475647,-3.574331760406494
1772796826107244300,4.869244384765625,0.10499244928359985,0.7582763433456421,-2.5957984924316406
1772796826117237000,4.879237060546875,0.26282018423080444,0.11406858265399933,-0.9925039410591125
1772796826127229200,4.889229248046875,0.42390939593315125,-0.2677457928657532,0.3425019681453705
1772796826137221000,4.89922119140625,0.520116925239563,-0.586211621761322,1.3835697174072266
1772796826147213300,4.90921337890625,0.5608000159263611,-0.7289347648620605,1.9250268936157227
1772796826157205000,4.919205078125,0.44325312972068787,-0.8216513395309448,1.6415406465530396
1772796826167198000,4.929197998046875,0.28518038988113403,-0.7592413425445557,1.007568359375
1772796826177190100,4.939190185546875,0.2050195187330246,-0.564198911190033,0.4609556198120117
1772796826187181800,4.949181884765625,0.2249748408794403,-0.3370789587497711,0.21442247927188873
1772796826197174000,4.959174072265625,0.24969510734081268,-0.08263974636793137,0.2661069929599762
1772796826207166000,4.969166015625,0.25538086891174316,0.14265775680541992,0.531001627445221
1772796826217158100,4.979158203125,0.25863394141197205,0.21891126036643982,0.8812475204467773
1772796826227150800,4.98915087890625,0.22953197360038757,0.20708028972148895,1.1818019151687622
1772796826237143000,4.99914306640625,0.1774037927389145,0.09825234115123749,1.39116632938385
1772796826247135000,5.009135009765625,0.1324627697467804,0.011746954172849655,1.4997199773788452
1772796826257127200,5.019127197265625,0.07694970816373825,0.02441161684691906,1.472373604774475
1772796826267118800,5.029118896484375,0.03691171109676361,0.08992083370685577,1.3118243217468262
1772796826277111000,5.039111083984375,-0.0038495678454637527,0.1756754219532013,1.0514113903045654
1772796826287104300,5.049104248046875,-0.07916228473186493,0.20874135196208954,0.6623792052268982
1772796826297096000,5.059095947265625,-0.12615695595741272,0.09807609021663666,0.14215895533561707
1772796826307088100,5.069088134765625,-0.112628273665905,-0.050193969160318375,-0.36042705178260803
1772796826317080000,5.079080078125,-0.08704914152622223,-0.14069750905036926,-0.7230182886123657
1772796826327072300,5.089072265625,-0.06487970799207687,-0.19648438692092896,-0.9290335774421692
1772796826337065000,5.09906494140625,-0.03580198064446449,-0.21032856404781342,-1.0185928344726562
1772796826347057200,5.10905712890625,0.04096880555152893,-0.13104481995105743,-1.0404720306396484
1772796826357049000,5.119049072265625,0.1585356444120407,-0.0028650108724832535,-1.031619906425476
1772796826367041000,5.129041015625,0.2562938630580902,0.05695649981498718,-0.9480811953544617
1772796826377033000,5.139032958984375,0.29765835404396057,0.061495326459407806,-0.8605976700782776
1772796826387025200,5.149025146484375,0.3167368769645691,0.008273009210824966,-0.7697212100028992
1772796826397017900,5.159017822265625,0.31829455494880676,-0.06154948100447655,-0.6021711230278015
1772796826407010000,5.169010009765625,0.32725831866264343,-0.11760278791189194,-0.35466495156288147
1772796826417002000,5.179001953125,0.3401181995868683,-0.22590795159339905,-0.1591159552335739
1772796826426994200,5.188994140625,0.40281057357788086,-0.3789520263671875,-0.1089923083782196
1772796826436985900,5.19898583984375,0.4587390720844269,-0.48201316595077515,-0.1887020468711853
1772796826446979000,5.20897900390625,0.4864475727081299,-0.3881204426288605,-0.35233229398727417
1772796826456971000,5.218970947265625,0.49896180629730225,-0.06131116673350334,-0.44792166352272034
1772796826466963000,5.228962890625,0.4449231028556824,0.4615197479724884,-0.2406044900417328
1772796826476955000,5.238954833984375,0.36865946650505066,0.8681578040122986,0.287815123796463
1772796826486947000,5.248947021484375,0.38622093200683594,1.0912070274353027,0.9592036008834839
1772796826496939000,5.25893896484375,0.498921662569046,1.3513680696487427,1.455528736114502
1772796826506932000,5.268931884765625,0.6554992198944092,1.687005639076233,1.7189044952392578
1772796826516924200,5.278924072265625,0.7023681998252869,1.5601928234100342,1.6153509616851807
1772796826526916000,5.288916015625,0.6552005410194397,1.0496342182159424,0.8491963744163513
1772796826536908000,5.298907958984375,0.3955705463886261,0.6490004658699036,-0.8993262648582458
1772796826546900000,5.30889990234375,0.11665631085634232,0.26551181077957153,-2.987546920776367
1772796826556893200,5.31889306640625,-0.06544771045446396,0.1634325534105301,-4.198531627655029
1772796826566885000,5.328885009765625,-0.08089985698461533,-0.060136567801237106,-3.848629951477051
1772796826576877000,5.338876953125,0.02341615967452526,-0.24136094748973846,-2.037520408630371
1772796826586869000,5.348868896484375,0.25329408049583435,-0.22092069685459137,-0.039328332990407944
1772796826596861200,5.358861083984375,0.4959823489189148,-0.2211260199546814,1.4282177686691284
1772796826606853000,5.36885302734375,0.6547105312347412,-0.2179223597049713,2.3440427780151367
1772796826616846000,5.37884619140625,0.5093876719474792,-0.5502824783325195,2.198223352432251
1772796826626838000,5.388838134765625,0.3010174632072449,-0.8497298955917358,1.6230854988098145
1772796826636830200,5.398830322265625,0.16284385323524475,-0.9831033945083618,1.0795705318450928
1772796826646822000,5.40882177734375,0.13461725413799286,-0.9756431579589844,0.7695091962814331
1772796826656814000,5.41881396484375,0.09239204972982407,-0.8245655298233032,0.7099257707595825
1772796826666806000,5.428805908203125,0.07780066877603531,-0.612978994846344,0.8599914312362671
1772796826676799000,5.438799072265625,0.05763867497444153,-0.36083465814590454,1.0753778219223022
1772796826686791000,5.448791015625,0.0033341075759381056,-0.06850630044937134,1.2519818544387817
1772796826696783000,5.458783203125,-0.05517048388719559,0.19139903783798218,1.3340572118759155
1772796826706775000,5.468775146484375,-0.12716157734394073,0.3331355154514313,1.3396157026290894
1772796826716767000,5.47876708984375,-0.2153415083885193,0.40460410714149475,1.2838661670684814
1772796826726760200,5.48876025390625,-0.3156622648239136,0.3785637319087982,1.1680766344070435
1772796826736752000,5.498752197265625,-0.42685216665267944,0.24727627635002136,0.9720480442047119
1772796826746743800,5.508743896484375,-0.5246053338050842,0.05330456420779228,0.6236745715141296
1772796826756736000,5.518736083984375,-0.5498206615447998,-0.10520517826080322,0.06509491056203842
1772796826766728000,5.52872802734375,-0.4816522002220154,-0.18748760223388672,-0.5890389084815979
1772796826776720100,5.53872021484375,-0.3607867658138275,-0.17802485823631287,-1.1263290643692017
1772796826786713000,5.548713134765625,-0.2618902623653412,-0.10727143287658691,-1.4549338817596436
1772796826796705000,5.558705078125,-0.22240518033504486,-0.053531236946582794,-1.5645816326141357
1772796826806697200,5.568697265625,-0.1922973096370697,-0.027736913412809372,-1.489271879196167
1772796826816689000,5.57868896484375,-0.17651142179965973,-0.03151727095246315,-1.3324562311172485
1772796826826681000,5.58868115234375,-0.17224577069282532,-0.026104195043444633,-1.1755800247192383
1772796826836673000,5.598673095703125,-0.15064167976379395,-0.04360568895936012,-1.0826003551483154
1772796826846666000,5.608666015625,-0.10158544778823853,-0.06915871053934097,-1.0505802631378174
1772796826856658000,5.618657958984375,-0.04110398888587952,-0.13840676844120026,-0.9988707304000854
1772796826866650000,5.628650146484375,-0.03548165038228035,-0.20609843730926514,-0.9203128814697266
1772796826876642000,5.63864208984375,-0.05417677387595177,-0.28388458490371704,-0.8040776252746582
1772796826886634000,5.648634033203125,-0.06369676440954208,-0.3953979015350342,-0.5642885565757751
1772796826896627000,5.658626953125,-0.0782775729894638,-0.39003482460975647,-0.1549021452665329
1772796826906619100,5.668619140625,-0.06925278902053833,-0.2581964135169983,0.32245734333992004
1772796826916611000,5.678611083984375,-0.014324560761451721,0.03315609693527222,0.7600032091140747
1772796826926603000,5.68860302734375,0.015593014657497406,0.4123848080635071,1.0136674642562866
1772796826936595000,5.698594970703125,0.03071497566998005,0.8308283686637878,1.0895856618881226
1772796826946587100,5.708587158203125,0.10396946221590042,1.1875746250152588,1.1357855796813965
1772796826956579800,5.718579833984375,0.20290936529636383,1.3967326879501343,1.1862807273864746
1772796826966572000,5.728572021484375,0.22497525811195374,1.3761568069458008,1.214962363243103
1772796826976564000,5.73856396484375,0.208744615316391,0.8066765666007996,1.279270887374878
1772796826986556200,5.74855615234375,0.19058193266391754,0.18198706209659576,1.0600188970565796
1772796826996547800,5.7585478515625,0.014647922478616238,0.06920778751373291,-0.2461223155260086
1772796827006541000,5.768541015625,-0.08637823164463043,0.39437583088874817,-2.413465738296509
1772796827016533200,5.778533203125,-0.11500481516122818,0.6968446373939514,-3.8325092792510986
1772796827026525000,5.78852490234375,-0.05580974370241165,0.7897186875343323,-3.681032657623291
1772796827036517000,5.79851708984375,0.1524592936038971,0.5106436610221863,-2.105098009109497
1772796827046509000,5.808509033203125,0.3538680672645569,0.17160499095916748,-0.18269141018390656
1772796827056501200,5.818501220703125,0.4530295431613922,-0.04967199265956879,1.0336607694625854
1772796827066494000,5.828493896484375,0.48430970311164856,-0.30789127945899963,1.6201578378677368
1772796827076486100,5.838486083984375,0.4161578118801117,-0.509406566619873,1.7997441291809082
1772796827086478000,5.84847802734375,0.193537175655365,-0.717212438583374,1.3199644088745117
1772796827096470000,5.858469970703125,0.011903457343578339,-0.6973796486854553,0.49982401728630066
1772796827106462000,5.8684619140625,-0.08919453620910645,-0.486149400472641,-0.2367875725030899
1772796827116455200,5.878455078125,-0.19088441133499146,-0.18861544132232666,-0.5517506003379822
1772796827126446800,5.88844677734375,-0.2635801434516907,0.11346282064914703,-0.3632268011569977
1772796827136439000,5.89843896484375,-0.261610746383667,0.30544742941856384,0.20692721009254456
1772796827146431000,5.908430908203125,-0.246792733669281,0.33973437547683716,0.9026641845703125
1772796827156423200,5.918423095703125,-0.24944284558296204,0.25016799569129944,1.4498965740203857
1772796827166415400,5.928415283203125,-0.2631935477256775,0.16795502603054047,1.7144583463668823
1772796827176408300,5.938408203125,-0.2883194088935852,0.09358012676239014,1.6788694858551025
1772796827186400500,5.948400390625,-0.3468349874019623,0.01700749062001705,1.3705085515975952
1772796827196392200,5.95839208984375,-0.38161906599998474,-0.06666237115859985,0.875292181968689
1772796827206384400,5.96838427734375,-0.38487130403518677,-0.1343642920255661,0.2866280674934387
1772796827216376300,5.978376220703125,-0.35150641202926636,-0.1634468138217926,-0.2845992147922516
1772796827226368500,5.988368408203125,-0.27189624309539795,-0.12877842783927917,-0.7009880542755127
1772796827236361500,5.998361572265625,-0.17616945505142212,-0.03367268294095993,-0.9051355719566345
1772796827246353400,6.008353515625,-0.10851927846670151,0.05526987090706825,-0.9272114038467407
1772796827256345600,6.018345703125,-0.0815742164850235,0.08563975989818573,-0.8586735725402832
1772796827266337300,6.028337158203125,-0.09004391729831696,0.12932300567626953,-0.8430973291397095
1772796827276329500,6.03832958984375,-0.12982673943042755,0.15634822845458984,-0.9376561045646667
1772796827286322400,6.048322509765625,-0.12816296517848969,0.1405573934316635,-1.0792579650878906
1772796827296314400,6.058314453125,-0.05391136556863785,0.1298445612192154,-1.1861852407455444
1772796827306306300,6.068306396484375,0.028512287884950638,0.04106999188661575,-1.1449624300003052
1772796827316298500,6.078298583984375,0.10075612366199493,-0.05017150193452835,-1.0090612173080444
1772796827326290400,6.08829052734375,0.17148011922836304,-0.07192713022232056,-0.889336347579956
1772796827336282400,6.098282470703125,0.2057400941848755,-0.09013356268405914,-0.7871373295783997
1772796827346275300,6.108275390625,0.21716240048408508,-0.18141019344329834,-0.6233251094818115
1772796827356267500,6.118267578125,0.17298907041549683,-0.4157981872558594,-0.3897179663181305
1772796827366259500,6.128259521484375,0.062243763357400894,-0.7852314114570618,-0.08365147560834885
1772796827376251400,6.13825146484375,-0.05175258219242096,-1.1650245189666748,0.29272615909576416
1772796827386243300,6.148243408203125,-0.16582928597927094,-1.2326966524124146,0.5933816432952881
1772796827396235500,6.158235595703125,-0.1463666409254074,-0.8668821454048157,0.7604177594184875
1772796827406228200,6.168228271484375,-0.014186481013894081,-0.2459113746881485,0.8690589070320129
1772796827416220400,6.178220458984375,0.08874469250440598,0.24160796403884888,0.9296021461486816
1772796827426212400,6.18821240234375,0.03659588098526001,0.487416535615921,0.9916114211082458
1772796827436204500,6.19820458984375,-0.1297510266304016,0.5643126964569092,0.9752010107040405
1772796827446196200,6.2081962890625,-0.41300565004348755,0.23250871896743774,0.8993455171585083
1772796827456189400,6.218189453125,-0.6809467673301697,-0.19668658077716827,0.5012493133544922
1772796827466181600,6.228181640625,-0.7471649050712585,-0.51518714427948,-0.23429560661315918
1772796827476173300,6.23817333984375,-0.5518391132354736,-0.5778585076332092,-0.96750408411026
1772796827486165500,6.24816552734375,-0.258678674697876,-0.510053813457489,-1.2784144878387451
1772796827496157400,6.258157470703125,0.04385963827371597,-0.3932611644268036,-0.8406928181648254
1772796827506149400,6.2681494140625,0.4028246998786926,-0.1781066656112671,0.10330865532159805
1772796827516142300,6.278142333984375,0.671568751335144,0.05320032685995102,1.0234920978546143
1772796827526134500,6.288134521484375,0.7756476402282715,0.21576878428459167,1.598975419998169
1772796827536126500,6.29812646484375,0.791008472442627,0.17767147719860077,1.8542327880859375
1772796827546118400,6.308118408203125,0.7473568320274353,0.24366790056228638,1.8364372253417969
1772796827556110300,6.3181103515625,0.6865277886390686,0.37549251317977905,1.5241470336914062
1772796827566103600,6.328103515625,0.5976762771606445,0.48910632729530334,0.5976993441581726
1772796827576095200,6.33809521484375,0.4947328269481659,0.6414886713027954,-0.4000648558139801
1772796827586087400,6.34808740234375,0.4678424000740051,0.8143943548202515,-0.8724284768104553
1772796827596079400,6.358079345703125,0.5674893856048584,0.7538284659385681,-0.6392300724983215
1772796827606071600,6.368071533203125,0.46471813321113586,0.46509796380996704,-0.06133243069052696
1772796827616063200,6.378063232421875,0.23704367876052856,-0.06590411812067032,0.5439060926437378
1772796827626056400,6.388056396484375,0.04605342447757721,-0.46989333629608154,0.9952319860458374
1772796827636048400,6.39804833984375,-0.0925486609339714,-0.5687538385391235,1.2003114223480225
1772796827646040300,6.408040283203125,-0.16520708799362183,-0.46714457869529724,1.1231703758239746
1772796827656032300,6.4180322265625,-0.16873390972614288,-0.3266282081604004,0.9549132585525513
1772796827666024400,6.4280244140625,-0.16525650024414062,-0.26395291090011597,0.789849579334259
1772796827676016400,6.438016357421875,-0.18177928030490875,-0.3273736834526062,0.6273645162582397
1772796827686009300,6.44800927734375,-0.2457846701145172,-0.4267531633377075,0.44290417432785034
1772796827696001300,6.458001220703125,-0.3485265076160431,-0.5376620888710022,0.2030676156282425
1772796827705993500,6.467993408203125,-0.42461371421813965,-0.6444323062896729,-0.07284224778413773
1772796827715985400,6.4779853515625,-0.45075663924217224,-0.6448823809623718,-0.37904930114746094
1772796827725977300,6.487977294921875,-0.4563599228858948,-0.5103368163108826,-0.7048301100730896
1772796827735970600,6.497970458984375,-0.45999833941459656,-0.22851523756980896,-1.0067635774612427
1772796827745962500,6.50796240234375,-0.4393787980079651,0.13108251988887787,-1.2037384510040283
1772796827755954400,6.517954345703125,-0.40157389640808105,0.5375248789787292,-1.2535163164138794
1772796827765946400,6.5279462890625,-0.36797383427619934,0.9364506602287292,-1.2236425876617432
1772796827775938600,6.5379384765625,-0.32642480731010437,1.2239868640899658,-1.1885908842086792
1772796827785930500,6.547930419921875,-0.27342769503593445,1.390945315361023,-1.1658552885055542
1772796827795923500,6.55792333984375,-0.21746322512626648,1.404390573501587,-1.1271512508392334
1772796827805915400,6.567915283203125,-0.14446373283863068,1.2759084701538086,-0.9929922819137573
1772796827815907600,6.577907470703125,-0.10542045533657074,1.0613425970077515,-0.7123693823814392
1772796827825899300,6.587899169921875,-0.08354981243610382,0.7579696178436279,-0.2988687753677368
1772796827835891500,6.597891357421875,-0.02968658320605755,0.22206705808639526,0.15298712253570557
1772796827845883400,6.60788330078125,0.04498433694243431,-0.38405534625053406,0.5964909195899963
1772796827855876400,6.61787646484375,0.1203930675983429,-0.8169548511505127,0.9862014055252075
1772796827865868300,6.627868408203125,0.20600809156894684,-0.9850244522094727,1.2778302431106567
1772796827875860500,6.637860595703125,0.23803871870040894,-0.9269446134567261,1.379586100578308
1772796827885852400,6.647852294921875,0.19440221786499023,-0.6445807814598083,1.2361645698547363
1772796827895844400,6.65784423828125,0.14846695959568024,-0.0480785071849823,0.8913525342941284
1772796827905837300,6.66783740234375,0.21226617693901062,0.6483572721481323,0.5147778391838074
1772796827915829500,6.67782958984375,0.43373438715934753,1.247560739517212,0.34768202900886536
1772796827925821200,6.6878212890625,0.5540415644645691,1.4697078466415405,0.454332172870636
1772796827935813400,6.6978134765625,0.3280518352985382,1.11477530002594,0.41473841667175293
1772796827945805300,6.707805419921875,-0.0874427780508995,0.618254542350769,-0.017643745988607407
1772796827955797500,6.717797607421875,-0.3569573163986206,0.6036625504493713,-0.8426902294158936
1772796827965790500,6.72779052734375,-0.4282825291156769,1.0404284000396729,-1.8829172849655151
1772796827975782400,6.737782470703125,-0.2978014647960663,1.3577688932418823,-2.5705764293670654
1772796827985774600,6.747774658203125,-0.00987892784178257,1.4239791631698608,-2.4587349891662598
1772796827995766500,6.7577666015625,0.3946445882320404,1.1732980012893677,-1.4433363676071167
1772796828005758500,6.767758544921875,0.6260834336280823,0.772915244102478,-0.1865023821592331
1772796828015750400,6.77775048828125,0.602054238319397,0.37041258811950684,0.5214763283729553
1772796828025743400,6.787743408203125,0.4306296706199646,0.024028195068240166,0.747013509273529
1772796828035735300,6.7977353515625,0.27184510231018066,-0.2376236468553543,0.7863531708717346
1772796828045727500,6.8077275390625,0.16847313940525055,-0.36293408274650574,0.8152850270271301
1772796828055719400,6.817719482421875,0.12948977947235107,-0.43981581926345825,0.8856366872787476
1772796828065711600,6.827711669921875,0.13638204336166382,-0.5504809021949768,1.0202100276947021
1772796828075704300,6.837704345703125,0.1225421205163002,-0.7082087397575378,1.2049199342727661
1772796828085696500,6.847696533203125,0.0843031033873558,-0.8613850474357605,1.3942017555236816
1772796828095688400,6.8576884765625,0.058741286396980286,-0.9399927854537964,1.5286836624145508
1772796828105680400,6.867680419921875,0.03844752907752991,-0.9046833515167236,1.6287952661514282
1772796828115672300,6.87767236328125,0.002974489238113165,-0.7365854382514954,1.6842678785324097
1772796828125664500,6.88766455078125,-0.058220408856868744,-0.5511347651481628,1.6840872764587402
1772796828135657200,6.8976572265625,-0.11611167341470718,-0.3291480839252472,1.5717501640319824
1772796828145649400,6.9076494140625,-0.1305660903453827,-0.04185464605689049,1.351360559463501
1772796828155641300,6.917641357421875,-0.06616818904876709,0.25983676314353943,1.1717700958251953
1772796828165632500,6.927632568359375,-0.020231714472174644,0.42516928911209106,0.9710407853126526
1772796828175624700,6.937624755859375,0.07289423048496246,0.5165191292762756,0.7293964624404907
1772796828185617700,6.94761767578125,0.1940479725599289,0.5437711477279663,0.45537930727005005
1772796828195609600,6.957609619140625,0.3068264424800873,0.5437386631965637,0.2104763686656952
1772796828205601800,6.967601806640625,0.3838823139667511,0.4842398762702942,0.05946232005953789
1772796828215593500,6.977593505859375,0.41467300057411194,0.4021042585372925,-0.009935394860804081
1772796828225585400,6.98758544921875,0.427463561296463,0.35033559799194336,-0.0010711452923715115
1772796828235577600,6.99757763671875,0.46827995777130127,0.3879663050174713,0.12467000633478165
1772796828245570600,7.007570556640625,0.5272291302680969,0.5103612542152405,0.38321036100387573
1772796828255562500,7.0175625,0.5607495307922363,0.5681577324867249,0.6979219913482666
1772796828265554700,7.0275546875,0.5433974266052246,0.5462592244148254,1.0242801904678345
1772796828275546600,7.037546630859375,0.45631393790245056,0.4801212549209595,1.2140861749649048
1772796828285538600,7.04753857421875,0.3230128884315491,0.45640644431114197,1.1536599397659302
1772796828295530500,7.057530517578125,0.2244386374950409,0.4978492558002472,0.9044807553291321
1772796828305523700,7.067523681640625,0.21114635467529297,0.5855733156204224,0.5671785473823547
1772796828315515400,7.077515380859375,0.2959941327571869,0.6642997860908508,0.217153400182724
1772796828325507600,7.087507568359375,0.37270644307136536,0.8268059492111206,-0.12883247435092926
1772796828335499500,7.09749951171875,0.34423190355300903,0.7857493162155151,-0.8090432286262512
1772796828345491700,7.10749169921875,0.19806180894374847,0.5903239846229553,-1.6733970642089844
1772796828355484400,7.117484375,-0.02301730588078499,0.523850679397583,-2.4523141384124756
1772796828365476600,7.1274765625,-0.25976040959358215,0.464321106672287,-2.8814446926116943
1772796828375468500,7.137468505859375,-0.4511905610561371,0.31492576003074646,-3.0840766429901123
1772796828385460700,7.147460693359375,-0.5756788849830627,0.2655540108680725,-3.2674498558044434
1772796828395452400,7.157452392578125,-0.5762722492218018,0.28316015005111694,-3.3414881229400635
1772796828405444600,7.167444580078125,-0.3712737560272217,0.202894926071167,-2.9606735706329346
1772796828415437600,7.1774375,-0.14234498143196106,0.1332215666770935,-2.2390060424804688
