time,seconds_elapsed,z,y,x
1772796617344433400,0.064433349609375,0.013513561567664145,-0.48787689431533215,0.3707358580779284
1772796617354425000,0.074425048828125,0.03820961140692234,-0.4733351587437093,0.458370448519662
1772796617364417300,0.084417236328125,0.029492636466026304,-0.5038960089631378,0.6000739348119124
1772796617374409200,0.0944091796875,0.007657236754894256,-0.5179832787655294,0.816448338945955
1772796617384401400,0.1044013671875,-0.04367372203171253,-0.5104140125550329,1.0037312712933868
1772796617394393000,0.11439306640625,-0.07513970439732075,-0.5284805612519383,1.1287842496991156
1772796617404385300,0.12438525390625,-0.12044248893558979,-0.572950402097404,1.1597538268499075
1772796617414378200,0.134378173828125,-0.18889292482733724,-0.6180361828841269,1.1560831024479121
1772796617424370200,0.1443701171875,-0.2906920880913734,-0.6915621684744954,1.1128156231295316
1772796617434362000,0.154362060546875,-0.37385377090275285,-0.7580646851688623,1.0335030169617383
1772796617444354300,0.164354248046875,-0.48814884312450885,-0.8198820397216826,0.9166489079069345
1772796617454346200,0.17434619140625,-0.542981672552228,-0.8182546577155589,0.8102621976569294
1772796617464338200,0.184338134765625,-0.6455839688926934,-0.8930557047430425,0.8002043295010924
1772796617474330000,0.194330078125,-0.7255781275838613,-0.8537855514325201,0.7420381909321994
1772796617484322300,0.204322265625,-0.7765741553276777,-0.7475781432721763,0.6396616661716252
1772796617494314200,0.214314208984375,-0.7913590520054101,-0.6859879485387355,0.5582176009330898
1772796617504306400,0.224306396484375,-0.827743786072731,-0.6818499719511717,0.5314059837119653
1772796617514298000,0.234298095703125,-0.8414052316784858,-0.7796770897790789,0.6363612363867461
1772796617524291300,0.244291259765625,-0.8238140454083681,-0.9604428953174501,0.809890880126506
1772796617534283300,0.254283203125,-0.7196838088482618,-0.9691127431809902,0.7746801582746208
1772796617544275200,0.264275146484375,-0.7110340539246797,-0.7516708194132894,0.46957328545954075
1772796617554267100,0.27426708984375,-0.8789274453431367,-0.48614670952185984,0.0744231170931831
1772796617564259300,0.28425927734375,-1.247929684561491,-0.2571627434551716,-0.1045041661727242
1772796617574251300,0.294251220703125,-1.5355734909981489,-0.052088718351349234,0.054939979596622286
1772796617584243200,0.3042431640625,-1.6833406247109173,0.06536708292365073,0.265523233108595
1772796617594235100,0.314235107421875,-1.67074710059762,0.23625454159155487,0.30392336211893706
1772796617604227300,0.324227294921875,-1.4812813443183899,0.46931474412120877,0.2605100445890799
1772796617614219300,0.33421923828125,-1.233444063091278,0.6285287891954183,0.24513019595919175
1772796617624211200,0.344211181640625,-1.0578688849985598,0.618773703378439,0.2990841419268399
1772796617634204200,0.3542041015625,-0.9425298566818237,0.4709250288620591,0.4160260753955692
1772796617644196400,0.3641962890625,-0.9060954382538795,0.3248809195496142,0.5710979791637509
1772796617654188000,0.37418798828125,-0.9752654205918312,0.3008013941735029,0.6208611771769821
1772796617664180200,0.38418017578125,-0.9934440513610839,0.37318756207898257,0.5684751929121091
1772796617674172200,0.394172119140625,-0.9993471379250287,0.47301191813871263,0.479394166521728
1772796617684164400,0.404164306640625,-0.9328303004443645,0.6089725864626467,0.38637466817125676
1772796617694156300,0.41415625,-0.7684422867983579,0.6811096019126475,0.33377361638359726
1772796617704148200,0.424148193359375,-0.5769926632255316,0.6901371041074394,0.3390154625598341
1772796617714140200,0.43414013671875,-0.3330740167468786,0.650262482097745,0.3575931025840342
1772796617724132400,0.44413232421875,-0.08090075214207172,0.603968202304095,0.3548517679866403
1772796617734124300,0.454124267578125,0.09342413362860678,0.5953986730098724,0.3399517204966396
1772796617744117200,0.4641171875,0.22986264859735964,0.5564699535481631,0.41889739304818213
1772796617754109400,0.474109375,0.35826398758292194,0.47394101568236946,0.4602843558495864
1772796617764101400,0.484101318359375,0.4522556919664144,0.3903120076201856,0.5090615019675344
1772796617774093000,0.494093017578125,0.5707137290865183,0.3706337859429419,0.5145216670695693
1772796617784085200,0.504085205078125,0.6147650522589683,0.3577900864608586,0.513987194866687
1772796617794077200,0.5140771484375,0.6380103187680244,0.345032603957504,0.510071628858149
1772796617804069400,0.5240693359375,0.6484282524079084,0.3561087092451751,0.5522992072021589
1772796617814061000,0.53406103515625,0.6277104585498571,0.3672165248453617,0.5664929330537095
1772796617824053200,0.54405322265625,0.573964839836955,0.3918539763651788,0.605055741812475
1772796617834045200,0.554045166015625,0.47784664481878275,0.4337722330316901,0.6409718719873577
1772796617844037400,0.564037353515625,0.4455968185991049,0.5244486753873526,0.6690623135052621
1772796617854030300,0.5740302734375,0.45729134804606436,0.591848579312861,0.6532660478278994
1772796617864022300,0.584022216796875,0.4777385082691908,0.6362582144036889,0.6314647695820779
1772796617874014500,0.594014404296875,0.5065028304606676,0.641081835167855,0.6109302233364433
1772796617884006100,0.604006103515625,0.534451160094142,0.5604124075636268,0.6073612057432531
1772796617893998000,0.613998046875,0.5610860690414905,0.4846976797573268,0.6150152276277542
1772796617903990300,0.623990234375,0.6519570110559463,0.38285336217731236,0.6692890349332243
1772796617913982200,0.633982177734375,0.7211568040102719,0.3065751552693546,0.7155686286143959
1772796617923974400,0.643974365234375,0.7542056716531514,0.25523455187156796,0.7842199939057231
1772796617933966000,0.653966064453125,0.7764683568656444,0.204732883515954,0.8166290292751044
1772796617943958300,0.663958251953125,0.7779366758525371,0.1904001145198941,0.8474523298230021
1772796617953950200,0.6739501953125,0.7497825945138931,0.17790449782311915,0.8753233564365654
1772796617963943200,0.683943115234375,0.7466676773637533,0.17900573706328868,0.8689769830845296
1772796617973934300,0.693934326171875,0.6964619232147932,0.1515668182566762,0.8472093879126011
1772796617983926500,0.703926513671875,0.6676163524806499,0.12723536394611,0.8462439038813113
1772796617993918500,0.71391845703125,0.6133212831914424,0.09514511220231651,0.8687884747751057
1772796618003910700,0.72391064453125,0.551473022043705,0.09981807244941591,0.8630005390234291
1772796618013902300,0.73390234375,0.47043782986700533,0.09767799168080091,0.8697381036501377
1772796618023894500,0.74389453125,0.42369419887065884,0.10213511722013353,0.8491059422489255
1772796618033886500,0.753886474609375,0.3467909919321537,0.10778569032773375,0.8420372459717095
1772796618043878700,0.763878662109375,0.24768238292634487,0.11478782417476177,0.8035529092766344
1772796618053870300,0.773870361328125,0.11542787564396857,0.09824731600135564,0.7948817462388426
1772796618063863600,0.783863525390625,0.004007482075691223,0.09453662491515279,0.791337863086909
1772796618073855500,0.79385546875,-0.06584755991697311,0.10026844656541943,0.761575688964501
1772796618083847400,0.803847412109375,-0.12432722141444683,0.08799830918759106,0.7687862779304385
1772796618093839400,0.81383935546875,-0.19652327357530594,0.06776084619238973,0.7330120769768953
1772796618103831600,0.82383154296875,-0.18577099341452122,0.05066986452937126,0.7052094394244254
1772796618113823500,0.833823486328125,-0.12599077071249484,-0.008321838143467902,0.6809748696170747
1772796618123815400,0.8438154296875,-0.022063947769999502,-0.03841448632925749,0.64547393264696
1772796618133807400,0.853807373046875,0.07397767488062382,-0.06919087899550795,0.6202184953592718
1772796618143799600,0.863799560546875,0.10594225441813468,-0.09033625061586499,0.6160160021681338
1772796618153791500,0.87379150390625,0.11199205597639084,-0.10427271377071738,0.6037305941559374
1772796618163783400,0.883783447265625,0.1375952837884426,-0.11124503700137138,0.5937118524340912
1772796618173775400,0.893775390625,0.14137889398038386,-0.11410773295611143,0.5011753152949735
1772796618183768600,0.9037685546875,0.14253274019062517,-0.13628098631948232,0.4384858540827408
1772796618193760500,0.913760498046875,0.19778174920380115,-0.1832211628012359,0.4212515914915129
1772796618203752400,0.92375244140625,0.25349428407549857,-0.2175117010682821,0.3956497884515673
1772796618213744400,0.933744384765625,0.3454343166261911,-0.17124357862919568,0.3311662468967959
1772796618223736600,0.943736572265625,0.43752457130253314,-0.18775456844717264,0.3277675809018314
1772796618233728500,0.953728515625,0.5142226110577583,-0.21106340171173213,0.40412816886361685
1772796618243720400,0.963720458984375,0.5931225447714329,-0.24103593064919113,0.5150629708720371
1772796618253712400,0.97371240234375,0.5832604914486408,-0.28118425503373146,0.5750910673879087
1772796618263704600,0.98370458984375,0.5355775337755679,-0.3035705666258931,0.580023263093084
1772796618273696500,0.993696533203125,0.4536807563334703,-0.3162427089333534,0.5339412743432447
1772796618283689500,1.003689453125,0.28315292475819587,-0.3620056583292782,0.5004786748003214
1772796618293681700,1.013681640625,0.1044774425625801,-0.3842540227554738,0.4718452855121344
1772796618303673600,1.023673583984375,-0.0678343498200178,-0.3833275555603206,0.42014454356506464
1772796618313665500,1.03366552734375,-0.20584639771580696,-0.3668789634540677,0.3394668595891446
1772796618323657500,1.043657470703125,-0.294230783611536,-0.3684893212601542,0.23908282382003962
1772796618333649400,1.0536494140625,-0.3787649238198995,-0.4396656749844551,0.14965053630657493
1772796618343641600,1.0636416015625,-0.4401128342300653,-0.5250792283758521,0.09823418252514675
1772796618353633300,1.07363330078125,-0.4536386707574129,-0.5996829262003303,0.04872267598435282
1772796618363625500,1.08362548828125,-0.4284486999213695,-0.6744820004664361,0.025539633657084778
1772796618373617400,1.093617431640625,-0.39177404299676416,-0.741892864177376,0.0520766808536835
1772796618383609600,1.103609619140625,-0.30589725600779055,-0.8427962476454675,0.10491651896643452
1772796618393601500,1.1136015625,-0.18627075963020323,-0.9132850574970245,0.15732227651085703
1772796618403594500,1.123594482421875,-0.0396317531645298,-0.9396274132385849,0.2224005325557664
1772796618413586700,1.133586669921875,0.09282909034490584,-0.9409693293668329,0.30875896558184174
1772796618423578600,1.14357861328125,0.23965105216205118,-0.9557292377337813,0.36072186559643593
1772796618433570600,1.153570556640625,0.36232349210679526,-0.9740957922905683,0.44311117579583076
1772796618443562500,1.1635625,0.4402969586253166,-0.9839242356047033,0.5674799713296815
1772796618453554700,1.1735546875,0.49404783803522584,-1.0419279501534997,0.7261722210194915
1772796618463546600,1.183546630859375,0.4894552495479583,-1.165758327961713,0.9861978796251117
1772796618473538300,1.193538330078125,0.5199024102598429,-1.3009978424042463,1.2170780347019434
1772796618483530500,1.203530517578125,0.6047153674095869,-1.2628285630077123,1.096427017582208
1772796618493522400,1.2135224609375,0.6232885504543781,-1.0698292257748543,0.8104359467886387
1772796618503515400,1.223515380859375,0.5320137038141489,-0.8535301153667271,0.6476212468739598
1772796618513507600,1.233507568359375,0.3439753499895334,-0.765142952992022,0.6724616005547345
1772796618523499500,1.24349951171875,-0.05518237351775169,-0.768091573664546,0.7467483413845301
1772796618533491700,1.25349169921875,-0.6024111821204423,-0.7669236989289522,0.7168564764678478
1772796618543483400,1.2634833984375,-1.0959580848962067,-0.5809896969724446,0.5588156398914754
1772796618553475600,1.2734755859375,-1.4100205271810293,-0.3320951617773622,0.3697678532959893
1772796618563467500,1.283467529296875,-1.589348920327425,-0.041579818492382764,0.2661321405208669
1772796618573459700,1.293459716796875,-1.658853833708167,0.11259579402320086,0.27165824699858204
1772796618583451400,1.303451416015625,-1.6727309678912161,0.1738900014847517,0.4230673722092062
1772796618593443600,1.313443603515625,-1.6948592130690812,0.16675788458250462,0.5461237699702381
1772796618603435500,1.323435546875,-1.7452789022296666,0.0904011325456202,0.6372829543415457
1772796618613427500,1.333427490234375,-1.7412772653728723,0.05570413236953318,0.6441169650800526
1772796618623420400,1.34342041015625,-1.6345038208276033,0.1281994597379118,0.5509180550420657
1772796618633412600,1.35341259765625,-1.4316630346685648,0.2416473405458033,0.4506386852238327
1772796618643404500,1.363404541015625,-1.2382774745970964,0.36007403267957266,0.2955531730554066
1772796618653396500,1.373396484375,-1.0546072528541088,0.4117020747166127,0.09763568690903485
1772796618663388400,1.383388427734375,-0.9054495415657758,0.45882111489661037,-0.1395170638975687
1772796618673380600,1.393380615234375,-0.712311234253645,0.5140775765638799,-0.358576268402487
1772796618683372500,1.40337255859375,-0.5125841962009668,0.538925090637803,-0.5305987955149263
1772796618693364700,1.41336474609375,-0.3306254545509815,0.5630973357986658,-0.6170952487722039
1772796618703356400,1.4233564453125,-0.14387129531800746,0.615245310056582,-0.6422318089205772
1772796618713348600,1.4333486328125,0.056441433668136594,0.7194242080640048,-0.6417572502113879
1772796618723340500,1.443340576171875,0.20867080748677252,0.8126460240535438,-0.6032575698167085
1772796618733333500,1.45333349609375,0.3304962752133608,0.885589679711312,-0.5815199313916266
1772796618743325400,1.463325439453125,0.42182022169232364,0.9694425596572458,-0.5884084853289648
1772796618753317600,1.473317626953125,0.49245735397338863,1.0384534059107302,-0.6543855533771217
1772796618763309600,1.4833095703125,0.5102765037804842,1.070524660693109,-0.7155046234674751
1772796618773301500,1.493301513671875,0.4643085333317518,1.042829429037869,-0.7300729547850787
1772796618783293400,1.50329345703125,0.3670820848107338,0.9574974164500832,-0.7026423654153943
1772796618793285600,1.51328564453125,0.28583704927563663,0.859273481324315,-0.6985209015712142
1772796618803277600,1.523277587890625,0.19559972898960112,0.8066748406894505,-0.6951270213492214
1772796618813269500,1.53326953125,0.15116028328239917,0.7845544865570961,-0.6258394039809704
1772796618823261400,1.543261474609375,0.09434241751730442,0.768594116359204,-0.585232229913026
1772796618833253600,1.553253662109375,0.03999591030180454,0.7475240019321441,-0.5131093891188502
1772796618843246300,1.563246337890625,-0.000036240357160568236,0.7260796473652124,-0.46363173004873093
1772796618853238500,1.573238525390625,0.01740238569974899,0.7011940663032233,-0.47315845046993343
1772796618863230500,1.58323046875,0.04789046294391155,0.6634507572337984,-0.5108955855268985
1772796618873222700,1.59322265625,0.13078385020792482,0.6107986328460275,-0.5484833387084305
1772796618883214600,1.603214599609375,0.22836977969110012,0.5542457016274333,-0.5305565638083964
1772796618893206500,1.61320654296875,0.319283391803503,0.4897945645049214,-0.4511691753713414
1772796618903198500,1.623198486328125,0.4311117816507816,0.4248718643479049,-0.33891401147935535
1772796618913190700,1.633190673828125,0.5212994175761938,0.34135976066365836,-0.20842945474525912
1772796618923182600,1.6431826171875,0.6092278763979673,0.27594343177080155,-0.08950471342885866
1772796618933174500,1.653174560546875,0.6716062988996505,0.20755948524400591,-0.019844280692841856
1772796618943166500,1.66316650390625,0.7432453016996383,0.1692360381990671,0.016724157644622026
1772796618953158700,1.67315869140625,0.7892693862497806,0.11204437068551779,0.01628551049903035
1772796618963151400,1.6831513671875,0.8153641969710588,0.06076178108528256,0.026283684356883167
1772796618973143800,1.693143798828125,0.7931026808023453,0.009109042998403311,0.03986417368091642
1772796618983135700,1.7031357421875,0.7439046423912048,-0.004719137476384639,0.08360339869689196
1772796618993128000,1.7131279296875,0.6837175924539566,-0.0058140931062400335,0.1364159012781456
1772796619003119600,1.72311962890625,0.6015180326730013,-0.02452449266463518,0.15148312202859668
1772796619013111800,1.73311181640625,0.5237994176983833,0.0016825462594628332,0.1460217513501644
1772796619023103700,1.743103759765625,0.3933013986945152,0.04527268166095018,0.13602255457900464
1772796619033096000,1.753095947265625,0.28417817615270613,0.0810113729096949,0.11108688729759306
1772796619043087600,1.763087646484375,0.18602584495842456,0.10091463551446794,0.08146448697205633
1772796619053079800,1.773079833984375,0.09468260925710201,0.09082754126414656,0.03345909241158515
1772796619063071700,1.78307177734375,0.02070551889836788,0.04640007825568318,-0.0008155541665852069
1772796619073064700,1.793064697265625,-0.028285598763823507,0.012140958040207624,-0.03665376026704907
1772796619083056600,1.803056640625,-0.03162263423204422,-0.04055003705322742,-0.0601335661843419
1772796619093048800,1.813048828125,-0.019456980141997336,-0.1230275369927287,-0.04077555290479213
1772796619103040800,1.823040771484375,0.07024316452741622,-0.18789090817794202,-0.014939429652318358
1772796619113032700,1.83303271484375,0.10371347245275973,-0.2605067931860685,0.01930909610390663
1772796619123024600,1.843024658203125,0.14668109204173088,-0.38558366392403837,0.013054602286405861
1772796619133016800,1.853016845703125,0.1979892544746399,-0.4671795587234199,0.00394906641934067
1772796619143008800,1.8630087890625,0.2464519643485546,-0.4999694831691682,-0.04495605345983058
1772796619153000700,1.873000732421875,0.2333972524642944,-0.5704182532712817,-0.09945643606279045
1772796619162992600,1.88299267578125,0.23892098432183265,-0.639780835571885,-0.10544606839902698
1772796619172984800,1.89298486328125,0.21428221762776373,-0.6938795055061578,-0.08271846908852458
1772796619182977800,1.902977783203125,0.1746644929885864,-0.7368601307071745,-0.024898184815235435
1772796619192969700,1.9129697265625,0.11662380743026733,-0.7544047013565898,-0.04126245963890105
1772796619202962000,1.9229619140625,0.04297931002676487,-0.757669840632379,-0.06541614622976631
1772796619212953900,1.932953857421875,-0.06210486625730991,-0.7302423200026155,-0.09519680585693567
1772796619222945800,1.94294580078125,-0.1707265690177679,-0.6960019044876098,-0.15073091542180628
1772796619232937700,1.952937744140625,-0.2691179696649313,-0.6351831325180828,-0.21876696182638405
1772796619242929700,1.9629296875,-0.42528585197627544,-0.5910672196768224,-0.2804089963449165
1772796619252921900,1.972921875,-0.5667278743207455,-0.5328745584271848,-0.28026027205660936
1772796619262913800,1.982913818359375,-0.6379372535318136,-0.49958019159063694,-0.24668745360486208
1772796619272905700,1.99290576171875,-0.6185334648817777,-0.44201501458957787,-0.17648856661058962
1772796619282897700,2.002897705078125,-0.5672732332438231,-0.4154414804406464,-0.07827982905395328
1772796619292891000,2.012890869140625,-0.5159989730805158,-0.4042122304178774,-0.003926818054914474
1772796619302882800,2.0228828125,-0.4659212292253971,-0.4825190205439925,0.08726517260745167
1772796619312874800,2.032874755859375,-0.413026089861989,-0.6762528095312416,0.24155542447865008
1772796619322867000,2.042866943359375,-0.32655016793608665,-0.884702083221823,0.35437114486284554
1772796619332859000,2.05285888671875,-0.24144436531960964,-0.8732166664808988,0.19461378669217227
1772796619342850800,2.062850830078125,-0.22049451627135275,-0.7355886494666337,-0.14018040491081774
1772796619352842800,2.0728427734375,-0.27777707693874837,-0.6724795746028422,-0.36402094367444515
1772796619362834700,2.082834716796875,-0.3891226517051458,-0.6524963786296546,-0.4820061756510287
1772796619372827000,2.092826904296875,-0.5831067621916532,-0.5853164010651409,-0.4838758419804275
1772796619382818800,2.10281884765625,-0.7220113750129937,-0.3461860117763281,-0.49118769936375317
1772796619392810800,2.112810791015625,-0.7260083356946706,-0.0018991116195917128,-0.5076436710588633
1772796619402804000,2.122803955078125,-0.6455629261046648,0.2991108107380569,-0.4715354158453643
1772796619412796000,2.1327958984375,-0.5175830274015665,0.5614933346681297,-0.41467575676515694
1772796619422787800,2.142787841796875,-0.4181488397032022,0.7041754202015698,-0.3805934544213116
1772796619432779800,2.15277978515625,-0.29158874467015267,0.7141342118971049,-0.29593919496461746
1772796619442772000,2.16277197265625,-0.2317991696178913,0.609568798790127,-0.2127454365145415
1772796619452764000,2.172763916015625,-0.19423603942096232,0.5070860371761023,-0.22576639225967227
1772796619462755800,2.182755859375,-0.09249825095534324,0.4580997418195009,-0.2807487862259149
1772796619472747800,2.192747802734375,0.021309914532303808,0.44124242278188464,-0.30643801182098684
1772796619482739700,2.20273974609375,0.11651742444634437,0.4109150890573859,-0.32222346384339035
1772796619492732000,2.21273193359375,0.2007411835312843,0.396841555519402,-0.37016755667068063
1772796619502723600,2.2227236328125,0.2632926245123148,0.3357940893605351,-0.3886060074198991
1772796619512716800,2.232716796875,0.3096586543679237,0.24956162080168723,-0.42142442730776963
1772796619522709000,2.242708984375,0.36182021875977516,0.18839578896015882,-0.4196600479837507
1772796619532700700,2.25270068359375,0.41197862663567064,0.1819546499967575,-0.4046474069647491
1772796619542692900,2.26269287109375,0.41601182767450806,0.18796061241328715,-0.4576818817336112
1772796619552684800,2.272684814453125,0.3547159397125244,0.21382015307396648,-0.5457180387135595
1772796619562677000,2.282677001953125,0.2301560785859823,0.2436255087509751,-0.6177814044054597
1772796619572668700,2.292668701171875,0.09642506901025771,0.3096124771386385,-0.624110242100805
1772796619582660900,2.302660888671875,-0.024642273825407027,0.3621802842438221,-0.5674600610528141
1772796619592652800,2.31265283203125,-0.10992284848690033,0.41262686141133303,-0.4497212050527334
1772796619602645000,2.32264501953125,-0.1564046136766672,0.5108186478331684,-0.3233027835126966
1772796619612637000,2.332636962890625,-0.21598960606753825,0.6170268597111106,-0.16459025821983814
1772796619622630000,2.3426298828125,-0.19422785611450671,0.7467617853879928,-0.029366598933562634
1772796619632621800,2.352621826171875,-0.0978980641722679,0.8204936688140034,0.10119951687045395
1772796619642613800,2.36261376953125,0.013294365859031676,0.8614990484192967,0.22284254070222376
1772796619652605700,2.372605712890625,0.09412205276489258,0.9015133711606264,0.2898535183753818
1772796619662598000,2.382597900390625,0.17251052982509135,0.9541112811431288,0.34325397691242393
1772796619672589800,2.39258984375,0.30791268748342987,1.0123264464855193,0.4108019110064953
1772796619682582000,2.40258203125,0.4238274698615074,1.0541913655295967,0.47106399894133205
1772796619692573700,2.41257373046875,0.5384820230454206,1.0742480651304125,0.5365873684052378
1772796619702566000,2.42256591796875,0.6123731886863708,1.128461009094119,0.6386910675738007
1772796619712557800,2.432557861328125,0.6200795252799988,1.1872530975416302,0.7548259224433451
1772796619722550000,2.442550048828125,0.595697948217392,1.2272563143670558,0.8647142110735178
1772796619732541700,2.452541748046875,0.5667103386640548,1.2665081283032893,0.9248860634416342
1772796619742535000,2.462534912109375,0.5263882651478052,1.2714262954831124,0.9575331453505903
1772796619752526800,2.47252685546875,0.4164671702265739,1.251005146484077,0.9581536153364926
1772796619762518800,2.482518798828125,0.28776012629270553,1.2308563846856355,0.9680089466575532
1772796619772510700,2.4925107421875,0.11236907259523868,1.1436679305762052,0.9893906843170523
1772796619782503000,2.5025029296875,-0.03787526488602161,1.0481807269379495,0.9727157361090183
1772796619792494800,2.512494873046875,-0.11569207953810691,0.947934053812921,0.9315339039582758
1772796619802486800,2.52248681640625,-0.11642214737832546,0.7694763060212135,0.8682591171387583
1772796619812478700,2.532478759765625,-0.09752513920664786,0.5876499585792422,0.7933917268767953
1772796619822471000,2.542470947265625,-0.0702051706045866,0.428882415163517,0.738197370660305
1772796619832462800,2.552462890625,0.001235094752907753,0.29386253482103347,0.7812471155747771
1772796619842454800,2.562454833984375,0.05999474223554134,0.14951660772860048,0.8518539988480508
1772796619852446700,2.57244677734375,0.10326982033848763,0.034370033244043585,0.9230759452797472
1772796619862440000,2.58243994140625,0.14271744910776615,-0.04876563834324479,0.9762725518077612
1772796619872431900,2.592431884765625,0.20429624566435814,-0.06435483714118599,1.0165481558337808
1772796619882423800,2.602423828125,0.2804705538064241,-0.06500467935204506,1.0390032948784529
1772796619892415700,2.612415771484375,0.3022165216684341,-0.07396890705227852,0.9827927473567426
1772796619902408000,2.622407958984375,0.26419045013487336,-0.14893646975308655,0.97267058179304
1772796619912400000,2.63239990234375,0.2511556119948625,-0.2171450597129762,0.9683483346797526
1772796619922391800,2.642391845703125,0.2843237221032381,-0.2618121766962111,0.9666085783403366
1772796619932383700,2.6523837890625,0.3147685447275638,-0.2696862710721791,0.8722180108323693
1772796619942376000,2.6623759765625,0.35899990064203735,-0.2394067220121622,0.7993095726184547
1772796619952367900,2.672367919921875,0.3959720792084932,-0.21541370587572453,0.7564417601421475
1772796619962359800,2.68235986328125,0.41081133642196654,-0.23636107070595025,0.7571043157041072
1772796619972353000,2.69235302734375,0.38997196201086043,-0.24077055771127343,0.7481086699523031
1772796619982345000,2.702344970703125,0.3418739937961101,-0.21855814138129354,0.7164283141836524
1772796619992337000,2.7123369140625,0.3239157277792692,-0.2038639917269349,0.6663172525808215
1772796620002328800,2.722328857421875,0.31161797174215317,-0.1782781534411013,0.5972070376060903
1772796620012321000,2.732321044921875,0.29712241339981554,-0.1608015334613621,0.5380737710380926
1772796620022313000,2.74231298828125,0.2965747163891792,-0.16654358424469828,0.514775276504457
1772796620032305000,2.752304931640625,0.17857494443058966,-0.13816212389096616,0.5164860259450972
1772796620042296800,2.762296875,0.01653670878112316,-0.12956278398036955,0.5787177334524691
1772796620052288800,2.772288818359375,-0.12660042704343796,-0.14186214745268225,0.6013244463296606
1772796620062281000,2.782281005859375,-0.27581659052073954,-0.11551818427592515,0.5861830278318375
1772796620072273000,2.79227294921875,-0.36419863832890986,-0.149846716465801,0.5250447415843605
1772796620082265900,2.802265869140625,-0.42563656511008735,-0.1739765107244253,0.42650315534416583
1772796620092258000,2.812258056640625,-0.4881950203537941,-0.22614348194375633,0.3209254964547232
1772796620102250000,2.82225,-0.5404191285878419,-0.312305515614897,0.284166357850749
1772796620112242000,2.832241943359375,-0.5342255346447229,-0.35766689847260713,0.2722152050279081
1772796620122233900,2.84223388671875,-0.47992988083362575,-0.3891723360657692,0.283657586344704
1772796620132226000,2.85222607421875,-0.4575970529943704,-0.4349975370429456,0.3037215559365228
1772796620142218000,2.862218017578125,-0.4349544285535812,-0.4503548267811536,0.36052363961059597
1772796620152210000,2.8722099609375,-0.4312298550724983,-0.42441579114347694,0.42891544065028425
1772796620162201900,2.882201904296875,-0.40124329760968686,-0.41302433629631996,0.46743930563814934
1772796620172194000,2.892194091796875,-0.40426118412613865,-0.4413372614584863,0.591261171346344
1772796620182186000,2.90218603515625,-0.4199748860865831,-0.6090246089108288,0.9145265819907188
1772796620192179000,2.912178955078125,-0.275918297329545,-0.7903424223087727,1.1466588560204953
1772796620202171000,2.9221708984375,-0.12886661840975283,-0.7166117079265415,0.9808340875696391
1772796620212163000,2.9321630859375,-0.04339139795899391,-0.4090085247837007,0.5915196761520579
1772796620222154800,2.94215478515625,-0.06175590668916702,-0.2258691950470209,0.39091395556870845
1772796620232147000,2.95214697265625,-0.19860767863392828,-0.19182985506206748,0.46555312656536696
1772796620242139000,2.962138916015625,-0.38109599711596964,-0.14816680055484174,0.70050323449485
1772796620252131000,2.972131103515625,-0.4671534013688564,0.02370338554009795,0.7818472734250128
1772796620262122800,2.982122802734375,-0.5679466024607419,0.2178295348457992,0.7036912168812006
1772796620272115000,2.992114990234375,-0.6806698953211308,0.3879878024563193,0.5903771185208112
1772796620282107000,3.00210693359375,-0.8179659039020538,0.47816111759543417,0.47703781265392897
1772796620292099000,3.01209912109375,-0.9936457114130258,0.42155426423251624,0.46667566432189195
1772796620302091800,3.022091796875,-1.1400479865133761,0.3111605833634734,0.42148784793280064
1772796620312084000,3.032083984375,-1.2990145596325398,0.25213468616008755,0.33215215266160664
1772796620322076000,3.042075927734375,-1.3869891956835985,0.2867639548622072,0.22256014356426893
1772796620332067800,3.05206787109375,-1.3995242676079271,0.3639648295730352,0.12970556258508004
1772796620342059800,3.062059814453125,-1.2980933531343937,0.45865956765934823,0.03995590708497911
1772796620352052000,3.072052001953125,-1.1794044298678636,0.5415799890607595,-0.029508126296103
1772796620362044000,3.0820439453125,-1.0548258640408514,0.5908607373192906,-0.12700286123133264
1772796620372036000,3.0920361328125,-0.9188006060481071,0.5600498578615486,-0.2654487978992052
1772796620382027800,3.10202783203125,-0.7873375414043664,0.5335363833367824,-0.3597651493934914
1772796620392020000,3.11202001953125,-0.5689712693333625,0.5223083023577928,-0.4129045823741704
1772796620402012000,3.122011962890625,-0.34153847823143,0.49707916855514045,-0.4282203710582107
1772796620412004900,3.1320048828125,-0.08531272336542606,0.5019450210258365,-0.489318581023626
1772796620421996800,3.141996826171875,0.1513812325567007,0.5188292280703782,-0.561479598403722
1772796620431989000,3.151989013671875,0.34297874016761776,0.5454780194126069,-0.6028566243330017
1772796620441981000,3.16198095703125,0.472765980553627,0.5330240499004721,-0.5322246796837076
1772796620451972900,3.171972900390625,0.5489280137360095,0.5468567604199052,-0.4149306813742965
1772796620461964800,3.18196484375,0.6495832676619291,0.5843142382852733,-0.35992830406595017
1772796620471957000,3.19195703125,0.7330886493444442,0.6481270775042474,-0.3775593108898028
1772796620481949000,3.201948974609375,0.7863210578382015,0.7044717727996409,-0.4986395497396588
1772796620491940900,3.21194091796875,0.838445212829113,0.7169942775033414,-0.6397582584138959
1772796620501932800,3.221932861328125,0.7963280725896358,0.6763306970730424,-0.7183733838368207
1772796620511925000,3.231925048828125,0.7189268530011177,0.5833906936995685,-0.7103744209721684
1772796620521917000,3.2419169921875,0.5977952127575874,0.5147289531446994,-0.6627137481961399
1772796620531910000,3.251909912109375,0.4438736480683088,0.44904315966069697,-0.5817602064209059
1772796620541901800,3.26190185546875,0.2950286559909582,0.3992549002714455,-0.538116842994839
1772796620551894000,3.27189404296875,0.1610182449519634,0.35108635103851554,-0.47787053715102373
1772796620561886000,3.281885986328125,0.06827274123728275,0.34488749639838934,-0.3986411522872746
1772796620571878000,3.2918779296875,-0.00459317300915718,0.3247729291304946,-0.3924971331069246
1772796620581869800,3.301869873046875,-0.021135727009177208,0.3091894294209778,-0.3639058659274131
1772796620591862000,3.311862060546875,-0.062330491706728934,0.2819419415332377,-0.30767551772668955
1772796620601854000,3.32185400390625,-0.061732525813579554,0.2341680907063186,-0.21610448288517073
1772796620611846000,3.331845947265625,-0.01691197183430195,0.15945026498287915,-0.13996084387600422
1772796620621837800,3.341837890625,0.060248424735665315,0.11059314896389841,-0.07776371449166908
1772796620631830000,3.351830078125,0.10614683707952499,0.08438260290846228,-0.054307216384727505
1772796620641822700,3.36182275390625,0.17631226019561289,0.08747340853065252,-0.0056332931792363525
1772796620651815000,3.37181494140625,0.2337602405577898,0.04286576664969325,0.07304046709574759
1772796620661806800,3.381806884765625,0.2965449057728052,-0.0024104221425950527,0.10876045364402234
1772796620671799000,3.391799072265625,0.3612602467894554,-0.012992606433480977,0.13859474315457046
1772796620681790700,3.401790771484375,0.4189519727796316,-0.03485913193523884,0.17023082139007747
1772796620691783000,3.411782958984375,0.4213754005342722,-0.08544833244383335,0.1476304286558181
1772796620701774800,3.42177490234375,0.41272330752313136,-0.10806801440045237,0.2211409974813461
1772796620711767000,3.43176708984375,0.33543490065932274,-0.11113880014792084,0.30029947253335265
1772796620721758700,3.4417587890625,0.25955694511532784,-0.09287482918277383,0.37802433458566664
1772796620731751000,3.4517509765625,0.1390636027753353,-0.1092955103687942,0.41491252466309814
1772796620741742800,3.461742919921875,-0.00634556963443756,-0.09177388220354914,0.39627003924176096
1772796620751735800,3.47173583984375,-0.13452186769247054,-0.09151669257208704,0.39249081296399235
1772796620761727700,3.481727783203125,-0.2548743402570486,-0.09044950173199176,0.3663013096965849
1772796620771720000,3.491719970703125,-0.34451486369371415,-0.07972717831805348,0.395378679892607
1772796620781712000,3.5017119140625,-0.4260188424259424,-0.0738311060167849,0.37288708129506554
1772796620791704000,3.5117041015625,-0.42606969583034515,-0.061072746730595824,0.36039913644809274
1772796620801695700,3.52169580078125,-0.38232115499675273,-0.05645516993254423,0.3843070681169629
1772796620811688000,3.53168798828125,-0.30260289063751694,-0.05668079538196325,0.3801087031116709
1772796620821679900,3.541679931640625,-0.22337854727506637,-0.04362783706337213,0.3716182304030284
1772796620831672000,3.551672119140625,-0.12048457451164722,-0.03609218086153269,0.38021852016169577
1772796620841663700,3.561663818359375,-0.05615677150785923,-0.0579179359614849,0.4139740017039701
1772796620851656000,3.571656005859375,-0.03491816864609718,-0.04751724571734667,0.4848880877628922
1772796620861649000,3.58164892578125,-0.026831308302283287,-0.03475450251698494,0.5161961761530488
1772796620871640800,3.591640869140625,-0.03966799352169036,0.005575169783830642,0.5262332572491839
1772796620881632800,3.6016328125,-0.02601297765672207,0.04900719201415777,0.5203618079325184
1772796620891625000,3.611625,-0.0040390462577342984,0.10212795682698488,0.5003520892785862
1772796620901617000,3.621616943359375,-0.011450783818960189,0.13764292232245207,0.5004798073114827
1772796620911608800,3.63160888671875,-0.007563713252544403,0.13796177901327608,0.48737325564213096
1772796620921600800,3.641600830078125,0.02029343096613884,0.14795681106597183,0.4801293123958632
1772796620931593000,3.651593017578125,0.050994274178147316,0.16227262892723082,0.5126252223310992
1772796620941585000,3.6615849609375,0.06765080994665622,0.15515402909368275,0.4820792043546214
1772796620951576800,3.671576904296875,0.06251403158009051,0.18741466896831988,0.450761471353285
1772796620961568800,3.68156884765625,0.07092004087567329,0.2499362993329763,0.4005584206180647
1772796620971561500,3.6915615234375,0.11930325577259063,0.3345250923380256,0.3433211969297379
1772796620981553400,3.701553466796875,0.1784516103118658,0.3807990599960088,0.3506998724715784
1772796620991545300,3.71154541015625,0.15405308211445806,0.42421880726665256,0.4138736466020345
1772796621001537300,3.721537353515625,0.13952888219952583,0.43749972912222146,0.45514739481993016
1772796621011529500,3.731529541015625,0.1782598871320486,0.4633350121244788,0.49955662805195894
1772796621021521400,3.741521484375,0.20771920585036277,0.5266612368702888,0.5135627223769202
1772796621031513300,3.751513427734375,0.2204226200789213,0.5384256166830659,0.5147100657811388
1772796621041505300,3.76150537109375,0.21158874076008796,0.5356003301292658,0.5389774784121663
1772796621051497500,3.77149755859375,0.22536299909055232,0.525905450066924,0.5428350306231529
1772796621061489400,3.781489501953125,0.23769115026593207,0.5118935835883021,0.524346566719748
1772796621071481300,3.7914814453125,0.24528584317862986,0.49682314796745775,0.4883937577962875
1772796621081474300,3.801474365234375,0.24001053312420845,0.4679141566082835,0.45292233918160196
1772796621091466500,3.811466552734375,0.1867600044518709,0.46220279322415586,0.46051005436424164
1772796621101458400,3.82145849609375,0.11222937186360359,0.43527386976629495,0.48512646309603
1772796621111450400,3.831450439453125,0.06719020669758319,0.43212125095427034,0.5564840186061337
1772796621121442300,3.8414423828125,0.03174655287265778,0.5202595531344414,0.6526512769304216
1772796621131434500,3.8514345703125,-0.058790627142786975,0.5044008897453546,0.7520433059874921
1772796621141426400,3.861426513671875,-0.15052607703208923,0.5638815449789166,0.8199283630814402
1772796621151418400,3.87141845703125,-0.1339005209237337,0.5104851780951023,0.7685825720518827
1772796621161410300,3.881410400390625,-0.0847188491255045,0.5393275339588522,0.6796900174383074
1772796621171402500,3.891402587890625,-0.02818739908635616,0.5798462990909814,0.6566102436892688
1772796621181394400,3.90139453125,0.010964461606740951,0.5244201799452305,0.7125603867091238
1772796621191387400,3.911387451171875,0.035361236238479615,0.44424569625109434,0.7312239514511079
1772796621201379300,3.92137939453125,0.1308382107436657,0.41026597749888893,0.7680418893039226
1772796621211371500,3.93137158203125,0.2239607310771942,0.4406324741899967,0.8794553416747599
1772796621221363200,3.94136328125,0.29920097323954103,0.5831117306277156,0.9591350275892764
1772796621231355400,3.95135546875,0.348405441391468,0.7904203098505735,0.9611296354725957
1772796621241347300,3.961347412109375,0.33035189830660816,0.9358455566123127,1.0149233311109245
1772796621251339500,3.971339599609375,0.27709435537159444,1.0506462402686476,1.041238360454142
1772796621261331200,3.981331298828125,0.12251286546885967,1.1429399085626006,1.025472782175988
1772796621271323400,3.991323486328125,-0.005516133072972297,1.2903253494814038,0.9754626967296004
1772796621281315300,4.0013154296875,-0.09576806640624999,1.4462313659861683,0.9139945209406316
1772796621291307500,4.0113076171875,-0.14867022003233432,1.6225412880942225,0.7995895586036145
1772796621301299500,4.021299560546875,-0.21449849072694777,1.774249268387258,0.6859559459652751
1772796621311292400,4.03129248046875,-0.2751578343510628,1.9181302083164453,0.6228988204844296
1772796621321284400,4.041284423828125,-0.2839239091306925,1.9953069714993237,0.5889721105610951
1772796621331276500,4.051276611328125,-0.31430209625959393,2.031135532988608,0.6530043281517922
1772796621341268200,4.061268310546875,-0.38676001422703266,2.0582906664177774,0.7394017780140042
1772796621351260400,4.071260498046875,-0.3982090444803238,2.104396291771531,0.8293409921362995
1772796621361252400,4.08125244140625,-0.3848889596581459,2.1583853638514876,0.8793291580118239
1772796621371244500,4.09124462890625,-0.4581657927930355,2.2046318589806555,0.9030467182077467
1772796621381236200,4.101236328125,-0.46870296889841556,2.2130901829853653,0.8855025859497487
1772796621391228400,4.111228515625,-0.46539632856845853,2.1590958502084017,0.9042121087253093
1772796621401220400,4.121220458984375,-0.48290275916457176,2.113233093699813,0.8502968325339257
1772796621411213300,4.13121337890625,-0.47981297645568843,2.0702654741108417,0.7558622797537594
1772796621421205200,4.141205322265625,-0.5368377629697323,2.0209549152359365,0.6872574570178985
1772796621431197400,4.151197509765625,-0.6133119308412075,1.9781047845467923,0.5959979540772735
1772796621441189400,4.161189453125,-0.671247402459383,1.9701766218960284,0.5129607013631612
1772796621451181300,4.171181396484375,-0.6787362969100474,1.9609879377901553,0.4807611074933782
1772796621461173200,4.18117333984375,-0.6467191104024649,1.945178958761692,0.4356935564830899
1772796621471165400,4.19116552734375,-0.5991612404137849,1.9345871298596262,0.34149160688240077
1772796621481157400,4.201157470703125,-0.6143377667576074,1.8910216905079782,0.24011344550941138
1772796621491149300,4.2111494140625,-0.6272048471152782,1.7414485302865503,0.22717154634986073
1772796621501141200,4.221141357421875,-0.5918348430484532,1.5614584583610296,0.2798926077879965
1772796621511133400,4.231133544921875,-0.5399146861970424,1.3995606540955603,0.38776882594339546
1772796621521125400,4.24112548828125,-0.45019408326148985,1.3058198557332157,0.4900986254854127
1772796621531118300,4.251118408203125,-0.2775993822842836,1.2017575698427856,0.54896213520132
1772796621541110300,4.2611103515625,-0.11895897237956524,1.0987596983134746,0.5596091283567249
1772796621551102500,4.2711025390625,-0.001242109015583992,1.01601770221889,0.5940107257828116
1772796621561094400,4.281094482421875,0.03987257618308067,0.8647393455147743,0.6506175791457295
1772796621571086300,4.29108642578125,0.0064782561033964155,0.7319676824904978,0.7727365499261766
1772796621581078300,4.301078369140625,-0.07688800936937332,0.6671018270872533,0.9050034782987088
1772796621591070500,4.311070556640625,-0.18242168298661707,0.7015428797408938,1.0289558019861578
1772796621601062400,4.3210625,-0.2881353893458843,0.7785783347569406,1.1104122152496128
1772796621611054300,4.331054443359375,-0.42127252468168735,0.8182745314598083,1.1256676520485431
1772796621621046300,4.34104638671875,-0.5034978034257889,0.8356561666324734,1.139185670595616
1772796621631038500,4.35103857421875,-0.5601046567887068,0.950780821546167,1.1840407113663851
1772796621641031400,4.361031494140625,-0.6371855583816767,1.02100206650272,1.1915855737879872
1772796621651023400,4.3710234375,-0.6874988645583391,1.089894547073543,1.2589612200550735
1772796621661015300,4.381015380859375,-0.6875766059696674,1.1114046603530645,1.2869573343530296
1772796621671007500,4.391007568359375,-0.6661883655041456,1.129290299525112,1.2917070130981505
1772796621680999200,4.400999267578125,-0.6305716931998729,1.106829023000598,1.2935275065235792
1772796621690991400,4.410991455078125,-0.5298486347347497,1.0890671563386916,1.2412458228833974
1772796621700983300,4.4209833984375,-0.5107932211309671,1.0375127640597521,1.2065163817424327
1772796621710975500,4.4309755859375,-0.4845552025467157,0.9967512762129306,1.175742984750867
1772796621720967200,4.44096728515625,-0.45069443399906156,0.9616953065313398,1.144651461720839
1772796621730959400,4.45095947265625,-0.424070630967617,0.9453433066673577,1.1272723838314413
1772796621740951300,4.460951416015625,-0.40095395927429195,0.9266833221219479,1.1254201800934969
1772796621750944300,4.4709443359375,-0.353980026653409,0.9362536990217863,1.1101862244740128
1772796621760936400,4.4809365234375,-0.327108970862627,0.9162925687499344,1.1298473488859833
1772796621770928400,4.490928466796875,-0.28707857376933094,0.9160127288952469,1.1221525565996766
1772796621780920600,4.500920654296875,-0.21503917347490786,0.9061478990934788,1.0360573776196689
1772796621790912500,4.51091259765625,-0.17648294058740138,0.8653155379675328,0.9127522657945751
1772796621800904200,4.520904296875,-0.1526484760135412,0.8158462813995778,0.7247611121125519
1772796621810896400,4.530896484375,-0.16061083319485187,0.7561826708145439,0.5712587226834148
1772796621820888300,4.540888427734375,-0.19969547387063502,0.6642649962261319,0.5039081012597307
1772796621830880500,4.550880615234375,-0.2941898670792579,0.6248996389128267,0.4828977907285094
1772796621840872200,4.5608720703125,-0.4200725012421608,0.615717676808685,0.4756221006371081
1772796621850864400,4.570864501953125,-0.5071481426268816,0.6367006974741816,0.5087441065814345
1772796621860857600,4.580857666015625,-0.605440759074688,0.6489003999643027,0.5059404473375528
1772796621870849300,4.590849365234375,-0.6512357110440731,0.7028121690243482,0.3842869021117687
1772796621880841500,4.600841552734375,-0.6742436616659164,0.7475355462394654,0.298196253176406
1772796621890833400,4.61083349609375,-0.6776613611549138,0.7574988679796457,0.2337880053475499
1772796621900825600,4.62082568359375,-0.689597298142314,0.7292869189739227,0.17840221821218727
1772796621910817300,4.6308173828125,-0.677870035469532,0.7374085583701729,0.13958064891938118
1772796621920809500,4.6408095703125,-0.5966799449920654,0.7599931690134107,0.1087898624015972
1772796621930801400,4.650801513671875,-0.5054723183691502,0.7831669777214527,0.06430233976896851
1772796621940793300,4.66079345703125,-0.42723230986893174,0.807548408653587,0.08755082114841789
1772796621950785300,4.670785400390625,-0.29508184748291966,0.7890773708090185,0.14038348973486572
1772796621960777200,4.680777099609375,-0.18002280515134333,0.7943351452067494,0.16520528484564273
1772796621970770400,4.6907705078125,-0.04131868333816528,0.7580779830418527,0.14682926834076643
1772796621980763100,4.70076318359375,0.054368719047307966,0.7062444815605878,0.127100887378864
1772796621990755300,4.71075537109375,0.10238076254427432,0.6492050819993018,0.08178257647790015
1772796622000747300,4.720747314453125,0.13706746052205562,0.5530233202256262,0.14088581323381513
1772796622010739200,4.7307392578125,0.18136720549762247,0.4897426881872117,0.23572839882560073
1772796622020731100,4.740731201171875,0.27158991273641586,0.43837461226060986,0.3075091847164556
1772796622030723300,4.750723388671875,0.3397299675047397,0.4112890369363129,0.35901418489571657
1772796622040715300,4.76071533203125,0.3505646652519703,0.37501302394047376,0.42526524757966394
1772796622050707500,4.77070751953125,0.23763678973019123,0.31338512754514813,0.5156475658269599
1772796622060699100,4.78069921875,0.07415420049130916,0.24732670135647056,0.636563919351995
1772796622070691300,4.79069140625,-0.06913783363401889,0.21178835498541593,0.7324381495464592
1772796622080684300,4.800684326171875,-0.14246318208575248,0.19920140674337744,0.7359868550039828
1772796622090676200,4.81067626953125,-0.22099019083380697,0.21446195810884236,0.6805486070290208
1772796622100668200,4.820668212890625,-0.3173930480122566,0.22333938430845737,0.6164983057923614
1772796622110660400,4.830660400390625,-0.42526597823202605,0.23927111293375491,0.5647156211828812
1772796622120652300,4.84065234375,-0.5006698865234852,0.24121377143412828,0.5130717605222016
1772796622130644200,4.850644287109375,-0.5100304200649262,0.26959815439730883,0.48496707128323613
1772796622140636200,4.86063623046875,-0.5965262157350778,0.267950971712172,0.5163442428542301
1772796622150628400,4.87062841796875,-0.6432938121289015,0.31421500249803064,0.5222262500975281
1772796622160620300,4.880620361328125,-0.6564321106433868,0.36587548549994825,0.5586283736910671
1772796622170612200,4.8906123046875,-0.6811246533513069,0.37766923753768206,0.5662132027968764
1772796622180604200,4.900604248046875,-0.7259364395022392,0.41681686044707894,0.5584214894747361
1772796622190597400,4.910597412109375,-0.69335343580544,0.4571498937487602,0.5610021170850843
1772796622200589000,4.920589111328125,-0.6797709006547927,0.5068478445060551,0.5862754918882623
1772796622210581200,4.930581298828125,-0.6271294437915086,0.5353380259312689,0.5847253763694316
1772796622220573200,4.9405732421875,-0.529314966249466,0.5397172639288008,0.6043628641774877
1772796622230565400,4.9505654296875,-0.38295243863761425,0.55461541172266,0.6104647977817803
1772796622240557300,4.960557373046875,-0.2897264579296112,0.5609025291681289,0.5206250254459679
1772796622250549200,4.97054931640625,-0.168617029517889,0.614096066956222,0.42925161380209026
1772796622260541200,4.980541259765625,-0.025952771902084348,0.6244615397565066,0.3381803269099444
1772796622270533400,4.990533447265625,0.09029811056256294,0.6049094286769628,0.27573154258579013
1772796622280525300,5.000525390625,0.1645353131622076,0.6883782777413725,0.2679510082447901
1772796622290517200,5.010517333984375,0.1824509090811014,0.7407517313182354,0.28469156903494147
1772796622300510200,5.02051025390625,0.1546837812334299,0.7788207652106881,0.2832156695297919
1772796622310502400,5.03050244140625,0.09649287354946136,0.8362576396569609,0.27893923431960865
1772796622320494000,5.040494140625,0.0762485424220562,0.899043912307173,0.2324729772262275
1772796622330486300,5.050486328125,0.05615969411730766,0.8761743472427129,0.14798798252237028
1772796622340478200,5.060478271484375,0.057089083921909325,0.7985634304262698,0.03604736447227187
1772796622350470400,5.070470458984375,0.043726329001784324,0.7159709258049726,-0.1278712141642347
1772796622360462000,5.080462158203125,0.08061316737234592,0.5739015653423964,-0.22552834572009742
1772796622370454300,5.090454345703125,0.060440147915482516,0.44850700695738194,-0.268726595727168
1772796622380446200,5.1004462890625,0.10307809715867042,0.41950960666239256,-0.3371443349257111
1772796622390438400,5.1104384765625,0.10069500141441821,0.3967557769320905,-0.3640503158994019
1772796622400430000,5.12043017578125,0.06275134746730328,0.42685967716425655,-0.42155214534066615
1772796622410423300,5.13042333984375,0.047694648110866544,0.43153102997615933,-0.4667490218190476
1772796622420415200,5.140415283203125,0.010611410385370255,0.43300577870383855,-0.5246006145460531
1772796622430407200,5.1504072265625,-0.07022036817371845,0.4160470451183617,-0.625720380711183
1772796622440399000,5.160399169921875,-0.1692664333373308,0.42932431371212004,-0.6937316214680671
1772796622450391300,5.170391357421875,-0.21236030965447425,0.4150052809804678,-0.7338370565589517
1772796622460383200,5.18038330078125,-0.2625339150995016,0.38681276732757686,-0.7263210549056529
1772796622470375400,5.19037548828125,-0.3284042713701725,0.36683307848572727,-0.6878742006767541
1772796622480367000,5.2003671875,-0.35133389605879783,0.3884802621483803,-0.6415952645827084
1772796622490359300,5.210359375,-0.3314262495398521,0.4589915760926902,-0.5761934756718575
1772796622500351200,5.220351318359375,-0.27565993865430355,0.4745953879378736,-0.5011128810506313
1772796622510343400,5.230343505859375,-0.2343389172285795,0.4900146369963884,-0.5070060307424515
1772796622520336100,5.240336181640625,-0.1939665748298168,0.5031482593357562,-0.5085638546437025
1772796622530328300,5.250328369140625,-0.07905717010200024,0.5139375105060636,-0.5032213245719671
1772796622540320300,5.2603203125,0.07563128730654715,0.49375616161227226,-0.5091472805548459
1772796622550312200,5.270312255859375,0.1996440359443426,0.4536185047522187,-0.4982420383220538
1772796622560304000,5.28030419921875,0.31155192076861854,0.4053255984872579,-0.4837164867002517
1772796622570296300,5.29029638671875,0.41370004360079765,0.35241701512038703,-0.4710109901124611
1772796622580288300,5.300288330078125,0.49843409029543395,0.29382877868190405,-0.43238596630506215
1772796622590280200,5.3102802734375,0.5472744013100862,0.18111644560694692,-0.4137482301240787
1772796622600272100,5.320272216796875,0.5362964956998825,0.16543270039334892,-0.36689101921804246
1772796622610264300,5.330264404296875,0.49267479611635207,0.14587532861679792,-0.34575770336166023
1772796622620256300,5.34025634765625,0.40503275302052494,0.13340952253639698,-0.32829730386435985
1772796622630249200,5.350249267578125,0.25059271741509437,0.15841595349907875,-0.3547799448594451
1772796622640241200,5.3602412109375,0.0687806907594204,0.2141192821510136,-0.42715873317606745
1772796622650233300,5.3702333984375,-0.05629238058626652,0.27571824471279976,-0.499705315807648
1772796622660225300,5.380225341796875,-0.2237292604088783,0.3244707313135266,-0.5850138744546101
1772796622670217200,5.39021728515625,-0.3234679840117693,0.4113850446566939,-0.7096497599594295
1772796622680209200,5.400209228515625,-0.37615503358244895,0.4515069194257259,-0.7746615266393869
1772796622690201300,5.410201416015625,-0.37884734140634535,0.45553559041991826,-0.8225397876888513
1772796622700193300,5.420193359375,-0.4043587992817163,0.4628282316461205,-0.8724040349237621
1772796622710185200,5.430185302734375,-0.4055588227212429,0.43824645583629607,-0.8680108414661138
1772796622720177200,5.44017724609375,-0.38806583612859247,0.4319600690431893,-0.9202882142573594
1772796622730169300,5.45016943359375,-0.4250876990556717,0.43831440650597214,-0.9839971547104418
1772796622740162300,5.460162353515625,-0.43136721771657466,0.4319572925642132,-1.0369615599177777
1772796622750154200,5.470154296875,-0.43443537311553954,0.4554486427888274,-1.097406822399795
1772796622760146400,5.480146484375,-0.4350976364165544,0.41153570517376065,-1.216630875456333
1772796622770138400,5.490138427734375,-0.44599078635275363,0.353032516670227,-1.3118775483369827
1772796622780130000,5.500130126953125,-0.3918815950244665,0.27829671689867974,-1.465295109026879
1772796622790122200,5.510122314453125,-0.2992325374215841,0.2256599362105131,-1.5540800385475158
1772796622800114200,5.5201142578125,-0.15773264741003512,0.15037570877596734,-1.5767141874209045
1772796622810106400,5.5301064453125,0.035324411359429354,0.052381198491901156,-1.5697117613129317
1772796622820098000,5.54009814453125,0.2227718135535717,-0.015412527056783436,-1.5320783423587678
1772796622830090200,5.55009033203125,0.3877338276952505,-0.10463584799468517,-1.4509791450351477
1772796622840082200,5.560082275390625,0.4581476726144552,-0.22014263409376142,-1.3100797051347792
1772796622850075100,5.5700751953125,0.4583686218887567,-0.2979628097467124,-1.1887798687174915
1772796622860067300,5.5800673828125,0.4303104021400213,-0.3639715515747666,-1.0817768532000482
1772796622870059300,5.590059326171875,0.40422085211575026,-0.43441652228459715,-1.0542010101407766
1772796622880051500,5.600051513671875,0.3580611584872007,-0.5176416257210076,-1.050532331565395
1772796622890043100,5.610043212890625,0.27997955541908737,-0.5826663249477744,-1.0614349069170652
1772796622900035300,5.620035400390625,0.24104513686895368,-0.6387810108795762,-1.0535990256596357
1772796622910027300,5.63002734375,0.20195406645238398,-0.6831377467393874,-0.99164679268077
1772796622920019200,5.640019287109375,0.16672084050774574,-0.7218292964443564,-0.9467384142875671
1772796622930011400,5.650011474609375,0.1449672738611698,-0.7061154483534395,-0.8356735561586915
1772796622940003000,5.660003173828125,0.15646306586563585,-0.660891866531223,-0.7205781273394822
1772796622949995300,5.669995361328125,0.1466588802099228,-0.61831938373968,-0.6298476167090237
1772796622959988500,5.679988525390625,0.1342272686600685,-0.5728105552352964,-0.5214375108726322
1772796622969980200,5.689980224609375,0.1231651918977499,-0.5177237510465085,-0.45937312275618314
1772796622979971600,5.6999716796875,0.08400690146386623,-0.502696570045501,-0.3621068536814302
1772796622989963500,5.709963623046875,0.030462942802906033,-0.46395782019793985,-0.30317751218769695
1772796622999955700,5.719955810546875,-0.024037878191471098,-0.41016807008236644,-0.21085027041770515
1772796623009947600,5.72994775390625,-0.06501286265850066,-0.3658165949195623,-0.13028386479653417
1772796623019939600,5.739939697265625,-0.11111176601052283,-0.33374650918096305,-0.09098110612435266
1772796623029931500,5.749931640625,-0.15832769069373606,-0.30719679429903624,-0.06218255286971107
1772796623039923700,5.759923828125,-0.18968670555353165,-0.2642547475427389,-0.05820672630760818
1772796623049915600,5.76991552734375,-0.20619009658694265,-0.24044673258438706,-0.09532331831343471
1772796623059907600,5.779907470703125,-0.2518330728650093,-0.2020741857007146,-0.0943247357301414
1772796623069900500,5.789900634765625,-0.3119996645361185,-0.17139920758232474,-0.045079679839499294
1772796623079892700,5.799892822265625,-0.31836276982724665,-0.11530424926429986,-0.005375372895412147
1772796623089884400,5.809884521484375,-0.2901934909194708,-0.05823883847892284,0.022117175794579086
1772796623099876600,5.819876708984375,-0.30929683531820773,-0.059604866135120387,0.03009999124202877
1772796623109868500,5.82986865234375,-0.33075288032293315,-0.1523008316196501,0.17688845264837144
1772796623119860700,5.83986083984375,-0.2533493226468563,-0.4235366702213883,0.6300632322210818
1772796623129852400,5.849852294921875,-0.1102723925769329,-0.6645049424618482,0.9927068231277167
1772796623139844600,5.8598447265625,0.05396247633397579,-0.6369041110917926,0.6974998148951679
1772796623149836500,5.86983642578125,0.2753127326518297,-0.3429389926791191,0.033134134773537514
1772796623159828700,5.879828857421875,0.1546662455767393,-0.31581630021482704,-0.40835309308227147
1772796623169820700,5.889820556640625,-0.26094226199388504,-0.6010846096917987,-0.5495164446158334
1772796623179813600,5.899813720703125,-0.6889139920532703,-0.7394798116862773,-0.50828642594181
1772796623189805600,5.9098056640625,-1.0712456684440375,-0.6065525197088718,-0.42646147162690756
1772796623199797500,5.919797607421875,-1.2645581632792948,-0.1852355713635683,-0.3818206581287086
1772796623209789400,5.92978955078125,-1.2906202407747507,0.22694325401932,-0.26349117929171767
1772796623219781600,5.93978173828125,-1.2392577178061008,0.5027469850584865,-0.08914020923171193
1772796623229773600,5.949773681640625,-1.1906903785139322,0.8345479131296276,0.021184872513683513
1772796623239765800,5.959765869140625,-1.136469543504715,0.951373088350892,-0.013261249040719122
1772796623249757400,5.96975732421875,-1.2617033583700656,0.9774342890635133,0.11915613891948014
1772796623259749600,5.97974951171875,-1.23536129488945,1.0142597526356578,0.22382159660113973
1772796623269741600,5.989741455078125,-1.102266829651594,1.0394675513893366,0.19740254062786697
1772796623279733800,5.999733642578125,-0.8889560874044895,1.0045517208307981,0.1937263911320828
1772796623289726500,6.0097265625,-0.6006336510539054,0.9085703039348125,0.19117294378960503
1772796623299718700,6.01971875,-0.23188684790134428,0.7754235239878297,0.14216276523391716
1772796623309710600,6.029710693359375,0.15785247439742087,0.6486077006280422,0.11965850808420218
1772796623319702500,6.03970263671875,0.5438526101678609,0.5536792999163269,0.12510349388341419
1772796623329694500,6.049694580078125,0.8789297834306955,0.49200084237754343,0.19644134917920456
1772796623339686700,6.059686767578125,1.1518851393014191,0.4280725600853562,0.32112576826717704
1772796623349678600,6.0696787109375,1.31783207282722,0.3633510815888643,0.45685255477000025
1772796623359670500,6.07967041015625,1.3865239162594079,0.32738077354133127,0.5970397182151674
1772796623369662500,6.089662353515625,1.4422890581011771,0.360705243255198,0.6470546259671449
1772796623379654700,6.099654541015625,1.4682564430505036,0.408702965965867,0.6938328898854553
1772796623389646600,6.109646484375,1.3709089984983205,0.45044805802255866,0.7863854283113032
1772796623399639600,6.1196396484375,1.2029945642918347,0.48702042361646886,0.8821117014024407
1772796623409631500,6.129631591796875,1.0168716886997222,0.5204372477889061,0.94896646560058
1772796623419623700,6.139623779296875,0.8406137890398502,0.5870663134723901,0.9850783740758895
1772796623429615600,6.14961572265625,0.6946265244811773,0.6726575615182518,0.9977566538631916
1772796623439607600,6.159607666015625,0.5394207652002573,0.7335045366689562,1.0053067039165646
1772796623449599500,6.169599609375,0.4182850333034992,0.7561018606632948,0.9631712973680346
1772796623459591700,6.179591796875,0.2996235825657844,0.7262932901158928,0.9245998669113963
1772796623469583600,6.18958349609375,0.1678992366373539,0.6628665276050567,0.9251107390429824
1772796623479575600,6.199575439453125,0.05724398222267627,0.6163628428444266,0.8864756687656045
1772796623489567500,6.2095673828125,0.03649696227014065,0.5695063991233706,0.8526906688679009
1772796623499559700,6.2195595703125,0.019999416455626487,0.5115171514913439,0.8431075786169618
1772796623509552400,6.229552490234375,0.01765080750286579,0.48375557660162444,0.8461956808254122
1772796623519544600,6.239544677734375,0.05476677845418453,0.4664031675234437,0.8297914393175393
1772796623529536500,6.24953662109375,0.11379004530906676,0.46811435535550117,0.8050255391124636
1772796623539528700,6.25952880859375,0.12269114464521408,0.45790363472551104,0.802009479226917
1772796623549520400,6.269520263671875,0.10897066232860088,0.39657238318920135,0.7880882136411964
1772796623559512600,6.2795126953125,0.01924012252092361,0.3686126553788781,0.7531053822610527
1772796623569504500,6.28950439453125,-0.016455460238456725,0.35775516127794976,0.7705320986844599
1772796623579496700,6.29949658203125,-0.036945290559530254,0.35223113715946675,0.7895929191157222
1772796623589488400,6.30948828125,-0.03412263435423374,0.356033452051878,0.8401194296516478
1772796623599480600,6.31948046875,-0.004385667738318443,0.35058629256188867,0.8397505963392555
1772796623609472500,6.329472412109375,0.026952304333448408,0.3141904525786638,0.8117115196824073
1772796623619465500,6.339465576171875,0.038543957927823065,0.24788462750017642,0.8196103831734508
1772796623629457400,6.34945751953125,0.03546060495972633,0.15998071859776972,0.8187808735467493
1772796623639449600,6.35944970703125,0.002856558474898338,0.1305924192890525,0.7630830978527665
1772796623649441500,6.369441650390625,-0.0230313314974308,0.13228168755024672,0.6912317674763501
1772796623659433700,6.379433837890625,0.01704991900026798,0.11061550692617893,0.7369535080790519
1772796623669425400,6.38942529296875,0.021027005937695502,0.09037176032066345,0.742196450233832
1772796623679417600,6.39941748046875,0.01916881085038185,0.07913695733994246,0.7264793872725218
1772796623689409500,6.409409423828125,0.036704467540979384,0.05814122332334518,0.6704282680962235
1772796623699401700,6.419401611328125,0.06685118400156498,0.004457563930749893,0.6434815167207271
1772796623709393400,6.429393310546875,0.11298457414507865,-0.05936784250885248,0.6219218652110546
1772796623719385600,6.439385498046875,0.18065408879220485,-0.12290449513494968,0.5581680261703208
1772796623729378600,6.449378662109375,0.21653730307817456,-0.16792174073010682,0.5007357548339292
1772796623739370500,6.45937060546875,0.23609540550708769,-0.24620968002527951,0.45232466554939743
1772796623749362400,6.469362548828125,0.2308756250321865,-0.3504112282559275,0.4161214985940605
1772796623759354600,6.479354736328125,0.23843641567528245,-0.4289738928392529,0.35746037958245724
1772796623769346600,6.4893466796875,0.21960604299902914,-0.4285200115919113,0.31478071008939296
1772796623779338500,6.49933837890625,0.12056173140108585,-0.46295112737342714,0.34111659955754875
1772796623789330400,6.509330322265625,0.039274610289931296,-0.4681964806810021,0.3737116590183228
1772796623799322600,6.519322509765625,0.012315291693806648,-0.43972763430476186,0.394542411731556
1772796623809314600,6.529314453125,0.004431260445713996,-0.44599034796133635,0.3968632193619385
1772796623819306500,6.539306396484375,-0.004356441643834114,-0.44661929351463914,0.3839582546792924
1772796623829298400,6.54929833984375,-0.022421090644598005,-0.48644057790189976,0.3291812105594203
1772796623839291600,6.559291748046875,-0.01768470977246761,-0.5404477701604365,0.3001464739287272
1772796623849283600,6.56928369140625,0.044292730712890624,-0.5761128116510809,0.27819612433472646
1772796623859275500,6.579275634765625,0.12887597075998783,-0.5994817045398056,0.31056137536130846
1772796623869267500,6.589267333984375,0.18521043692231176,-0.602693506193161,0.3433164476893842
1772796623879259600,6.599259765625,0.23126608565449713,-0.607378449138999,0.3233431520557031
1772796623889251600,6.60925146484375,0.21439970652759074,-0.5760511445917189,0.31562618447020646
1772796623899243500,6.619243408203125,0.2117828020274639,-0.596048369090259,0.31292781223170457
1772796623909235500,6.6292353515625,0.21072949358224868,-0.6273048003584146,0.33981914362553506
1772796623919227600,6.6392275390625,0.23538754949867724,-0.6404191334754228,0.36616979227140545
1772796623929219600,6.649219482421875,0.24301906729042527,-0.6273927709028124,0.39074031603485343
1772796623939212500,6.659212646484375,0.2626724467873573,-0.6246051860108971,0.3714551122631877
1772796623949204500,6.66920458984375,0.2645224585682154,-0.5923042141258716,0.38673648722097276
1772796623959196700,6.67919677734375,0.19825228932499883,-0.5726505423679947,0.42911987718120215
1772796623969188400,6.689188232421875,0.1351601655960083,-0.5658078368663787,0.4938794226657599
1772796623979181300,6.699181396484375,0.039950317594408986,-0.5459741323664784,0.5302329213446005
1772796623989173200,6.70917333984375,-0.05462707772254943,-0.4843582186698913,0.5435214054521172
1772796623999165200,6.719165283203125,-0.051043958538770674,-0.4514019977465272,0.5271935171160846
1772796624009157000,6.7291572265625,-0.018587796092033385,-0.38718671520650383,0.5229939100017771
1772796624019149000,6.739149169921875,-0.13191548458635807,-0.3206546801567077,0.5705692425819113
1772796624029141200,6.749141357421875,-0.370022814437747,-0.34478491280674933,0.741711589326337
1772796624039133200,6.75913330078125,-0.4744207620233297,-0.4956833302825689,0.9830486218139529
1772796624049125000,6.769125,-0.4374246180593967,-0.6560948415130377,0.991049630505219
1772796624059118300,6.779118408203125,-0.19543021764159202,-0.7593211149707436,0.8798355731640011
1772796624069110300,6.7891103515625,0.03399170145094395,-0.6339294791951775,0.652452466422692
1772796624079102200,6.799102294921875,0.16821780106723308,-0.49919279970824715,0.4642395962813869
1772796624089094100,6.80909423828125,0.18438801462352275,-0.3695543201431632,0.5551606975805013
1772796624099086300,6.81908642578125,0.05019289466738701,-0.2180745956480503,0.7819250879015773
1772796624109078300,6.829078369140625,-0.11490706664025784,-0.07125614096224307,0.8059353474337607
1772796624119070200,6.8390703125,-0.31037644724845886,0.07519523397684097,0.6576686667010188
