time,seconds_elapsed,z,y,x
1772796617344433400,0.064433349609375,-1.0310460329055786,-0.027503754943609238,-0.19969159364700317
1772796617354425000,0.074425048828125,-0.9993609189987183,0.017829841002821922,-0.19912618398666382
1772796617364417300,0.084417236328125,-0.9403012990951538,0.04566573351621628,-0.21014687418937683
1772796617374409200,0.0944091796875,-0.8579858541488647,0.07710206508636475,-0.22010080516338348
1772796617384401400,0.1044013671875,-0.7597833871841431,0.10547618567943573,-0.2282133251428604
1772796617394393000,0.11439306640625,-0.662572979927063,0.12728330492973328,-0.23440983891487122
1772796617404385300,0.12438525390625,-0.5730233788490295,0.13115154206752777,-0.23019352555274963
1772796617414378200,0.134378173828125,-0.49702563881874084,0.09910266846418381,-0.22503282129764557
1772796617424370200,0.1443701171875,-0.43087032437324524,0.05381214991211891,-0.20451343059539795
1772796617434362000,0.154362060546875,-0.3775108754634857,0.013995805755257607,-0.174336239695549
1772796617444354300,0.164354248046875,-0.3270042836666107,-0.01673734001815319,-0.13975057005882263
1772796617454346200,0.17434619140625,-0.2867039442062378,-0.03128688782453537,-0.09527107328176498
1772796617464338200,0.184338134765625,-0.24837704002857208,-0.04909837990999222,-0.05048176273703575
1772796617474330000,0.194330078125,-0.20766107738018036,-0.06942503899335861,-0.01131956186145544
1772796617484322300,0.204322265625,-0.16436712443828583,-0.06506890803575516,0.013848908245563507
1772796617494314200,0.214314208984375,-0.11104175448417664,-0.01590656116604805,0.029389750212430954
1772796617504306400,0.224306396484375,-0.044225964695215225,0.08408714830875397,0.03807778283953667
1772796617514298000,0.234298095703125,0.027460606768727303,0.21185918152332306,0.048259928822517395
1772796617524291300,0.244291259765625,0.09442631900310516,0.25075677037239075,0.06284207105636597
1772796617534283300,0.254283203125,0.13453754782676697,0.10542799532413483,0.059630244970321655
1772796617544275200,0.264275146484375,0.12255065888166428,-0.1497686207294464,0.0313088595867157
1772796617554267100,0.27426708984375,0.07007072120904922,-0.39416199922561646,-0.00211071758531034
1772796617564259300,0.28425927734375,0.05044988542795181,-0.555590033531189,-0.012028595432639122
1772796617574251300,0.294251220703125,0.07879744470119476,-0.5758742094039917,0.02912963181734085
1772796617584243200,0.3042431640625,0.13223962485790253,-0.44764217734336853,0.0994032621383667
1772796617594235100,0.314235107421875,0.182586669921875,-0.21088974177837372,0.18388095498085022
1772796617604227300,0.324227294921875,0.21763227880001068,0.044511668384075165,0.2583346962928772
1772796617614219300,0.33421923828125,0.23406606912612915,0.21403440833091736,0.32411128282546997
1772796617624211200,0.344211181640625,0.2343776673078537,0.23246881365776062,0.386272132396698
1772796617634204200,0.3542041015625,0.2357071489095688,0.12084382772445679,0.43804702162742615
1772796617644196400,0.3641962890625,0.2195654660463333,-0.06754764914512634,0.4710797965526581
1772796617654188000,0.37418798828125,0.20051267743110657,-0.2607930302619934,0.4894993007183075
1772796617664180200,0.38418017578125,0.18888184428215027,-0.3850518465042114,0.4846435487270355
1772796617674172200,0.394172119140625,0.19106188416481018,-0.38098806142807007,0.469609797000885
1772796617684164400,0.404164306640625,0.20922917127609253,-0.25702962279319763,0.43541190028190613
1772796617694156300,0.41415625,0.23604708909988403,-0.06081286072731018,0.38822758197784424
1772796617704148200,0.424148193359375,0.26529526710510254,0.12782682478427887,0.3380996882915497
1772796617714140200,0.43414013671875,0.2815295457839966,0.24964188039302826,0.28396308422088623
1772796617724132400,0.44413232421875,0.2865818440914154,0.2826962172985077,0.22703056037425995
1772796617734124300,0.454124267578125,0.28398728370666504,0.27448126673698425,0.18453261256217957
1772796617744117200,0.4641171875,0.28221043944358826,0.26264455914497375,0.15179836750030518
1772796617754109400,0.474109375,0.2830122709274292,0.26160097122192383,0.1324572116136551
1772796617764101400,0.484101318359375,0.26827272772789,0.26311686635017395,0.12477586418390274
1772796617774093000,0.494093017578125,0.23932388424873352,0.25401178002357483,0.1331363171339035
1772796617784085200,0.504085205078125,0.19741718471050262,0.2217361330986023,0.1477014124393463
1772796617794077200,0.5140771484375,0.14587119221687317,0.16039572656154633,0.16709770262241364
1772796617804069400,0.5240693359375,0.09054535627365112,0.07221260666847229,0.18406549096107483
1772796617814061000,0.53406103515625,0.026784511283040047,-0.04700307920575142,0.20428363978862762
1772796617824053200,0.54405322265625,-0.03186282142996788,-0.1530805230140686,0.21624815464019775
1772796617834045200,0.554045166015625,-0.07472582161426544,-0.2119666188955307,0.2141990214586258
1772796617844037400,0.564037353515625,-0.09188003838062286,-0.19201287627220154,0.1963111013174057
1772796617854030300,0.5740302734375,-0.08985064178705215,-0.11310707032680511,0.17366211116313934
1772796617864022300,0.584022216796875,-0.08493897318840027,-0.008090373128652573,0.1403651386499405
1772796617874014500,0.594014404296875,-0.09136641025543213,0.08455696702003479,0.10617660731077194
1772796617884006100,0.604006103515625,-0.09859423339366913,0.1471894532442093,0.07127029448747635
1772796617893998000,0.613998046875,-0.11181868612766266,0.1852531135082245,0.04456481710076332
1772796617903990300,0.623990234375,-0.12783759832382202,0.2039002925157547,0.02620178833603859
1772796617913982200,0.633982177734375,-0.1424151510000229,0.19590935111045837,0.017495857551693916
1772796617923974400,0.643974365234375,-0.15492108464241028,0.16522973775863647,0.01769080013036728
1772796617933966000,0.653966064453125,-0.17045165598392487,0.1275579035282135,0.02620847150683403
1772796617943958300,0.663958251953125,-0.18573740124702454,0.09843064844608307,0.03801453113555908
1772796617953950200,0.6739501953125,-0.19899803400039673,0.07356099039316177,0.04629543051123619
1772796617963943200,0.683943115234375,-0.20986053347587585,0.07247734814882278,0.04676548019051552
1772796617973934300,0.693934326171875,-0.22187376022338867,0.0806722491979599,0.04142329469323158
1772796617983926500,0.703926513671875,-0.22728636860847473,0.0893019586801529,0.017542995512485504
1772796617993918500,0.71391845703125,-0.23849451541900635,0.09007169306278229,-0.008649342693388462
1772796618003910700,0.72391064453125,-0.24252626299858093,0.07441683113574982,-0.04793229699134827
1772796618013902300,0.73390234375,-0.24424219131469727,0.05901550129055977,-0.0934644341468811
1772796618023894500,0.74389453125,-0.24078300595283508,0.052979711443185806,-0.13871818780899048
1772796618033886500,0.753886474609375,-0.23800455033779144,0.050434235483407974,-0.1803050935268402
1772796618043878700,0.763878662109375,-0.2345736026763916,0.0477023646235466,-0.21108777821063995
1772796618053870300,0.773870361328125,-0.2289569079875946,0.047453854233026505,-0.22451430559158325
1772796618063863600,0.783863525390625,-0.21583816409111023,0.05248536542057991,-0.22039386630058289
1772796618073855500,0.79385546875,-0.19897061586380005,0.06264770030975342,-0.19751770794391632
1772796618083847400,0.803847412109375,-0.18395677208900452,0.07825782150030136,-0.16888020932674408
1772796618093839400,0.81383935546875,-0.17154456675052643,0.09221456944942474,-0.13097602128982544
1772796618103831600,0.82383154296875,-0.15940268337726593,0.11344635486602783,-0.08834120631217957
1772796618113823500,0.833823486328125,-0.15063883364200592,0.13201716542243958,-0.052819184958934784
1772796618123815400,0.8438154296875,-0.1440190076828003,0.12334699183702469,-0.0237348023802042
1772796618133807400,0.853807373046875,-0.13771672546863556,0.07474875450134277,-0.011114245280623436
1772796618143799600,0.863799560546875,-0.13282211124897003,0.009521551430225372,-0.006902455352246761
1772796618153791500,0.87379150390625,-0.12181685864925385,-0.05145418271422386,-0.005176460836082697
1772796618163783400,0.883783447265625,-0.11137096583843231,-0.09499483555555344,-0.009352483786642551
1772796618173775400,0.893775390625,-0.09817667305469513,-0.10487430542707443,-0.0102244196459651
1772796618183768600,0.9037685546875,-0.09313078224658966,-0.07844189554452896,-0.002364366315305233
1772796618193760500,0.913760498046875,-0.08873092383146286,-0.012904686853289604,0.006934926845133305
1772796618203752400,0.92375244140625,-0.08914903551340103,0.05073580890893936,0.011287863366305828
1772796618213744400,0.933744384765625,-0.09023614227771759,0.0981680378317833,0.006941584870219231
1772796618223736600,0.943736572265625,-0.09032775461673737,0.10871681571006775,-0.006445593200623989
1772796618233728500,0.953728515625,-0.07873395085334778,0.07510026544332504,-0.02247622422873974
1772796618243720400,0.963720458984375,-0.06628207117319107,-0.011184018105268478,-0.035034626722335815
1772796618253712400,0.97371240234375,-0.04795100912451744,-0.12186781316995621,-0.05110883712768555
1772796618263704600,0.98370458984375,-0.03902808949351311,-0.22971811890602112,-0.08120308816432953
1772796618273696500,0.993696533203125,-0.02676561288535595,-0.32395657896995544,-0.10899893194437027
1772796618283689500,1.003689453125,-0.014806687831878662,-0.3909348249435425,-0.13120223581790924
1772796618293681700,1.013681640625,0.005968631245195866,-0.42912134528160095,-0.14724138379096985
1772796618303673600,1.023673583984375,0.029030807316303253,-0.43929994106292725,-0.15446308255195618
1772796618313665500,1.03366552734375,0.04988378658890724,-0.4253629446029663,-0.15373627841472626
1772796618323657500,1.043657470703125,0.058266881853342056,-0.3922675848007202,-0.14502693712711334
1772796618333649400,1.0536494140625,0.05859855189919472,-0.3418721854686737,-0.12921205163002014
1772796618343641600,1.0636416015625,0.0524919256567955,-0.28998875617980957,-0.10134261101484299
1772796618353633300,1.07363330078125,0.03992399200797081,-0.24146248400211334,-0.07233592867851257
1772796618363625500,1.08362548828125,0.028109142556786537,-0.2017957717180252,-0.04114551842212677
1772796618373617400,1.093617431640625,0.009639395400881767,-0.16890090703964233,-0.004801774863153696
1772796618383609600,1.103609619140625,-0.01441294327378273,-0.13568435609340668,0.02857242524623871
1772796618393601500,1.1136015625,-0.029682492837309837,-0.10410843789577484,0.05097024515271187
1772796618403594500,1.123594482421875,-0.0497126579284668,-0.07577107101678848,0.06546289473772049
1772796618413586700,1.133586669921875,-0.06960435211658478,-0.05583241581916809,0.06463955342769623
1772796618423578600,1.14357861328125,-0.08699772506952286,-0.0402475968003273,0.042776595801115036
1772796618433570600,1.153570556640625,-0.10543447732925415,-0.02626149356365204,0.016587356105446815
1772796618443562500,1.1635625,-0.11403835564851761,0.000046277884393930435,-0.018921369686722755
1772796618453554700,1.1735546875,-0.12316849082708359,0.0759589672088623,-0.062304213643074036
1772796618463546600,1.183546630859375,-0.1125965416431427,0.17299124598503113,-0.10851005464792252
1772796618473538300,1.193538330078125,-0.09804359078407288,0.20764866471290588,-0.17586329579353333
1772796618483530500,1.203530517578125,-0.11183743923902512,0.11325080692768097,-0.2855154871940613
1772796618493522400,1.2135224609375,-0.15547701716423035,-0.10606136173009872,-0.4453594982624054
1772796618503515400,1.223515380859375,-0.19448620080947876,-0.36494484543800354,-0.6257591247558594
1772796618513507600,1.233507568359375,-0.20848669111728668,-0.5839254856109619,-0.7922781705856323
1772796618523499500,1.24349951171875,-0.2037324160337448,-0.720573902130127,-0.9166994094848633
1772796618533491700,1.25349169921875,-0.19656188786029816,-0.7729738354682922,-0.9910973310470581
1772796618543483400,1.2634833984375,-0.19420446455478668,-0.73594069480896,-1.0233635902404785
1772796618553475600,1.2734755859375,-0.18735702335834503,-0.5829105973243713,-1.0079210996627808
1772796618563467500,1.283467529296875,-0.16623683273792267,-0.3241192698478699,-0.9527201056480408
1772796618573459700,1.293459716796875,-0.1197500079870224,-0.007454858161509037,-0.8467549085617065
1772796618583451400,1.303451416015625,-0.059505313634872437,0.25142329931259155,-0.7097089290618896
1772796618593443600,1.313443603515625,-0.004143842961639166,0.37328022718429565,-0.5375510454177856
1772796618603435500,1.323435546875,0.04244709759950638,0.37644726037979126,-0.3465323746204376
1772796618613427500,1.333427490234375,0.08428183943033218,0.2976309061050415,-0.15329943597316742
1772796618623420400,1.34342041015625,0.11949335783720016,0.19108900427818298,0.03238361328840256
1772796618633412600,1.35341259765625,0.15644095838069916,0.0821555033326149,0.1990097612142563
1772796618643404500,1.363404541015625,0.18715518712997437,0.0029381797648966312,0.35051512718200684
1772796618653396500,1.373396484375,0.20786596834659576,-0.029612435027956963,0.4812646508216858
1772796618663388400,1.383388427734375,0.2040315419435501,-0.028133314102888107,0.5877045392990112
1772796618673380600,1.393380615234375,0.18772444128990173,0.012929774820804596,0.6634371876716614
1772796618683372500,1.40337255859375,0.1627088487148285,0.07356622815132141,0.7082270383834839
1772796618693364700,1.41336474609375,0.13747571408748627,0.13837958872318268,0.7228518128395081
1772796618703356400,1.4233564453125,0.11633714288473129,0.17463639378547668,0.706110417842865
1772796618713348600,1.4333486328125,0.10399466007947922,0.1819857507944107,0.6683468222618103
1772796618723340500,1.443340576171875,0.09831280261278152,0.15743699669837952,0.6131996512413025
1772796618733333500,1.45333349609375,0.08777689933776855,0.11167333275079727,0.5513535141944885
1772796618743325400,1.463325439453125,0.07980498671531677,0.060896702110767365,0.489371657371521
1772796618753317600,1.473317626953125,0.06793719530105591,0.021558469161391258,0.42899850010871887
1772796618763309600,1.4833095703125,0.051185645163059235,0.0029336526058614254,0.37748149037361145
1772796618773301500,1.493301513671875,0.03374215587973595,0.013252487406134605,0.32892656326293945
1772796618783293400,1.50329345703125,0.01468857191503048,0.047483429312705994,0.289169043302536
1772796618793285600,1.51328564453125,-0.010549972765147686,0.08990243822336197,0.25842007994651794
1772796618803277600,1.523277587890625,-0.039161644876003265,0.11625628173351288,0.2225068062543869
1772796618813269500,1.53326953125,-0.05455644801259041,0.11604248732328415,0.18664859235286713
1772796618823261400,1.543261474609375,-0.07082117348909378,0.10376104712486267,0.15536604821681976
1772796618833253600,1.553253662109375,-0.06986083835363388,0.09186790883541107,0.1322745680809021
1772796618843246300,1.563246337890625,-0.06395581364631653,0.0988115668296814,0.12327948212623596
1772796618853238500,1.573238525390625,-0.06490538269281387,0.13192851841449738,0.12273979187011719
1772796618863230500,1.58323046875,-0.08117835968732834,0.19305339455604553,0.1307298094034195
1772796618873222700,1.59322265625,-0.10416082292795181,0.2546161711215973,0.1416662335395813
1772796618883214600,1.603214599609375,-0.12266872823238373,0.29954904317855835,0.1490487903356552
1772796618893206500,1.61320654296875,-0.13533444702625275,0.3121914267539978,0.15195494890213013
1772796618903198500,1.623198486328125,-0.13706471025943756,0.3089737892150879,0.15307481586933136
1772796618913190700,1.633190673828125,-0.12867243587970734,0.3041367530822754,0.1499556303024292
1772796618923182600,1.6431826171875,-0.11716624349355698,0.2928798496723175,0.14773029088974
1772796618933174500,1.653174560546875,-0.10316591709852219,0.28367313742637634,0.1338290423154831
1772796618943166500,1.66316650390625,-0.0864362046122551,0.28216445446014404,0.12202005833387375
1772796618953158700,1.67315869140625,-0.0672631785273552,0.2792842984199524,0.10688629001379013
1772796618963151400,1.6831513671875,-0.06121460720896721,0.2538827955722809,0.08860448747873306
1772796618973143800,1.693143798828125,-0.05570266395807266,0.2051869034767151,0.06603766232728958
1772796618983135700,1.7031357421875,-0.04443216696381569,0.13868696987628937,0.04209397733211517
1772796618993128000,1.7131279296875,-0.025279665365815163,0.07670165598392487,0.01353197917342186
1772796619003119600,1.72311962890625,-0.006657779216766357,0.022047463804483414,-0.013604301027953625
1772796619013111800,1.73311181640625,0.014583352953195572,-0.004966653883457184,-0.034518688917160034
1772796619023103700,1.743103759765625,0.042823512107133865,-0.005985845346003771,-0.04710931330919266
1772796619033096000,1.753095947265625,0.06916604936122894,0.012611890211701393,-0.05231503024697304
1772796619043087600,1.763087646484375,0.09604214131832123,0.03662321716547012,-0.0476507693529129
1772796619053079800,1.773079833984375,0.12325979769229889,0.055019110441207886,-0.03867407143115997
1772796619063071700,1.78307177734375,0.15128158032894135,0.07273472100496292,-0.020733950659632683
1772796619073064700,1.793064697265625,0.17598816752433777,0.09013525396585464,0.005196603015065193
1772796619083056600,1.803056640625,0.1995406299829483,0.11892721056938171,0.031924620270729065
1772796619093048800,1.813048828125,0.22475914657115936,0.15018543601036072,0.06510349363088608
1772796619103040800,1.823040771484375,0.24855582416057587,0.17879685759544373,0.09718792140483856
1772796619113032700,1.83303271484375,0.26624181866645813,0.1953592747449875,0.1303502917289734
1772796619123024600,1.843024658203125,0.2823992073535919,0.199448823928833,0.16338467597961426
1772796619133016800,1.853016845703125,0.28736573457717896,0.19334132969379425,0.19448871910572052
1772796619143008800,1.8630087890625,0.2825357913970947,0.1685425043106079,0.21827687323093414
1772796619153000700,1.873000732421875,0.2750152051448822,0.14813069999217987,0.23513482511043549
1772796619162992600,1.88299267578125,0.2616407871246338,0.14211274683475494,0.2473808377981186
1772796619172984800,1.89298486328125,0.25080376863479614,0.1374276727437973,0.25685226917266846
1772796619182977800,1.902977783203125,0.2328689843416214,0.1329362541437149,0.2596736252307892
1772796619192969700,1.9129697265625,0.21928612887859344,0.11269064992666245,0.25532421469688416
1772796619202962000,1.9229619140625,0.19545403122901917,0.08851766586303711,0.24128668010234833
1772796619212953900,1.932953857421875,0.17211270332336426,0.07143880426883698,0.22948719561100006
1772796619222945800,1.94294580078125,0.1489328145980835,0.06796444207429886,0.20890602469444275
1772796619232937700,1.952937744140625,0.12497635930776596,0.08722245693206787,0.18383680284023285
1772796619242929700,1.9629296875,0.09573138505220413,0.13540196418762207,0.15829628705978394
1772796619252921900,1.972921875,0.08528328686952591,0.2072993516921997,0.1415296047925949
1772796619262913800,1.982913818359375,0.08622471243143082,0.3027592897415161,0.12673254311084747
1772796619272905700,1.99290576171875,0.1028144583106041,0.40336981415748596,0.12028330564498901
1772796619282897700,2.002897705078125,0.1281437873840332,0.48365533351898193,0.12348096817731857
1772796619292891000,2.012890869140625,0.14761599898338318,0.5352005362510681,0.14141225814819336
1772796619302882800,2.0228828125,0.16752685606479645,0.5678591728210449,0.17017997801303864
1772796619312874800,2.032874755859375,0.17798271775245667,0.5879588723182678,0.21778082847595215
1772796619322867000,2.042866943359375,0.1765986829996109,0.5637542009353638,0.25426480174064636
1772796619332859000,2.05285888671875,0.15966100990772247,0.4345584809780121,0.2639181315898895
1772796619342850800,2.062850830078125,0.10623640567064285,0.23606643080711365,0.24160990118980408
1772796619352842800,2.0728427734375,0.038299188017845154,0.037118904292583466,0.20006346702575684
1772796619362834700,2.082834716796875,-0.030359234660863876,-0.10072790831327438,0.15111270546913147
1772796619372827000,2.092826904296875,-0.07349838316440582,-0.13641276955604553,0.09264110773801804
1772796619382818800,2.10281884765625,-0.0815989226102829,-0.1008736789226532,0.028195010498166084
1772796619392810800,2.112810791015625,-0.07401581108570099,-0.007008512504398823,-0.03666206821799278
1772796619402804000,2.122803955078125,-0.03985225036740303,0.1232733279466629,-0.08378724008798599
1772796619412796000,2.1327958984375,0.011954093351960182,0.25399452447891235,-0.10556221753358841
1772796619422787800,2.142787841796875,0.06306761503219604,0.3520747423171997,-0.0995224341750145
1772796619432779800,2.15277978515625,0.10952232778072357,0.3859422206878662,-0.061762094497680664
1772796619442772000,2.16277197265625,0.1456880420446396,0.3525752127170563,0.012132102623581886
1772796619452764000,2.172763916015625,0.16974757611751556,0.27267107367515564,0.11222328245639801
1772796619462755800,2.182755859375,0.17824704945087433,0.18702274560928345,0.21979288756847382
1772796619472747800,2.192747802734375,0.17830906808376312,0.119879812002182,0.3274507522583008
1772796619482739700,2.20273974609375,0.16584520041942596,0.06219787523150444,0.4199226200580597
1772796619492732000,2.21273193359375,0.14244340360164642,0.010807478800415993,0.48831847310066223
1772796619502723600,2.2227236328125,0.11501391977071762,-0.04010337218642235,0.5214791297912598
1772796619512716800,2.232716796875,0.08757197111845016,-0.08817791193723679,0.5245431661605835
1772796619522709000,2.242708984375,0.06449062377214432,-0.1473429650068283,0.5032339096069336
1772796619532700700,2.25270068359375,0.03621567785739899,-0.2202877551317215,0.4514152705669403
1772796619542692900,2.26269287109375,-0.007623682729899883,-0.2884795665740967,0.38485008478164673
1772796619552684800,2.272684814453125,-0.06160186603665352,-0.3377542495727539,0.3057151138782501
1772796619562677000,2.282677001953125,-0.12302874028682709,-0.3610302805900574,0.2266344130039215
1772796619572668700,2.292668701171875,-0.1730564832687378,-0.3396233320236206,0.1548522561788559
1772796619582660900,2.302660888671875,-0.21210268139839172,-0.28370654582977295,0.08747269958257675
1772796619592652800,2.31265283203125,-0.2351790815591812,-0.2112922966480255,0.04119640961289406
1772796619602645000,2.32264501953125,-0.2474900782108307,-0.15771321952342987,0.009564980864524841
1772796619612637000,2.332636962890625,-0.2504569888114929,-0.12668833136558533,-0.0012714553158730268
1772796619622630000,2.3426298828125,-0.24250666797161102,-0.09186670184135437,0.006255969405174255
1772796619632621800,2.352621826171875,-0.2321215569972992,-0.052597835659980774,0.026211703196167946
1772796619642613800,2.36261376953125,-0.22162312269210815,-0.02994764968752861,0.0589134581387043
1772796619652605700,2.372605712890625,-0.2198399156332016,-0.042942292988300323,0.09724106639623642
1772796619662598000,2.382597900390625,-0.21483609080314636,-0.07107805460691452,0.13217349350452423
1772796619672589800,2.39258984375,-0.21828041970729828,-0.09609713405370712,0.15712031722068787
1772796619682582000,2.40258203125,-0.22494179010391235,-0.11151417344808578,0.1687988042831421
1772796619692573700,2.41257373046875,-0.2291039377450943,-0.1361767202615738,0.1614927351474762
1772796619702566000,2.42256591796875,-0.22590520977973938,-0.16921110451221466,0.13110314309597015
1772796619712557800,2.432557861328125,-0.21070249378681183,-0.21453559398651123,0.08561624586582184
1772796619722550000,2.442550048828125,-0.18688158690929413,-0.26878097653388977,0.015142074786126614
1772796619732541700,2.452541748046875,-0.1438939869403839,-0.31451883912086487,-0.06656026095151901
1772796619742535000,2.462534912109375,-0.09893397241830826,-0.3410196900367737,-0.1502934992313385
1772796619752526800,2.47252685546875,-0.045384813100099564,-0.3600318431854248,-0.23584987223148346
1772796619762518800,2.482518798828125,0.001552868401631713,-0.35428422689437866,-0.30411282181739807
1772796619772510700,2.4925107421875,0.04836668819189072,-0.33114710450172424,-0.3556193709373474
1772796619782503000,2.5025029296875,0.09875129163265228,-0.2817279100418091,-0.3869975209236145
1772796619792494800,2.512494873046875,0.14070449769496918,-0.1911182403564453,-0.40179961919784546
1772796619802486800,2.52248681640625,0.1710435003042221,-0.08384104818105698,-0.40736615657806396
1772796619812478700,2.532478759765625,0.19397778809070587,0.009932832792401314,-0.3994148075580597
1772796619822471000,2.542470947265625,0.21017833054065704,0.06512924283742905,-0.3869245946407318
1772796619832462800,2.552462890625,0.21765200793743134,0.07823733240365982,-0.36567357182502747
1772796619842454800,2.562454833984375,0.21951942145824432,0.0495138093829155,-0.3322058916091919
1772796619852446700,2.57244677734375,0.22257520258426666,0.0005492386408150196,-0.28930437564849854
1772796619862440000,2.58243994140625,0.22904615104198456,-0.052271101623773575,-0.24165402352809906
1772796619872431900,2.592431884765625,0.2379515916109085,-0.0989244133234024,-0.19275438785552979
1772796619882423800,2.602423828125,0.24112847447395325,-0.13408613204956055,-0.15389913320541382
1772796619892415700,2.612415771484375,0.23168742656707764,-0.16213886439800262,-0.12228865176439285
1772796619902408000,2.622407958984375,0.2233586609363556,-0.16490055620670319,-0.09196750074625015
1772796619912400000,2.63239990234375,0.21463198959827423,-0.14513130486011505,-0.08031558990478516
1772796619922391800,2.642391845703125,0.2143547534942627,-0.1196051761507988,-0.07502788305282593
1772796619932383700,2.6523837890625,0.21631284058094025,-0.10562458634376526,-0.08767851442098618
1772796619942376000,2.6623759765625,0.20846983790397644,-0.10455106943845749,-0.12135285884141922
1772796619952367900,2.672367919921875,0.2027825117111206,-0.12009189277887344,-0.1582033634185791
1772796619962359800,2.68235986328125,0.19605430960655212,-0.14648008346557617,-0.20056386291980743
1772796619972353000,2.69235302734375,0.19368016719818115,-0.1805712729692459,-0.23299741744995117
1772796619982345000,2.702344970703125,0.19087745249271393,-0.20100358128547668,-0.261253297328949
1772796619992337000,2.7123369140625,0.18868610262870789,-0.193415567278862,-0.2751251459121704
1772796620002328800,2.722328857421875,0.1819930523633957,-0.17284105718135834,-0.28460147976875305
1772796620012321000,2.732321044921875,0.16731250286102295,-0.17094245553016663,-0.2809906303882599
1772796620022313000,2.74231298828125,0.14634490013122559,-0.20773962140083313,-0.2657986283302307
1772796620032305000,2.752304931640625,0.13082517683506012,-0.2692732810974121,-0.23259098827838898
1772796620042296800,2.762296875,0.12482213973999023,-0.32812780141830444,-0.18595744669437408
1772796620052288800,2.772288818359375,0.1260487586259842,-0.34732288122177124,-0.12414053827524185
1772796620062281000,2.782281005859375,0.1231784075498581,-0.32396671175956726,-0.058085620403289795
1772796620072273000,2.79227294921875,0.11487756669521332,-0.27770403027534485,0.0045096371322870255
1772796620082265900,2.802265869140625,0.09423833340406418,-0.22986088693141937,0.058592312037944794
1772796620092258000,2.812258056640625,0.06661557406187057,-0.1907304972410202,0.10137158632278442
1772796620102250000,2.82225,0.03648004308342934,-0.16551275551319122,0.12313946336507797
1772796620112242000,2.832241943359375,0.016802765429019928,-0.14431726932525635,0.13190200924873352
1772796620122233900,2.84223388671875,-0.0053368909284472466,-0.12748634815216064,0.12461453676223755
1772796620132226000,2.85222607421875,-0.02191058173775673,-0.12071281671524048,0.11033973097801208
1772796620142218000,2.862218017578125,-0.033981893211603165,-0.1163252592086792,0.09581778198480606
1772796620152210000,2.8722099609375,-0.04342764616012573,-0.09330251812934875,0.08650942891836166
1772796620162201900,2.882201904296875,-0.052715420722961426,-0.04957447573542595,0.08355358988046646
1772796620172194000,2.892194091796875,-0.060350172221660614,0.03868135064840317,0.10575689375400543
1772796620182186000,2.90218603515625,-0.05238359048962593,0.1373826265335083,0.14342837035655975
1772796620192179000,2.912178955078125,-0.04995931684970856,0.12828047573566437,0.1841403692960739
1772796620202171000,2.9221708984375,-0.08774291723966599,-0.01137222908437252,0.17993178963661194
1772796620212163000,2.9321630859375,-0.15795503556728363,-0.20266273617744446,0.12222784012556076
1772796620222154800,2.94215478515625,-0.2138044536113739,-0.3367763161659241,0.04135563597083092
1772796620232147000,2.95214697265625,-0.22050540149211884,-0.3701845109462738,-0.04590105265378952
1772796620242139000,2.962138916015625,-0.17141349613666534,-0.3178693652153015,-0.13145563006401062
1772796620252131000,2.972131103515625,-0.10566160082817078,-0.23654857277870178,-0.20929034054279327
1772796620262122800,2.982122802734375,-0.049989283084869385,-0.1736910492181778,-0.28130754828453064
1772796620272115000,2.992114990234375,-0.011723893694579601,-0.12542133033275604,-0.3324171304702759
1772796620282107000,3.00210693359375,0.030284544453024864,-0.07906687259674072,-0.3527460992336273
1772796620292099000,3.01209912109375,0.07106835395097733,-0.04497455060482025,-0.33449357748031616
1772796620302091800,3.022091796875,0.1028161570429802,-0.03906606137752533,-0.28676706552505493
1772796620312084000,3.032083984375,0.12176953256130219,-0.059037573635578156,-0.21620474755764008
1772796620322076000,3.042075927734375,0.13282084465026855,-0.08991852402687073,-0.1394263356924057
1772796620332067800,3.05206787109375,0.14283320307731628,-0.10271185636520386,-0.05653690546751022
1772796620342059800,3.062059814453125,0.1646450161933899,-0.06873950362205505,0.017411887645721436
1772796620352052000,3.072052001953125,0.1894586980342865,-0.0027399975806474686,0.08161503821611404
1772796620362044000,3.0820439453125,0.20364615321159363,0.05640081688761711,0.14268505573272705
1772796620372036000,3.0920361328125,0.20867495238780975,0.12329622358083725,0.19528774917125702
1772796620382027800,3.10202783203125,0.2220701277256012,0.18092329800128937,0.24355195462703705
1772796620392020000,3.11202001953125,0.22650276124477386,0.2520243227481842,0.2832604944705963
1772796620402012000,3.122011962890625,0.23293828964233398,0.3126074969768524,0.3160107135772705
1772796620412004900,3.1320048828125,0.22299082577228546,0.34409570693969727,0.3393549919128418
1772796620421996800,3.141996826171875,0.1985914707183838,0.32948482036590576,0.34595802426338196
1772796620431989000,3.151989013671875,0.16930066049098969,0.2858845293521881,0.3421362638473511
1772796620441981000,3.16198095703125,0.15407083928585052,0.22349543869495392,0.34074637293815613
1772796620451972900,3.171972900390625,0.151879221200943,0.17226949334144592,0.33649522066116333
1772796620461964800,3.18196484375,0.1582939773797989,0.1464453488588333,0.3209375739097595
1772796620471957000,3.19195703125,0.16582690179347992,0.13603751361370087,0.29489079117774963
1772796620481949000,3.201948974609375,0.15872743725776672,0.13045792281627655,0.25432178378105164
1772796620491940900,3.21194091796875,0.14306995272636414,0.12985268235206604,0.2043551504611969
1772796620501932800,3.221932861328125,0.12207864969968796,0.11628174781799316,0.1450745165348053
1772796620511925000,3.231925048828125,0.10828973352909088,0.09658052772283554,0.0854739397764206
1772796620521917000,3.2419169921875,0.10119853913784027,0.07573916018009186,0.024964261800050735
1772796620531910000,3.251909912109375,0.0978684276342392,0.07594811916351318,-0.02577180415391922
1772796620541901800,3.26190185546875,0.10109538584947586,0.08373653888702393,-0.07195980846881866
1772796620551894000,3.27189404296875,0.11567378789186478,0.10950222611427307,-0.10307232290506363
1772796620561886000,3.281885986328125,0.12775787711143494,0.1564180701971054,-0.12335735559463501
1772796620571878000,3.2918779296875,0.1407984048128128,0.21136917173862457,-0.12370643764734268
1772796620581869800,3.301869873046875,0.14483575522899628,0.25683915615081787,-0.11220823973417282
1772796620591862000,3.311862060546875,0.15366986393928528,0.2849096655845642,-0.08786047250032425
1772796620601854000,3.32185400390625,0.16218878328800201,0.2898876368999481,-0.0479908213019371
1772796620611846000,3.331845947265625,0.16905784606933594,0.2832101881504059,0.0006498330621980131
1772796620621837800,3.341837890625,0.17710033059120178,0.2652607560157776,0.046479638665914536
1772796620631830000,3.351830078125,0.18010568618774414,0.2440987229347229,0.08954743295907974
1772796620641822700,3.36182275390625,0.1933077722787857,0.23272275924682617,0.11977910250425339
1772796620651815000,3.37181494140625,0.20861317217350006,0.24265722930431366,0.13712963461875916
1772796620661806800,3.381806884765625,0.22996214032173157,0.25165900588035583,0.13193567097187042
1772796620671799000,3.391799072265625,0.25797685980796814,0.2546113133430481,0.11503560096025467
1772796620681790700,3.401790771484375,0.27988961338996887,0.24366572499275208,0.07661737501621246
1772796620691783000,3.411782958984375,0.30911290645599365,0.21951614320278168,0.03572652488946915
1772796620701774800,3.42177490234375,0.3376303017139435,0.17583471536636353,-0.013530767522752285
1772796620711767000,3.43176708984375,0.38060304522514343,0.12676703929901123,-0.05006667599081993
1772796620721758700,3.4417587890625,0.42234525084495544,0.08596708625555038,-0.07863305509090424
1772796620731751000,3.4517509765625,0.4676319658756256,0.06182495504617691,-0.0887361392378807
1772796620741742800,3.461742919921875,0.5064083933830261,0.05244823172688484,-0.07976048439741135
1772796620751735800,3.47173583984375,0.5378422141075134,0.0667353942990303,-0.053467266261577606
1772796620761727700,3.481727783203125,0.5680619478225708,0.08785852044820786,-0.01491214893758297
1772796620771720000,3.491719970703125,0.5932666659355164,0.10978490859270096,0.03681427985429764
1772796620781712000,3.5017119140625,0.613924503326416,0.13438959419727325,0.08717944473028183
1772796620791704000,3.5117041015625,0.6360548734664917,0.1641484797000885,0.1334315836429596
1772796620801695700,3.52169580078125,0.6501858830451965,0.19841723144054413,0.16864602267742157
1772796620811688000,3.53168798828125,0.6658638715744019,0.2255460023880005,0.1866275817155838
1772796620821679900,3.541679931640625,0.6844573020935059,0.24617086350917816,0.18656818568706512
1772796620831672000,3.551672119140625,0.699327290058136,0.2541380822658539,0.17540912330150604
1772796620841663700,3.561663818359375,0.7201651930809021,0.24953238666057587,0.15222178399562836
1772796620851656000,3.571656005859375,0.7416014075279236,0.23724743723869324,0.12771624326705933
1772796620861649000,3.58164892578125,0.7693741917610168,0.22874370217323303,0.10696917027235031
1772796620871640800,3.591640869140625,0.7949717044830322,0.2426954060792923,0.0878276452422142
1772796620881632800,3.6016328125,0.8199366927146912,0.28137245774269104,0.08014735579490662
1772796620891625000,3.611625,0.8469558954238892,0.3185410797595978,0.08039078116416931
1772796620901617000,3.621616943359375,0.8675857782363892,0.33550649881362915,0.08447100967168808
1772796620911608800,3.63160888671875,0.8848345279693604,0.3393435776233673,0.0930657610297203
1772796620921600800,3.641600830078125,0.904728353023529,0.33535149693489075,0.10023446381092072
1772796620931593000,3.651593017578125,0.9230741262435913,0.3327920436859131,0.10531940311193466
1772796620941585000,3.6615849609375,0.9473029971122742,0.3261690139770508,0.10697189718484879
1772796620951576800,3.671576904296875,0.9630392789840698,0.3192934989929199,0.1093212217092514
1772796620961568800,3.68156884765625,0.9772784113883972,0.3315914273262024,0.09930107742547989
1772796620971561500,3.6915615234375,0.9938298463821411,0.3574118912220001,0.08449623733758926
1772796620981553400,3.701553466796875,1.0136098861694336,0.37045207619667053,0.07118655741214752
1772796620991545300,3.71154541015625,1.0379639863967896,0.3677450716495514,0.06237578019499779
1772796621001537300,3.721537353515625,1.0682995319366455,0.35607269406318665,0.04794544354081154
1772796621011529500,3.731529541015625,1.103780746459961,0.3322848677635193,0.038187939673662186
1772796621021521400,3.741521484375,1.1382066011428833,0.31264910101890564,0.031153198331594467
1772796621031513300,3.751513427734375,1.1711444854736328,0.30770713090896606,0.022543448954820633
1772796621041505300,3.76150537109375,1.2024015188217163,0.30937641859054565,0.018059218302369118
1772796621051497500,3.77149755859375,1.2380071878433228,0.31006211042404175,0.010780996643006802
1772796621061489400,3.781489501953125,1.27654230594635,0.29966193437576294,0.005955082830041647
1772796621071481300,3.7914814453125,1.3067001104354858,0.27135416865348816,-0.006321670953184366
1772796621081474300,3.801474365234375,1.3410067558288574,0.22170910239219666,-0.01153747271746397
1772796621091466500,3.811466552734375,1.3762891292572021,0.14776161313056946,-0.008603337220847607
1772796621101458400,3.82145849609375,1.4174895286560059,0.0809977650642395,0.007843812927603722
1772796621111450400,3.831450439453125,1.4803789854049683,-0.03232951834797859,0.052390024065971375
1772796621121442300,3.8414423828125,1.5359307527542114,-0.15892447531223297,0.1251491904258728
1772796621131434500,3.8514345703125,1.5870801210403442,-0.1844719648361206,0.22422072291374207
1772796621141426400,3.861426513671875,1.627456784248352,-0.16556565463542938,0.32414066791534424
1772796621151418400,3.87141845703125,1.6552623510360718,-0.12026651203632355,0.400424063205719
1772796621161410300,3.881410400390625,1.6957274675369263,-0.05932699143886566,0.4427851140499115
1772796621171402500,3.891402587890625,1.7472870349884033,-0.009217338636517525,0.45351457595825195
1772796621181394400,3.90139453125,1.8019728660583496,0.06438177824020386,0.44041287899017334
1772796621191387400,3.911387451171875,1.8464518785476685,0.16960299015045166,0.4003058671951294
1772796621201379300,3.92137939453125,1.8843169212341309,0.2784605026245117,0.33873888850212097
1772796621211371500,3.93137158203125,1.9244166612625122,0.36341381072998047,0.2523958086967468
1772796621221363200,3.94136328125,1.9778122901916504,0.41268256306648254,0.15465860068798065
1772796621231355400,3.95135546875,2.0329349040985107,0.42631807923316956,0.05225057527422905
1772796621241347300,3.961347412109375,2.0800492763519287,0.42198216915130615,-0.04097630828619003
1772796621251339500,3.971339599609375,2.1153910160064697,0.3802897036075592,-0.11398421227931976
1772796621261331200,3.981331298828125,2.1331300735473633,0.32690876722335815,-0.15914955735206604
1772796621271323400,3.991323486328125,2.145890712738037,0.3095669448375702,-0.18588119745254517
1772796621281315300,4.0013154296875,2.14760422706604,0.33427441120147705,-0.19486165046691895
1772796621291307500,4.0113076171875,2.144622802734375,0.39263680577278137,-0.19917307794094086
1772796621301299500,4.021299560546875,2.134220600128174,0.4561910033226013,-0.20367248356342316
1772796621311292400,4.03129248046875,2.1215174198150635,0.5102024078369141,-0.21463541686534882
1772796621321284400,4.041284423828125,2.108210325241089,0.5455862283706665,-0.23067137598991394
1772796621331276500,4.051276611328125,2.097240924835205,0.5462273359298706,-0.24711108207702637
1772796621341268200,4.061268310546875,2.0965094566345215,0.5267828106880188,-0.26392680406570435
1772796621351260400,4.071260498046875,2.0990707874298096,0.521317183971405,-0.27978846430778503
1772796621361252400,4.08125244140625,2.1034722328186035,0.5034157037734985,-0.2955823242664337
1772796621371244500,4.09124462890625,2.1071650981903076,0.47790512442588806,-0.30524346232414246
1772796621381236200,4.101236328125,2.107422113418579,0.4792516231536865,-0.3087867796421051
1772796621391228400,4.111228515625,2.1012134552001953,0.48095643520355225,-0.30219709873199463
1772796621401220400,4.121220458984375,2.0799949169158936,0.47059112787246704,-0.292271226644516
1772796621411213300,4.13121337890625,2.042316436767578,0.44104769825935364,-0.27443379163742065
1772796621421205200,4.141205322265625,1.9926905632019043,0.39334142208099365,-0.25834590196609497
1772796621431197400,4.151197509765625,1.9368748664855957,0.3473644256591797,-0.2413661926984787
1772796621441189400,4.161189453125,1.8914408683776855,0.321228951215744,-0.22920434176921844
1772796621451181300,4.171181396484375,1.8602709770202637,0.33286237716674805,-0.21818995475769043
1772796621461173200,4.18117333984375,1.829898715019226,0.3842315673828125,-0.22111569344997406
1772796621471165400,4.19116552734375,1.8039363622665405,0.4382324814796448,-0.2156885266304016
1772796621481157400,4.201157470703125,1.7690129280090332,0.5058763027191162,-0.2172430157661438
1772796621491149300,4.2111494140625,1.727630615234375,0.5860509276390076,-0.20157727599143982
1772796621501141200,4.221141357421875,1.6808143854141235,0.6652770042419434,-0.18462730944156647
1772796621511133400,4.231133544921875,1.6454439163208008,0.735824465751648,-0.1653585582971573
1772796621521125400,4.24112548828125,1.6157523393630981,0.7882919311523438,-0.1510739028453827
1772796621531118300,4.251118408203125,1.5837045907974243,0.8229220509529114,-0.15033374726772308
1772796621541110300,4.2611103515625,1.5510278940200806,0.8201800584793091,-0.16101035475730896
1772796621551102500,4.2711025390625,1.5145659446716309,0.7874617576599121,-0.18482357263565063
1772796621561094400,4.281094482421875,1.4744919538497925,0.7277014851570129,-0.21060244739055634
1772796621571086300,4.29108642578125,1.4405344724655151,0.6456006765365601,-0.23477627336978912
1772796621581078300,4.301078369140625,1.4149497747421265,0.5710201859474182,-0.25649917125701904
1772796621591070500,4.311070556640625,1.4065630435943604,0.5219030380249023,-0.27137139439582825
1772796621601062400,4.3210625,1.3975461721420288,0.5079363584518433,-0.2781675159931183
1772796621611054300,4.331054443359375,1.3917075395584106,0.49885234236717224,-0.2715381979942322
1772796621621046300,4.34104638671875,1.3960705995559692,0.5213938355445862,-0.27139225602149963
1772796621631038500,4.35103857421875,1.411889910697937,0.5337703227996826,-0.2622901499271393
1772796621641031400,4.361031494140625,1.4292750358581543,0.5383656024932861,-0.25562453269958496
1772796621651023400,4.3710234375,1.4521770477294922,0.5516387820243835,-0.2515016198158264
1772796621661015300,4.381015380859375,1.479914903640747,0.5698130130767822,-0.23972192406654358
1772796621671007500,4.391007568359375,1.5030375719070435,0.6082966327667236,-0.22912222146987915
1772796621680999200,4.400999267578125,1.5229926109313965,0.6451513171195984,-0.21907784044742584
1772796621690991400,4.410991455078125,1.528685450553894,0.6678798794746399,-0.21202035248279572
1772796621700983300,4.4209833984375,1.5366145372390747,0.6582040786743164,-0.2040974497795105
1772796621710975500,4.4309755859375,1.5416148900985718,0.627188503742218,-0.19241835176944733
1772796621720967200,4.44096728515625,1.546151876449585,0.5895769596099854,-0.17360390722751617
1772796621730959400,4.45095947265625,1.5452361106872559,0.5639698505401611,-0.15302959084510803
1772796621740951300,4.460951416015625,1.5488311052322388,0.5616454482078552,-0.1340966522693634
1772796621750944300,4.4709443359375,1.5537358522415161,0.571358859539032,-0.11551443487405777
1772796621760936400,4.4809365234375,1.5675123929977417,0.5929964780807495,-0.10123057663440704
1772796621770928400,4.490928466796875,1.5884485244750977,0.6106417775154114,-0.0926845595240593
1772796621780920600,4.500920654296875,1.6036503314971924,0.627183735370636,-0.09375141561031342
1772796621790912500,4.51091259765625,1.6067384481430054,0.6237915754318237,-0.10485390573740005
1772796621800904200,4.520904296875,1.5984200239181519,0.5929436683654785,-0.12421828508377075
1772796621810896400,4.530896484375,1.5752815008163452,0.5461367964744568,-0.15058355033397675
1772796621820888300,4.540888427734375,1.5471426248550415,0.4781745672225952,-0.17317061126232147
1772796621830880500,4.550880615234375,1.5234811305999756,0.4027480483055115,-0.19282615184783936
1772796621840872200,4.5608720703125,1.5127365589141846,0.3420330286026001,-0.20439413189888
1772796621850864400,4.570864501953125,1.5185434818267822,0.31365132331848145,-0.2003520131111145
1772796621860857600,4.580857666015625,1.5259028673171997,0.3192676603794098,-0.18984849750995636
1772796621870849300,4.590849365234375,1.528008222579956,0.3446027338504791,-0.17457737028598785
1772796621880841500,4.600841552734375,1.5294843912124634,0.36523503065109253,-0.15920507907867432
1772796621890833400,4.61083349609375,1.5216103792190552,0.3690183460712433,-0.13518182933330536
1772796621900825600,4.62082568359375,1.5114085674285889,0.3546580374240875,-0.10678161680698395
1772796621910817300,4.6308173828125,1.4996674060821533,0.34750354290008545,-0.08215540647506714
1772796621920809500,4.6408095703125,1.4899674654006958,0.34986603260040283,-0.054269708693027496
1772796621930801400,4.650801513671875,1.4836243391036987,0.35795432329177856,-0.035321518778800964
1772796621940793300,4.66079345703125,1.4857299327850342,0.35451459884643555,-0.009323738515377045
1772796621950785300,4.670785400390625,1.483235239982605,0.33861327171325684,0.014231223613023758
1772796621960777200,4.680777099609375,1.4804415702819824,0.31034061312675476,0.040975749492645264
1772796621970770400,4.6907705078125,1.470788598060608,0.27451497316360474,0.06884300708770752
1772796621980763100,4.70076318359375,1.4510455131530762,0.23629993200302124,0.09327217936515808
1772796621990755300,4.71075537109375,1.4288976192474365,0.19456161558628082,0.11904150247573853
1772796622000747300,4.720747314453125,1.4019993543624878,0.17453624308109283,0.1503797173500061
1772796622010739200,4.7307392578125,1.3794857263565063,0.17639723420143127,0.16945314407348633
1772796622020731100,4.740731201171875,1.3617932796478271,0.17606301605701447,0.1793888658285141
1772796622030723300,4.750723388671875,1.346940517425537,0.1592320054769516,0.18131981790065765
1772796622040715300,4.76071533203125,1.3276331424713135,0.1094929426908493,0.17716023325920105
1772796622050707500,4.77070751953125,1.3115243911743164,0.04327109456062317,0.18131788074970245
1772796622060699100,4.78069921875,1.297288179397583,-0.02490716241300106,0.1910456120967865
1772796622070691300,4.79069140625,1.282946228981018,-0.06577789038419724,0.2058762162923813
1772796622080684300,4.800684326171875,1.2657451629638672,-0.0850842148065567,0.20600245893001556
1772796622090676200,4.81067626953125,1.2432360649108887,-0.08967436850070953,0.1989014446735382
1772796622100668200,4.820668212890625,1.2168800830841064,-0.0825839638710022,0.18682880699634552
1772796622110660400,4.830660400390625,1.1881682872772217,-0.07194213569164276,0.16952502727508545
1772796622120652300,4.84065234375,1.1622999906539917,-0.04050697758793831,0.14449024200439453
1772796622130644200,4.850644287109375,1.1353942155838013,-0.004519116133451462,0.12144078314304352
1772796622140636200,4.86063623046875,1.1142241954803467,0.00677321944385767,0.09977810084819794
1772796622150628400,4.87062841796875,1.0933232307434082,0.019091341644525528,0.08183719962835312
1772796622160620300,4.880620361328125,1.0780750513076782,0.03775397688150406,0.07178376615047455
1772796622170612200,4.8906123046875,1.0635201930999756,0.056459691375494,0.06633975356817245
1772796622180604200,4.900604248046875,1.0537158250808716,0.07701475918292999,0.07218459248542786
1772796622190597400,4.910597412109375,1.0433497428894043,0.10328302532434464,0.09034086763858795
1772796622200589000,4.920589111328125,1.0351192951202393,0.12659047544002533,0.11222459375858307
1772796622210581200,4.930581298828125,1.0287781953811646,0.149856835603714,0.13973279297351837
1772796622220573200,4.9405732421875,1.0265240669250488,0.17294643819332123,0.1696222424507141
1772796622230565400,4.9505654296875,1.0124629735946655,0.17946785688400269,0.18495593965053558
1772796622240557300,4.960557373046875,0.9972957372665405,0.1876261830329895,0.18162831664085388
1772796622250549200,4.97054931640625,0.9833478331565857,0.20128335058689117,0.16081522405147552
1772796622260541200,4.980541259765625,0.9632455110549927,0.2108829766511917,0.12385454028844833
1772796622270533400,4.990533447265625,0.9510889649391174,0.20389698445796967,0.07170876860618591
1772796622280525300,5.000525390625,0.9526399374008179,0.1954270601272583,0.013713103719055653
1772796622290517200,5.010517333984375,0.9707264304161072,0.19930227100849152,-0.03013031557202339
1772796622300510200,5.02051025390625,0.9896998405456543,0.2131509631872177,-0.05215039476752281
1772796622310502400,5.03050244140625,1.0201843976974487,0.22579129040241241,-0.05415567383170128
1772796622320494000,5.040494140625,1.0452778339385986,0.24365976452827454,-0.03243359923362732
1772796622330486300,5.050486328125,1.0598676204681396,0.26914817094802856,-0.0021653943695127964
1772796622340478200,5.060478271484375,1.056841492652893,0.2971643805503845,0.0340551920235157
1772796622350470400,5.070470458984375,1.0446722507476807,0.32038041949272156,0.06850805878639221
1772796622360462000,5.080462158203125,1.0184457302093506,0.31969863176345825,0.10085295140743256
1772796622370454300,5.090454345703125,0.9997383952140808,0.29224324226379395,0.12513400614261627
1772796622380446200,5.1004462890625,0.973407506942749,0.2502928376197815,0.1289340704679489
1772796622390438400,5.1104384765625,0.9518696069717407,0.200770303606987,0.129073828458786
1772796622400430000,5.12043017578125,0.9319358468055725,0.16795696318149567,0.1170472502708435
1772796622410423300,5.13042333984375,0.915081262588501,0.1579441875219345,0.10404457896947861
1772796622420415200,5.140415283203125,0.8919639587402344,0.1682056188583374,0.08173608034849167
1772796622430407200,5.1504072265625,0.8646162748336792,0.19095245003700256,0.05456513166427612
1772796622440399000,5.160399169921875,0.839609682559967,0.21283352375030518,0.026168644428253174
1772796622450391300,5.170391357421875,0.8159075975418091,0.24455976486206055,-0.0023697209544479847
1772796622460383200,5.18038330078125,0.7922624349594116,0.2748503088951111,-0.0265155378729105
1772796622470375400,5.19037548828125,0.7719998955726624,0.30090034008026123,-0.03340335562825203
1772796622480367000,5.2003671875,0.7596085071563721,0.3336809277534485,-0.04362403601408005
1772796622490359300,5.210359375,0.7572108507156372,0.37961846590042114,-0.04032187908887863
1772796622500351200,5.220351318359375,0.7641566395759583,0.43432459235191345,-0.022593749687075615
1772796622510343400,5.230343505859375,0.765914261341095,0.4689716100692749,0.0007800448220223188
1772796622520336100,5.240336181640625,0.7608417272567749,0.5044432878494263,0.02485422044992447
1772796622530328300,5.250328369140625,0.7666423320770264,0.5559413433074951,0.044639065861701965
1772796622540320300,5.2603203125,0.7750869393348694,0.6172299981117249,0.05867578834295273
1772796622550312200,5.270312255859375,0.7860401272773743,0.6665489673614502,0.05948349088430405
1772796622560304000,5.28030419921875,0.7930343747138977,0.6882899403572083,0.055922046303749084
1772796622570296300,5.29029638671875,0.7993227243423462,0.6948338150978088,0.041880857199430466
1772796622580288300,5.300288330078125,0.7993541359901428,0.6572800278663635,0.02511519379913807
1772796622590280200,5.3102802734375,0.7966668605804443,0.5850102305412292,-0.0020749142859131098
1772796622600272100,5.320272216796875,0.7992762327194214,0.4797583818435669,-0.024809788912534714
1772796622610264300,5.330264404296875,0.8122023940086365,0.35965442657470703,-0.05536897853016853
1772796622620256300,5.34025634765625,0.8254199028015137,0.23045356571674347,-0.08068925142288208
1772796622630249200,5.350249267578125,0.8357369899749756,0.11468728631734848,-0.09929622709751129
1772796622640241200,5.3602412109375,0.8502786755561829,0.05677684769034386,-0.11401364952325821
1772796622650233300,5.3702333984375,0.8643202781677246,0.05758543685078621,-0.12531565129756927
1772796622660225300,5.380225341796875,0.8809323310852051,0.09439884126186371,-0.1346777379512787
1772796622670217200,5.39021728515625,0.9023986458778381,0.15028542280197144,-0.14488579332828522
1772796622680209200,5.400209228515625,0.9226064682006836,0.19973473250865936,-0.15225902199745178
1772796622690201300,5.410201416015625,0.9357084035873413,0.2190762162208557,-0.15952998399734497
1772796622700193300,5.420193359375,0.9452308416366577,0.19936110079288483,-0.1594061404466629
1772796622710185200,5.430185302734375,0.9476901292800903,0.15686845779418945,-0.15190094709396362
1772796622720177200,5.44017724609375,0.9486814141273499,0.10477036237716675,-0.13356134295463562
1772796622730169300,5.45016943359375,0.945466935634613,0.05487808957695961,-0.10604888200759888
1772796622740162300,5.460162353515625,0.9446373581886292,0.008450135588645935,-0.07894057035446167
1772796622750154200,5.470154296875,0.9408171772956848,-0.024739382788538933,-0.043059565126895905
1772796622760146400,5.480146484375,0.9326383471488953,-0.045326683670282364,-0.0026953634805977345
1772796622770138400,5.490138427734375,0.908054769039154,-0.04604608565568924,0.030138719826936722
1772796622780130000,5.500130126953125,0.8746858835220337,-0.009809787385165691,0.050010960549116135
1772796622790122200,5.510122314453125,0.8489328026771545,0.04728227108716965,0.056163378059864044
1772796622800114200,5.5201142578125,0.8227019906044006,0.11851544678211212,0.04685935750603676
1772796622810106400,5.5301064453125,0.7947267293930054,0.18308594822883606,0.024643734097480774
1772796622820098000,5.54009814453125,0.7632724046707153,0.2095378041267395,-0.010743017308413982
1772796622830090200,5.55009033203125,0.7342095375061035,0.19256538152694702,-0.05247300863265991
1772796622840082200,5.560082275390625,0.7110051512718201,0.12790542840957642,-0.08662565052509308
1772796622850075100,5.5700751953125,0.6989983320236206,0.05217703431844711,-0.10906816273927689
1772796622860067300,5.5800673828125,0.6830241680145264,0.009804810397326946,-0.11975622922182083
1772796622870059300,5.590059326171875,0.6608365774154663,0.000789211131632328,-0.12506230175495148
1772796622880051500,5.600051513671875,0.6323325037956238,0.013237358070909977,-0.12313444912433624
1772796622890043100,5.610043212890625,0.6054757237434387,0.027638986706733704,-0.11356952041387558
1772796622900035300,5.620035400390625,0.5728666186332703,0.0379459522664547,-0.10479919612407684
1772796622910027300,5.63002734375,0.5428110361099243,0.0464128777384758,-0.09241468459367752
1772796622920019200,5.640019287109375,0.5156755447387695,0.05604366958141327,-0.07700297236442566
1772796622930011400,5.650011474609375,0.4955938756465912,0.06815221160650253,-0.05813492089509964
1772796622940003000,5.660003173828125,0.47804951667785645,0.08521561324596405,-0.04495520144701004
1772796622949995300,5.669995361328125,0.46953269839286804,0.1015709638595581,-0.02773302048444748
1772796622959988500,5.679988525390625,0.46962857246398926,0.11533151566982269,-0.01744123548269272
1772796622969980200,5.689980224609375,0.47877639532089233,0.12330978363752365,-0.003644065698608756
1772796622979971600,5.6999716796875,0.48787540197372437,0.12480861693620682,0.006843196228146553
1772796622989963500,5.709963623046875,0.5004412531852722,0.12148027867078781,0.022253429517149925
1772796622999955700,5.719955810546875,0.5110302567481995,0.11988798528909683,0.038978613913059235
1772796623009947600,5.72994775390625,0.5272719860076904,0.1318996250629425,0.05741560831665993
1772796623019939600,5.739939697265625,0.546344518661499,0.14471448957920074,0.07537916302680969
1772796623029931500,5.749931640625,0.5759750604629517,0.16965053975582123,0.08758395165205002
1772796623039923700,5.759923828125,0.6056546568870544,0.2065611630678177,0.1035461351275444
1772796623049915600,5.76991552734375,0.6311026215553284,0.24897168576717377,0.12573854625225067
1772796623059907600,5.779907470703125,0.6525546312332153,0.27525198459625244,0.15530122816562653
1772796623069900500,5.789900634765625,0.6783781051635742,0.2915944457054138,0.19352726638317108
1772796623079892700,5.799892822265625,0.7104856967926025,0.3145216107368469,0.23557618260383606
1772796623089884400,5.809884521484375,0.7386253476142883,0.33784252405166626,0.2836821973323822
1772796623099876600,5.819876708984375,0.7635564804077148,0.3824384808540344,0.32905659079551697
1772796623109868500,5.82986865234375,0.7984060645103455,0.47656723856925964,0.3830181658267975
1772796623119860700,5.83986083984375,0.8570789694786072,0.5243622064590454,0.45083290338516235
1772796623129852400,5.849852294921875,0.899884819984436,0.4757843017578125,0.49284276366233826
1772796623139844600,5.8598447265625,0.8870958089828491,0.31904447078704834,0.4527510106563568
1772796623149836500,5.86983642578125,0.8145902156829834,0.07391916960477829,0.3370428681373596
1772796623159828700,5.879828857421875,0.705691397190094,-0.18202364444732666,0.19064784049987793
1772796623169820700,5.889820556640625,0.5879433155059814,-0.3997012674808502,0.04150678589940071
1772796623179813600,5.899813720703125,0.4630855321884155,-0.6448657512664795,-0.09036469459533691
1772796623189805600,5.9098056640625,0.35520312190055847,-0.8555713891983032,-0.21827809512615204
1772796623199797500,5.919797607421875,0.30313992500305176,-0.9825311899185181,-0.3204473555088043
1772796623209789400,5.92978955078125,0.29576680064201355,-0.9602190256118774,-0.3755182921886444
1772796623219781600,5.93978173828125,0.3350580036640167,-0.8118777275085449,-0.38909587264060974
1772796623229773600,5.949773681640625,0.3842986226081848,-0.6211618781089783,-0.36391615867614746
1772796623239765800,5.959765869140625,0.4508664906024933,-0.39720842242240906,-0.29165956377983093
1772796623249757400,5.96975732421875,0.5360819101333618,-0.17707930505275726,-0.18374864757061005
1772796623259749600,5.97974951171875,0.6233923435211182,0.04543766379356384,-0.05831962451338768
1772796623269741600,5.989741455078125,0.6943173408508301,0.26622092723846436,0.08001641929149628
1772796623279733800,5.999733642578125,0.7500147819519043,0.4608921408653259,0.22343434393405914
1772796623289726500,6.0097265625,0.7624515891075134,0.6136468648910522,0.3491378128528595
1772796623299718700,6.01971875,0.7354010939598083,0.6884313225746155,0.4586501717567444
1772796623309710600,6.029710693359375,0.688953697681427,0.7036014199256897,0.5343209505081177
1772796623319702500,6.03970263671875,0.6300187706947327,0.6834332942962646,0.5638287663459778
1772796623329694500,6.049694580078125,0.5802328586578369,0.6348748207092285,0.5574650168418884
1772796623339686700,6.059686767578125,0.5475963950157166,0.5624186992645264,0.5179902911186218
1772796623349678600,6.0696787109375,0.5174362659454346,0.46706652641296387,0.45683324337005615
1772796623359670500,6.07967041015625,0.48045825958251953,0.3614562153816223,0.38106709718704224
1772796623369662500,6.089662353515625,0.4476190507411957,0.2513391971588135,0.29554036259651184
1772796623379654700,6.099654541015625,0.41472047567367554,0.1652461439371109,0.196026012301445
1772796623389646600,6.109646484375,0.387786328792572,0.09060028195381165,0.09987881779670715
1772796623399639600,6.1196396484375,0.3700203597545624,0.04147827997803688,0.009983017109334469
1772796623409631500,6.129631591796875,0.36352792382240295,0.018738042563199997,-0.06500807404518127
1772796623419623700,6.139623779296875,0.3677527606487274,0.036059509962797165,-0.12177787721157074
1772796623429615600,6.14961572265625,0.3761005997657776,0.07796350121498108,-0.16598333418369293
1772796623439607600,6.159607666015625,0.38025087118148804,0.1276351809501648,-0.1902143806219101
1772796623449599500,6.169599609375,0.3838382661342621,0.17119155824184418,-0.2004222869873047
1772796623459591700,6.179591796875,0.38793715834617615,0.20786088705062866,-0.19356970489025116
1772796623469583600,6.18958349609375,0.3874119222164154,0.2297467589378357,-0.17080529034137726
1772796623479575600,6.199575439453125,0.37613531947135925,0.23736552894115448,-0.14451642334461212
1772796623489567500,6.2095673828125,0.3595345914363861,0.24133507907390594,-0.11041872948408127
1772796623499559700,6.2195595703125,0.34125199913978577,0.2355126142501831,-0.07437284290790558
1772796623509552400,6.229552490234375,0.31733375787734985,0.2284829020500183,-0.052900977432727814
1772796623519544600,6.239544677734375,0.2962159514427185,0.22686131298542023,-0.04265952482819557
1772796623529536500,6.24953662109375,0.2796514332294464,0.22744297981262207,-0.04950825870037079
1772796623539528700,6.25952880859375,0.27297303080558777,0.22549700736999512,-0.06485871970653534
1772796623549520400,6.269520263671875,0.2616545557975769,0.21731345355510712,-0.09132196754217148
1772796623559512600,6.2795126953125,0.25012147426605225,0.18772625923156738,-0.11760656535625458
1772796623569504500,6.28950439453125,0.2452712506055832,0.17456364631652832,-0.13676351308822632
1772796623579496700,6.29949658203125,0.2603343725204468,0.17940661311149597,-0.1489754319190979
1772796623589488400,6.30948828125,0.27329593896865845,0.2075648307800293,-0.16237106919288635
1772796623599480600,6.31948046875,0.2741028964519501,0.24031798541545868,-0.170485720038414
1772796623609472500,6.329472412109375,0.2814783453941345,0.26650470495224,-0.1811693012714386
1772796623619465500,6.339465576171875,0.29373979568481445,0.26938357949256897,-0.18745756149291992
1772796623629457400,6.34945751953125,0.29985180497169495,0.22890691459178925,-0.19390642642974854
1772796623639449600,6.35944970703125,0.30232909321784973,0.15972144901752472,-0.19713684916496277
1772796623649441500,6.369441650390625,0.2984146475791931,0.10867127776145935,-0.1915174424648285
1772796623659433700,6.379433837890625,0.29660263657569885,0.09732700884342194,-0.1779976487159729
1772796623669425400,6.38942529296875,0.301025390625,0.1008150652050972,-0.1585707813501358
1772796623679417600,6.39941748046875,0.30758848786354065,0.10650277882814407,-0.14548401534557343
1772796623689409500,6.409409423828125,0.3167572617530823,0.1126384288072586,-0.13084831833839417
1772796623699401700,6.419401611328125,0.3185109496116638,0.11533354967832565,-0.11965212225914001
1772796623709393400,6.429393310546875,0.3209194540977478,0.10404875874519348,-0.1050473228096962
1772796623719385600,6.439385498046875,0.304394006729126,0.08384202420711517,-0.10347552597522736
1772796623729378600,6.449378662109375,0.29443812370300293,0.05097702518105507,-0.10532955080270767
1772796623739370500,6.45937060546875,0.27808496356010437,0.026043713092803955,-0.10599134117364883
1772796623749362400,6.469362548828125,0.2604067623615265,0.006222897674888372,-0.1136496514081955
1772796623759354600,6.479354736328125,0.23983943462371826,-0.012298056855797768,-0.12187270075082779
1772796623769346600,6.4893466796875,0.21591225266456604,-0.04521782323718071,-0.12804634869098663
1772796623779338500,6.49933837890625,0.19757214188575745,-0.0922417864203453,-0.12515468895435333
1772796623789330400,6.509330322265625,0.19242477416992188,-0.1146291196346283,-0.11526263505220413
1772796623799322600,6.519322509765625,0.19342559576034546,-0.10861836373806,-0.10111778974533081
1772796623809314600,6.529314453125,0.18589290976524353,-0.09077471494674683,-0.07844388484954834
1772796623819306500,6.539306396484375,0.17131397128105164,-0.07500587403774261,-0.05644404515624046
1772796623829298400,6.54929833984375,0.15499448776245117,-0.06468679755926132,-0.029481172561645508
1772796623839291600,6.559291748046875,0.13112644851207733,-0.06526470184326172,-0.003384323325008154
1772796623849283600,6.56928369140625,0.10597453266382217,-0.08438475430011749,0.029142092913389206
1772796623859275500,6.579275634765625,0.07338010519742966,-0.11372373253107071,0.06025686860084534
1772796623869267500,6.589267333984375,0.033587291836738586,-0.15171004831790924,0.09060979634523392
1772796623879259600,6.599259765625,-0.005846135318279266,-0.18885768949985504,0.11059015989303589
1772796623889251600,6.60925146484375,-0.039451420307159424,-0.2117588073015213,0.12322235852479935
1772796623899243500,6.619243408203125,-0.06311599910259247,-0.2219342142343521,0.1273273527622223
1772796623909235500,6.6292353515625,-0.0872209370136261,-0.22745472192764282,0.1281932145357132
1772796623919227600,6.6392275390625,-0.11303282529115677,-0.23375016450881958,0.12651249766349792
1772796623929219600,6.649219482421875,-0.14757269620895386,-0.23929034173488617,0.12127380073070526
1772796623939212500,6.659212646484375,-0.1850620061159134,-0.2504689693450928,0.10703068226575851
1772796623949204500,6.66920458984375,-0.2193434089422226,-0.27235445380210876,0.09082161635160446
1772796623959196700,6.67919677734375,-0.24390201270580292,-0.290866881608963,0.07289054989814758
1772796623969188400,6.689188232421875,-0.2627401053905487,-0.3060253858566284,0.05781251937150955
1772796623979181300,6.699181396484375,-0.2735064625740051,-0.3220703899860382,0.04100344702601433
1772796623989173200,6.70917333984375,-0.2842615246772766,-0.31641894578933716,0.027305297553539276
1772796623999165200,6.719165283203125,-0.2975909113883972,-0.27549469470977783,0.012380145490169525
1772796624009157000,6.7291572265625,-0.3177281618118286,-0.1660321056842804,0.053603146225214005
1772796624019149000,6.739149169921875,-0.3605765700340271,0.003982759080827236,0.19767563045024872
1772796624029141200,6.749141357421875,-0.4019772708415985,0.13435328006744385,0.33969083428382874
1772796624039133200,6.75913330078125,-0.4241675138473511,0.1780957132577896,0.4594145715236664
1772796624049125000,6.769125,-0.44082000851631165,0.05856680870056152,0.4999810457229614
1772796624059118300,6.779118408203125,-0.494369775056839,-0.1837848424911499,0.44174596667289734
1772796624069110300,6.7891103515625,-0.5778590440750122,-0.46783363819122314,0.2682977616786957
1772796624079102200,6.799102294921875,-0.6261492967605591,-0.6533036231994629,0.02075801230967045
1772796624089094100,6.80909423828125,-0.6012244820594788,-0.651464581489563,-0.23306579887866974
1772796624099086300,6.81908642578125,-0.5349642634391785,-0.4960978627204895,-0.4319218695163727
1772796624109078300,6.829078369140625,-0.46878689527511597,-0.27425795793533325,-0.5666361451148987
1772796624119070200,6.8390703125,-0.4345519542694092,-0.06016857549548149,-0.6459085941314697
