time,seconds_elapsed,z,y,x
1772795480296727600,0.0597275390625,0.08736381067633628,0.11926248537078499,0.15099533851165323
1772795480306719700,0.0697197265625,0.12731529731452465,0.09842712954767048,0.16469225728958845
1772795480316711700,0.079711669921875,0.07611702499687671,0.07129771508164703,0.16769447131287304
1772795480326704600,0.08970458984375,0.021801497441530225,0.016931918643787503,0.14732914415430276
1772795480336696600,0.099696533203125,-0.04487374547123909,-0.021952084893360733,0.12719846600182352
1772795480346688800,0.109688720703125,-0.061301733180880544,-0.07196260873116553,0.07232322220448405
1772795480356680700,0.1196806640625,-0.04995148712694645,-0.08683620660565793,0.05465356387067586
1772795480366672600,0.129672607421875,-0.021209376767277716,-0.09440729944705963,-0.006937178852036595
1772795480376665900,0.139665771484375,0.017940730360150335,-0.11427286038994788,-0.050966290192678565
1772795480386657800,0.14965771484375,0.016425065100193023,-0.1037901909507811,-0.07609605527408421
1772795480396649500,0.1596494140625,0.013545125749707222,-0.07608239207491278,-0.1011999187292531
1772795480406641700,0.1696416015625,0.029663316857814787,-0.06389817941486835,-0.12336199311148374
1772795480416633600,0.179633544921875,-0.005936404311656951,-0.03859115807041526,-0.11739533979203551
1772795480426626600,0.18962646484375,-0.024700141492486,-0.04830678865984082,-0.1127202971857041
1772795480436618800,0.19961865234375,-0.014181085565686225,-0.028713322656601665,-0.08233494966365397
1772795480446610700,0.209610595703125,-0.01927870096564293,0.007130290271341801,-0.06250256033800541
1772795480456603000,0.219602783203125,-0.0035059622943401335,0.012003814591839908,-0.04202635668348521
1772795480466594800,0.2295947265625,0.006171382111310958,0.03915010712742805,-0.020386844870634375
1772795480476586800,0.239586669921875,-0.008624620482325554,0.049844154294952744,-0.007813450229912996
1772795480486579700,0.249579833984375,-0.002495323947072029,0.026406945410370825,-0.007170841477438807
1772795480496572000,0.259572021484375,-0.012784078249335288,0.013133476208895444,0.0052617564531043165
1772795480506563600,0.2695634765625,-0.01743862605690956,-0.011984963760897516,0.018876805633865297
1772795480516555800,0.2795556640625,-0.012369067707657814,-0.041352877868711946,0.03767258192077279
1772795480526547700,0.289547607421875,-0.00699088180065155,-0.08040500451438129,0.03654514879342168
1772795480536540700,0.299540771484375,-0.008967734831571579,-0.08527297587692736,0.0475073453778401
1772795480546532600,0.30953271484375,0.017426351097226143,-0.07766213554702699,0.02621916775330901
1772795480556524800,0.31952490234375,0.015287000980973242,-0.07940605660490692,0.02417688480336219
1772795480566516700,0.329516845703125,0.01616378381550312,-0.06197276431024074,0.02867682657111436
1772795480576508700,0.3395087890625,0.0005909516304731368,-0.05380092909671366,0.0031902839412912723
1772795480586501600,0.349501708984375,-0.014551087921857834,-0.02155607131309807,0.003334478184953332
1772795480596493800,0.359493896484375,-0.0065104048073291775,-0.02057071353755891,-0.023733232689090073
1772795480606485500,0.369485595703125,-0.0064268181771039955,-0.005441168140619993,-0.0400017189880833
1772795480616477700,0.379477783203125,0.0018336451679468154,0.026787907551974056,-0.05716466990876942
1772795480626469600,0.3894697265625,0.013906944799423218,0.014274609068036079,-0.05325476645603776
1772795480636461800,0.3994619140625,-0.002101356193423271,0.02877389373742044,-0.07807320056594907
1772795480646454800,0.409454833984375,-0.01714753415584564,0.02892601555921137,-0.08243435491751878
1772795480656446700,0.41944677734375,-0.014005144476890562,0.01858122022077441,-0.08201678709257394
1772795480666439000,0.42943896484375,-0.009564531680941582,0.016462620631605387,-0.07834986208286136
1772795480676430600,0.4394306640625,-0.010078910943865775,0.00616970161087811,-0.06123648592494428
1772795480686422800,0.4494228515625,-0.013582535150647163,-0.01279847210086882,-0.03325980697982013
1772795480696415700,0.459415771484375,0.00473871895968914,-0.0224507551304996,-0.01545724298134446
1772795480706407700,0.46940771484375,-0.005351882421970367,-0.036999651095271105,0.01126399254258722
1772795480716399600,0.479399658203125,-0.0024245967984199523,-0.051352951422706246,0.03717793027162552
1772795480726391800,0.489391845703125,-0.007734978166222572,-0.057870224362239236,0.03424571274463087
1772795480736383700,0.4993837890625,0.0034457565397024155,-0.0346934930447489,0.04838131520077586
1772795480746376700,0.509376708984375,-0.007723872250318527,-0.03876125394031405,0.043142172438278795
1772795480756368600,0.51936865234375,-0.005028641816973686,-0.026093714742735027,0.03959565893784165
1772795480766360800,0.52936083984375,-0.0037450317472219464,-0.01412029528915882,0.042245625457353886
1772795480776352800,0.539352783203125,-0.01360007080733776,-0.01426131119504571,0.03744892923273146
1772795480786344700,0.5493447265625,-0.021034604722261426,-0.019388444950431585,0.030410701159015296
1772795480796336600,0.559336669921875,-0.016788637715578078,-0.012559183452278374,0.02116228622253984
1772795480806329600,0.56932958984375,-0.011338555616140365,-0.021248978125303984,0.007169489770568907
1772795480816321500,0.579321533203125,0.0067991586208343505,-0.03905176131948829,0.03119944038391113
1772795480826313700,0.589313720703125,-0.0017518121033906935,-0.04677453759126365,-0.007300313076004385
1772795480836305700,0.5993056640625,-0.005257189875841141,-0.058391106431186196,-0.0028718656418845055
1772795480846297900,0.6092978515625,-0.004174655336141586,-0.05091236804835498,-0.013741196311078965
1772795480856290800,0.619290771484375,-0.0045019875943660735,-0.04188106646127999,-0.012337284329906105
1772795480866282800,0.62928271484375,-0.010097615644335747,-0.05483450992815196,-0.028484409271553157
1772795480876275000,0.63927490234375,-0.010629530563950537,-0.04519632848910987,-0.02734196123816073
1772795480886266600,0.6492666015625,-0.003541618129611015,-0.038918563393875956,-0.03041647331267595
1772795480896258800,0.6592587890625,-0.012483049476146698,-0.010900675655528902,-0.017044512172788382
1772795480906251800,0.669251708984375,-0.012587678894400597,0.006535393118113279,-0.029862565756961702
1772795480916243700,0.67924365234375,-0.007439794611930847,0.009824205530434846,-0.04086874761357903
1772795480926235600,0.689235595703125,-0.009753332251310348,0.02232917457744479,-0.008938253008760512
1772795480936227800,0.699227783203125,-0.00125613754093647,0.02586414377056062,0.01808353636432439
1772795480946219800,0.7092197265625,-0.013814590340852737,0.022443448606878517,0.010728789687342942
1772795480956212700,0.719212646484375,0.003731587743759155,0.017433803751319647,-0.017493461516685783
1772795480966204700,0.72920458984375,0.010980828219652175,-0.0023796616781502963,-0.01639324518982321
1772795480976196900,0.73919677734375,0.0014934534281492232,-0.007379004335403442,-0.02215465826075524
1772795480986188500,0.7491884765625,-0.010815408524870871,-0.016079174271970986,-0.014156243385374545
1772795480996180700,0.7591806640625,-0.015345453169941901,-0.015233078836649655,-0.02407799100615084
1772795481006172700,0.769172607421875,-0.013568506625294685,-0.03208608702532947,-0.025407230315916237
1772795481016165600,0.77916552734375,-0.016148586246371267,-0.05059080794379115,-0.040253830585628744
1772795481026157600,0.789157470703125,-0.01246376025378704,-0.052456821011379356,-0.0369145300950855
1772795481036149800,0.799149658203125,-0.002069207489490509,-0.041516324802115555,-0.039146965322270987
1772795481046141700,0.8091416015625,-0.0008604162216186523,-0.02852634871713817,-0.029630327903665602
1772795481056133600,0.819133544921875,-0.009749240598082541,-0.017900763675943017,-0.028613880870118735
1772795481066126800,0.829126953125,-0.002379588612914085,-0.016328180596977472,-0.054219117976166305
1772795481076118800,0.839118896484375,0.006769932526350021,-0.013898469232022762,-0.025135427637211976
1772795481086110700,0.84911083984375,0.004807692542672157,0.001092617542296648,-0.02336103837583214
1772795481096102100,0.85910205078125,-0.0055599722146987916,-0.012206643687561154,-0.0023087518664076925
1772795481106094000,0.869093994140625,-0.007698153287172317,-0.012406769369542598,0.01038779422994703
1772795481116087300,0.87908740234375,-0.008315992924571037,-0.014584917126223444,0.02517824386563152
1772795481126079200,0.889079345703125,-0.011896774020791053,-0.014816826185956597,0.026279263910092412
1772795481136071200,0.8990712890625,-0.016194178953766823,-0.021328326971828935,0.04017459133695811
1772795481146063400,0.9090634765625,-0.010722469544410704,-0.013546660119667648,0.03535232227966189
1772795481156055300,0.91905517578125,0.001855272477865219,-0.01470437878742814,0.04132730503603816
1772795481166047200,0.929047119140625,-0.0007703998506069183,-0.0004243628919124603,0.032406514618732035
1772795481176040200,0.939040283203125,-0.011416881549358368,-0.0195728616066277,0.003406337844766676
1772795481186032400,0.949032470703125,-0.00526245057284832,-0.022835955055803058,0.0036058424722403286
1772795481196024000,0.959024169921875,0.001654196947813034,-0.02985788958184421,-0.0007325155256316066
1772795481206016300,0.969016357421875,-0.013269231417775154,-0.01578472137004137,-0.009363127357326447
1772795481216008200,0.97900830078125,-0.021930676779150962,-0.027985081447288392,0.0008079188494011759
1772795481226001200,0.989001220703125,-0.010127426260709761,-0.02380553074032068,-0.012809578016772865
1772795481235993000,0.9989931640625,-0.009866144976019859,-0.027339915411546824,-0.009863295431807636
1772795481245985300,1.0089853515625,-0.005146715238690376,-0.04043970854654908,-0.03687887425981462
1772795481255977200,1.018977294921875,0.004640519282221794,-0.04027165850326419,-0.040906522340700024
1772795481265969200,1.02896923828125,0.01064297456741333,-0.04724449319057166,-0.04556337170321494
1772795481275962000,1.038962158203125,0.014189853394031523,-0.07489332842081785,-0.052135991559177634
1772795481285954300,1.048954345703125,0.0022667758882045745,-0.07057634200453758,-0.04147263179086148
1772795481295946200,1.0589462890625,0.009921090033650397,-0.07164813595451414,-0.02209551195204258
1772795481305938200,1.068938232421875,-0.0014531214177608488,-0.05361804681047797,-0.01293747871275991
1772795481315930000,1.07893017578125,0.0006628478229045867,-0.04805580957345664,-0.027538177930004893
1772795481325922300,1.08892236328125,-0.009915829336643218,-0.04095452620089054,-0.012915668739750981
1772795481335915300,1.098915283203125,-0.008942600390315055,-0.014009455325827001,-0.004301569651439786
1772795481345907200,1.1089072265625,0.004012742772698402,0.004330430419743061,0.0066190528135746714
1772795481355899400,1.1188994140625,0.0018593641310930252,0.0028196605306118725,0.020788374876230954
1772795481365891300,1.128891357421875,-0.014489128601551056,0.030341143054142594,0.009356588018685578
1772795481375883000,1.138883056640625,-0.001173135432600975,0.029629122327268123,0.00871175077650696
1772795481385876200,1.148876220703125,-0.007135258707404136,0.024096111184731126,0.008707914851605892
1772795481395868400,1.158868408203125,-0.02952244708240032,0.028982421921566127,-0.005687799845449626
1772795481405860000,1.168860107421875,-0.014935118803381919,0.009810834592208266,0.004273877926915884
1772795481415852300,1.178852294921875,-0.014126140508055687,0.001088452823832631,-0.0038847690114751456
1772795481425844200,1.18884423828125,-0.010041501542925834,-0.01132036237232387,-0.005710121275112032
1772795481435837200,1.198837158203125,0.000761047500371933,-0.016416443402320145,0.006138831548579037
1772795481445829000,1.2088291015625,-0.007025953114032745,-0.03047499856688082,0.01795815641898662
1772795481455821300,1.2188212890625,-0.002855389431118965,-0.028235622142255303,0.020024039440229534
1772795481465813200,1.228813232421875,-0.005720131212472915,-0.032857875115424394,0.003712846510671079
1772795481475805200,1.23880517578125,-0.0028606501281261444,-0.02423442367687821,0.005987549977004528
1772795481485797000,1.248797119140625,-0.010788520517945288,-0.020182956328988075,-0.008555500768870114
1772795481495790300,1.258790283203125,0.005410334610939025,-0.02569382870495319,-0.018260500366427002
1772795481505782000,1.268781982421875,-0.001270166066288948,-0.03350976315289736,-0.004259484075382351
1772795481515774200,1.278774169921875,0.0025187048226594923,-0.029162381598353385,-0.0020374971769750116
1772795481525766100,1.28876611328125,-0.00012801029384136198,-0.018676643419265747,-0.013160766074620186
1772795481535758300,1.29875830078125,-0.0074240125209093085,-0.03485599013008177,-0.03478292489387095
1772795481545751300,1.308751220703125,0.01038636945784092,-0.034453912135213614,-0.025835940589383242
1772795481555743200,1.3187431640625,0.014590250888466834,-0.05501454267017543,-0.024252397724986077
1772795481565735200,1.328735107421875,-0.002602291452884674,-0.05665368817932903,-0.024404409948922692
1772795481575727000,1.33872705078125,0.00022328736186027524,-0.05929360822886228,-0.019536621249467135
1772795481585719000,1.348718994140625,-0.016149170768260956,-0.05296228631548583,-0.0191259580893442
1772795481595712300,1.358712158203125,-0.020741759255528448,-0.05054499604068696,-0.0035464769678190348
1772795481605704200,1.3687041015625,-0.010833528703451155,-0.0309676774546504,0.005084646320529282
1772795481615696100,1.378696044921875,0.010272972211241722,-0.01475399008281529,-0.013283040747419
1772795481625688300,1.388688232421875,0.020302783316373824,0.0011715279974043368,0.009587181904166936
1772795481635680300,1.39868017578125,-0.014269932892918585,0.00899718012176454,-0.006237104291282594
1772795481645673200,1.408673095703125,-0.016963409760594367,0.010256313337385654,-0.007349595577828586
1772795481655665200,1.4186650390625,-0.01273614745438099,0.020013664176687596,0.031409283742308614
1772795481665657300,1.4286572265625,-0.012062193715572357,0.021246566972509026,0.020452676648460327
1772795481675649300,1.438649169921875,-0.01390636027753353,0.03220342979468405,0.02270754290316254
1772795481685641200,1.44864111328125,-0.00820259567797184,0.004930588269978761,0.0268820521088317
1772795481695633200,1.458633056640625,0.010875029757618903,0.003143924048915505,0.022490393021143973
1772795481705626400,1.46862646484375,-0.010547112977504729,-0.00499795441776514,0.02421739947684109
1772795481715618000,1.4786181640625,-0.02326572477519512,-0.02153707435168326,0.0273532498171553
1772795481725610200,1.4886103515625,-0.02265606844425201,-0.02839242013916373,0.016578648226708174
1772795481735602200,1.498602294921875,0.0009825812965631483,-0.0357790232591331,0.01808401128835976
1772795481745594400,1.508594482421875,-0.006644844841957092,-0.025544191101193426,-0.013021211473457514
1772795481755587000,1.518587158203125,0.002623334240913391,-0.031800694212689995,-0.011216500139050185
1772795481765579300,1.528579345703125,-0.0004243628919124603,-0.014144552947580814,-0.04600172658786177
1772795481775571200,1.5385712890625,-0.0014098667979240416,0.001003404888883233,-0.060077671278640624
1772795481785563100,1.548563232421875,0.006860533419251442,0.010321852854266763,-0.06460000754129142
1772795481795555000,1.55855517578125,0.004484451937675476,0.0023546733673661946,-0.08100202055945992
1772795481805548300,1.56854833984375,-0.004060089045763015,0.007392667534574866,-0.07427366215251385
1772795481815540200,1.578540283203125,-0.011584639331698418,0.007911357646435498,-0.03938285643737763
1772795481825532200,1.5885322265625,-0.020460019704699513,-0.008313289510831236,-0.04417747030276805
1772795481835524400,1.5985244140625,-0.019942717832326887,-0.024454788429290057,-0.049172940502502024
1772795481845516300,1.608516357421875,-0.024238953721523283,-0.01677263642884791,-0.014434695000573991
1772795481855508200,1.61850830078125,-0.0006985036581754684,-0.03628120062761009,-0.017909166178107262
1772795481865501200,1.628501220703125,0.0005371756166219711,-0.022661840597912666,-0.0033305326621979473
1772795481875493400,1.638493408203125,0.014500819039344786,-0.023516411600634453,0.010077632302232086
1772795481885485000,1.648485107421875,-0.003259878578782081,-0.010783040625229477,0.019500527022778987
1772795481895477200,1.658477294921875,-0.021188918501138687,-0.0010962708041071891,0.021489837676472962
1772795481905469200,1.66846923828125,-0.03519932367503643,0.005469955843687057,0.02597147660255432
1772795481915462100,1.678462158203125,-0.019426000481843946,0.002103548150509596,0.034670075636543334
1772795481925454000,1.6884541015625,-0.013628127858042717,0.0171722302056849,0.028123978461325166
1772795481935446300,1.6984462890625,-0.010922960552573203,-0.010229863721877336,0.02996091156490147
1772795481945438200,1.708438232421875,0.013078677281737327,-0.019495193260535598,0.0415618079116568
1772795481955430100,1.71843017578125,0.0032902737170457837,-0.02880889198556542,0.0325379224460572
1772795481965422000,1.728422119140625,0.013277414724230765,-0.05706650676392019,0.03698226156905293
1772795481975415300,1.738415283203125,0.006198270118236542,-0.05889437977820634,0.03705006610825658
1772795481985407200,1.7484072265625,0.007194295418262481,-0.06345547714866698,0.025228147421963512
1772795481995399200,1.758399169921875,-0.006938859352469444,-0.047706996135786175,0.013159122106805443
1772795482005391000,1.76839111328125,-0.024186346751451492,-0.04623633906133472,-0.015642317224666476
1772795482015383300,1.77838330078125,-0.012716273710131645,-0.024019538817182183,-0.026738077060878274
1772795482025376300,1.788376220703125,-0.0056026423126459115,-0.020286124442517758,-0.010083587118983267
1772795482035368200,1.7983681640625,0.005844049853086471,-0.022125249503180382,-0.03389627825245261
1772795482045360400,1.8083603515625,0.015325579425692558,-0.013162556172907352,-0.05137377501502633
1772795482055352300,1.818352294921875,0.00891629690527916,0.013353767896071076,-0.03055018269494176
1772795482065344300,1.82834423828125,0.009219663766026497,0.020315131341293452,-0.03197079008258879
1772795482075337200,1.838337158203125,-0.009812368962168694,0.02409209259673953,-0.04666815460734069
1772795482085329400,1.848329345703125,-0.004456394886970519,0.04117021477818489,-0.04855437021274119
1772795482095321300,1.8583212890625,-0.023634558087587354,0.032825653346255416,-0.04126761073805391
1772795482105313500,1.8683134765625,-0.016048048481345174,0.02124766295105219,-0.04402582340501249
1772795482115305500,1.878305419921875,-0.0018815759629011153,0.011185995402932166,-0.0296053395928815
1772795482125297700,1.888297607421875,0.0014765022933483122,0.006137918233126402,-0.029003866568394005
1772795482135290600,1.89829052734375,-0.00011690437793731689,-0.014401304187625646,-0.012684453799761831
1772795482145282600,1.908282470703125,-0.005307458758354187,-0.013146627951413392,0.003097381493449211
1772795482155274500,1.9182744140625,-0.008526420804858208,-0.02859722199626267,0.010348594730719923
1772795482165266400,1.928266357421875,-0.004873158994317055,-0.021288652548566458,0.04205258710328489
1772795482175258400,1.93825830078125,-0.015707272219657897,-0.014296163312718272,0.0339340529795736
1772795482185251600,1.94825146484375,-0.015268296280503272,-0.02707761121354997,0.026306553775817153
1772795482195243500,1.958243408203125,-0.010741174244880676,-0.015116101393476128,0.013083207326382398
1772795482205235500,1.9682353515625,-0.01170388179719448,-0.006801350577920675,0.012616758858412503
1772795482215227600,1.9782275390625,-0.00949964975118637,-0.013388035491853951,0.017721096260100603
1772795482225219600,1.988219482421875,0.004987725284695625,-0.03648534489758312,0.0023368089171126485
1772795482235212500,1.998212646484375,0.0007920271605253219,-0.040327626474201676,-0.01125602843184024
1772795482245204500,2.00820458984375,-0.0028390228182077408,-0.04218063392974436,-0.014204393376037478
1772795482255196700,2.01819677734375,-0.0076771104991436,-0.04948562318086624,-0.003669080434180796
1772795482265188400,2.028188232421875,-0.009707739543914795,-0.057231488067284224,-0.0009592734862118959
1772795482275180500,2.0381806640625,-0.008923311167955398,-0.030139994458854198,-0.006719152187183499
1772795482285172500,2.04817236328125,-0.014276947155594825,-0.03793539757542312,-0.01597914796359837
1772795482295165400,2.05816552734375,-0.02056172651350498,-0.023252280771732328,-0.0373053925761953
1772795482305157400,2.068157470703125,0.004843932899832725,-0.019958572988584635,-0.05001187554467469
1772795482315149600,2.078149658203125,-0.005692074161767959,-0.017601488468423486,-0.04997282217592001
1772795482325141500,2.0881416015625,-0.011309914043545722,0.012148922150954604,-0.03241429606638849
1772795482335133400,2.098133544921875,0.0014344167172908782,0.02104812179096043,-0.035273959813825785
1772795482345126400,2.10812646484375,-0.005588029265403747,0.020878683508187532,-0.01814618980437517
1772795482355118600,2.11811865234375,-0.02605857036411762,0.022250848644226787,-0.018511369854956865
1772795482365110300,2.1281103515625,-0.005521978291869163,0.013407763105630873,0.0043678398206830026
1772795482375102500,2.1381025390625,-0.003493687334656715,0.012255451265349984,0.013078275422938167
1772795482385094400,2.148094482421875,0.00618482611477375,0.004938260119780898,-0.0015569471184164285
1772795482395087400,2.15808740234375,0.0046843584239482875,-0.007959799898043275,0.017300459695234895
1772795482405079600,2.16807958984375,-0.0024690204620361326,-0.012378127796947955,0.03155406250786036
1772795482415071500,2.178071533203125,-0.012867080357670783,-0.033342736022919414,0.022883995448611676
1772795482425063700,2.188063720703125,-0.01037935519516468,-0.04140234303362667,0.011493417384289205
1772795482435055600,2.1980556640625,-0.0029319617986679077,-0.03232742150053382,0.002403882803954184
1772795482445047600,2.208047607421875,-0.012821487650275229,-0.0375572119127959,-0.018019385086931287
1772795482455040500,2.21804052734375,0.0006423895567655563,-0.0471644136916846,-0.01638487922027707
1772795482465032700,2.22803271484375,0.0027127660900354384,-0.056125572651997205,-0.026339798458293078
1772795482475024400,2.2380244140625,-0.00961947673857212,-0.030932752271741627,-0.034384390562959014
1772795482485016600,2.2480166015625,-0.002245148578286171,-0.03574139466248452,-0.05232775127161294
1772795482495008500,2.258008544921875,0.012851882788538932,-0.006690802875533699,-0.04297653354778885
1772795482505001500,2.26800146484375,0.024461072039604185,0.00824256236217916,-0.05141443581897765
1772795482514993400,2.277993408203125,-0.0030067806005477904,0.00940386122651398,-0.05826108684334903
1772795482524985600,2.287985595703125,-0.006699205377697944,0.009168810361623763,-0.05614639624431729
1772795482534977500,2.2979775390625,0.003500701597332954,0.013589111021906136,-0.051590961429663
1772795482544969500,2.307969482421875,-0.023266893818974493,0.002267725736275315,-0.03765084501300007
1772795482554961400,2.31796142578125,-0.024434184032678604,-0.025670447829365728,-0.0230927793610841
1772795482564954600,2.32795458984375,-0.030973230412602422,-0.022442571824043987,0.006907550898753106
1772795482574946300,2.3379462890625,0.010085925206542015,-0.006097440092265606,0.03147138919308781
1772795482584938500,2.3479384765625,0.0011760580420494078,-0.007410276256501674,0.04763736496567726
1772795482594930400,2.357930419921875,-0.01281798051893711,-0.00880282659344375,0.034834034026600416
1772795482604922600,2.367922607421875,-0.0015314473509788513,-0.017521993491426108,0.03156706811990589
1772795482614915600,2.37791552734375,-0.03049450698494911,-0.03171396577730775,0.0533421159459278
1772795482624907500,2.387907470703125,-0.024868483796715735,-0.01729468754157424,0.052522031734697515
1772795482634899700,2.397899658203125,-0.02566343356668949,-0.0010817308221012353,0.05256674765925854
1772795482644891400,2.407891357421875,-0.0021796821266412735,-0.02734729500040412,0.05543010120112449
1772795482654883600,2.417883544921875,0.003845569512248039,-0.03141943981014192,0.053063299004547294
1772795482664875500,2.42787548828125,-0.006558335602283478,-0.038590865809470416,0.049910095670633016
1772795482674868500,2.437868408203125,0.0035679216146469114,-0.03945793096758425,0.028071115762926636
1772795482684860400,2.4478603515625,0.005025719207525253,-0.03856368554159999,0.021734058228507637
1772795482694852600,2.4578525390625,-0.011159107396006583,-0.034807913204655046,0.012296367797628044
1772795482704844500,2.467844482421875,-0.011463643300533293,-0.04245601680502295,-0.004092493478022516
1772795482714836500,2.47783642578125,-0.014570377144217491,-0.034591567040234805,-0.012367862131260334
1772795482724829400,2.487829345703125,-0.019317279410362244,-0.004890767716243863,-0.013730747982300817
1772795482734821600,2.497821533203125,-0.011190087056159972,0.00925195860043168,-0.02968804944027215
1772795482744813600,2.5078134765625,-0.0020347206979990005,-0.01170556229762733,-0.05746526029054075
1772795482754805500,2.517805419921875,0.001107084459066391,-0.006747428433597088,-0.0684290277775377
1772795482764797400,2.52779736328125,-0.00402677129805088,-0.008948884000629187,-0.0820543426239863
1772795482774790400,2.537790283203125,-0.024035540103912352,-0.00048537236414849757,-0.10376911163013428
1772795482784782300,2.5477822265625,-0.0199988319337368,0.0047118309527635575,-0.08494264794401823
1772795482794774500,2.5577744140625,0.00478314262330532,0.01527333778180182,-0.10592318439148365
1772795482804766500,2.567766357421875,-0.009667992055416106,0.028506255777180193,-0.09214370189663022
1772795482814758700,2.577758544921875,-0.013678396740555763,0.00508577883169055,-0.09123568367362021
1772795482824750300,2.587750244140625,0.008326514318585396,0.012071326870098709,-0.0694747009055689
1772795482834743600,2.59774365234375,0.0061871642023324964,-0.004325754244625568,-0.05363171000964939
1772795482844735700,2.60773583984375,0.007472527837753295,-0.009822086638584733,-0.030921317562274633
1772795482854727400,2.6177275390625,-0.0002519289344549179,-0.023795959194377065,0.007719926727563142
1772795482864719400,2.62771923828125,-0.005316811108589172,-0.0343202027529478,0.04734236407447606
1772795482874711600,2.637711669921875,0.0002589431971311569,-0.032677988503873344,0.06256411779951304
1772795482884704500,2.64770458984375,-0.00848667331635952,-0.034386034530773754,0.0988093337982893
1772795482894696400,2.657696533203125,0.01258358724117279,-0.03606733868122101,0.09739767690207808
1772795482904688600,2.667688720703125,0.007819733840227126,-0.02090067614428699,0.09874963950030505
1772795482914680600,2.6776806640625,-0.011077858853340148,-0.03164389621578157,0.09389566013049334
1772795482924672500,2.687672607421875,-0.010023965886235237,-0.017920199028775095,0.06732103000301867
1772795482934664400,2.69766455078125,-0.006039864686131477,-0.017191300232335924,0.07101038604024797
1772795482944657700,2.70765771484375,0.002496492990851402,-0.01979819479510188,0.07124828644935041
1772795482954649300,2.7176494140625,-0.011188918012380599,-0.01617255164384842,0.05652348592840135
1772795482964641500,2.7276416015625,-0.001911386579275131,-0.027456527528539297,0.02211421665251255
1772795482974633500,2.737633544921875,0.0018541034340858458,-0.03498275831490755,0.02443235740177333
1772795482984625700,2.747625732421875,-0.014148936861753463,-0.033437793895229696,0.012001074645482003
1772795482994618400,2.757618408203125,-0.013112579551339149,-0.02145034591630101,-0.02783949896413833
1772795483004610600,2.767610595703125,-0.0019324293673038482,-0.03241502671875059,-0.02886632126122713
1772795483014602500,2.7776025390625,0.0002256254494190216,-0.033095410198345776,-0.0680165379865095
1772795483024594400,2.787594482421875,-0.016681670209765433,-0.03218428670279681,-0.07544266939926893
1772795483034586400,2.79758642578125,-0.012553776624798774,-0.019167495676130054,-0.096677472868748
1772795483044578600,2.80757861328125,-0.00921907924413681,-0.015683891344070434,-0.09524590569566935
1772795483054571300,2.8175712890625,-0.008494272100925446,0.005304609214141965,-0.10367335963808
1772795483064563500,2.8275634765625,-0.01455868670642376,-0.007623626746237277,-0.0769885106017813
1772795483074555400,2.837555419921875,-0.023810499176383018,-0.0022862843062728642,-0.06675791622754186
1772795483084547600,2.847547607421875,-0.0070662851244211195,-0.01192841126807034,-0.05761961060203612
1772795483094539500,2.85753955078125,-0.014768530064821242,-0.007385653271898627,-0.052169199709035455
1772795483104532500,2.867532470703125,-0.004089899662137031,-0.016701397823542356,-0.0136604226924479
1772795483114524400,2.8775244140625,-0.005839958199858665,-0.018704846600443123,-0.011936558041907847
1772795483124516600,2.8875166015625,-0.018959552013874052,-0.009339929144829512,0.00745824358407408
1772795483134508300,2.89750830078125,-0.007201894202828407,-0.02330817567743361,0.030206958747841416
1772795483144500500,2.90750048828125,-0.009908230552077292,-0.020557634860277174,0.035280097293667496
1772795483154493700,2.91749365234375,0.001675239735841751,-0.00837488350495696,0.034200704559125
1772795483164485400,2.9274853515625,0.009307342049479484,-0.03052629036270082,0.04981094614509493
1772795483174477600,2.9374775390625,-0.006192424899339676,-0.018096359313279388,0.05623115191832184
1772795483184469500,2.947469482421875,0.004835749593377113,-0.022237112379819155,0.052328116597793996
1772795483194461700,2.957461669921875,-0.008802899658679962,-0.009900266441330314,0.037791860918886956
1772795483204453400,2.967453369140625,-0.022720950374007225,-0.019557956298440694,0.058581149110570545
1772795483214446600,2.977446533203125,-0.007614566656947135,-0.01678900304175913,0.06226791133191436
1772795483224438500,2.9874384765625,-0.008213117071986197,-0.014190145654976368,0.028142135172523557
1772795483234430500,2.997430419921875,-0.012124153035879135,-0.02622187116704881,0.00011354337707161903
1772795483244422400,3.00742236328125,0.010702011278271674,-0.02880428887568414,-0.01984597945958376
1772795483254414600,3.01741455078125,0.007159808626770973,-0.011932064529880881,-0.01718256893660873
1772795483264407300,3.0274072265625,0.01170037466585636,-0.022304040136188266,-0.04066679530069232
1772795483274399500,3.0373994140625,0.012650807258486748,-0.00166449914611876,-0.051784803501330315
1772795483284391400,3.047391357421875,0.005971475625038147,-0.014387275662273168,-0.06076258480288088
1772795483294383600,3.057383544921875,-0.0008539864808320999,-0.009428045819699764,-0.0625794614991173
1772795483304375300,3.067375244140625,-0.015301614028215407,-0.013672770717367529,-0.07059727519471198
1772795483314367500,3.077367431640625,-0.03678337799608707,-0.019195187400653957,-0.06111680506803095
1772795483324360400,3.0873603515625,-0.02266366722881794,-0.006979775884747505,-0.055780193280428644
1772795483334352400,3.097352294921875,-0.013963058900833129,0.001990735425800085,-0.053182870263606304
1772795483344344300,3.10734423828125,-0.021622633743286133,-0.00908675810135901,-0.05098371625151485
1772795483354336500,3.11733642578125,-0.020656419059634206,-0.018713906689733266,-0.03754961312822997
1772795483364328400,3.127328369140625,-0.011811433824896812,-0.03517828088700771,-0.02336271887626499
1772795483374321400,3.1373212890625,-0.003013210341334343,-0.03587437339238822,-0.013777984657511115
1772795483384313600,3.147313720703125,0.0002098433583974838,-0.03524593929573893,-0.014868410242721437
1772795483394305500,3.157305419921875,0.012221768191456794,-0.04701674884930253,0.005424143940582871
1772795483404297500,3.16729736328125,0.019421908828616143,-0.04706307220906019,0.027802783682942388
1772795483414289400,3.177289306640625,0.010168927314877509,-0.042804245720803734,0.04055716091375798
1772795483424282600,3.18728271484375,0.008154080361127853,-0.0408341146916151,0.06489573908485471
1772795483434274600,3.197274658203125,-0.003347556862235069,-0.028324615599960086,0.08719455505665391
1772795483444266500,3.2072666015625,0.007856558719277382,-0.030047201608866453,0.06837748025339097
1772795483454258400,3.217258544921875,-0.0013309563428163527,-0.00982194050811231,0.05694752002675086
1772795483464250600,3.227250732421875,-0.02193944460749626,0.0047098581913858645,0.07951408355664462
1772795483474242600,3.23724267578125,-0.021391163074970243,0.017521993491426108,0.061862326205708085
1772795483484235500,3.247235595703125,-0.015407997012138366,0.019518793331831694,0.025681444147415456
1772795483494227500,3.2572275390625,-0.013775427374243735,0.0270049113035202,0.010212364597804844
1772795483504219600,3.2672197265625,-0.025337854874134064,0.03491195810101926,0.010407046919688582
1772795483514211300,3.27721142578125,-0.007179682371020317,0.021126520789414644,-0.004845467269793152
1772795483524203500,3.28720361328125,-0.003450432714819908,0.010981558872014284,-0.03064545976296067
1772795483534196500,3.297196533203125,-0.004412555745244026,-0.005776537574827671,-0.035507403243519364
1772795483544188400,3.3071884765625,-0.0034890111595392223,-0.013195946985855697,-0.05002243347130716
1772795483554180400,3.317180419921875,0.02057867764830589,-0.008235182773321867,-0.05169803853332996
1772795483564172500,3.327172607421875,0.006471826362609863,-0.033521088264510036,-0.03926522140707821
1772795483574164500,3.33716455078125,0.002974631896615028,-0.042325887619331475,-0.03101228378135711
1772795483584156400,3.347156494140625,0.0012666589349508285,-0.04504062647074461,-0.0448684117089957
1772795483594149400,3.3571494140625,-0.001340308693051338,-0.04606763143092393,-0.027423209780827164
1772795483604141600,3.3671416015625,0.007163315758109092,-0.06058868954069912,-0.02067161662876606
1772795483614133200,3.37713330078125,-0.010054945546388626,-0.08301284892521799,-0.0010868819212540984
1772795483624125400,3.38712548828125,0.002653144857287407,-0.0720616851914674,-0.008025083686597646
1772795483634117400,3.397117431640625,-0.00725274760723114,-0.07851626815833151,-0.011310936956852674
1772795483644110300,3.4071103515625,-0.014016250392794609,-0.07145918925367295,-0.022114801174402236
1772795483654102500,3.4171025390625,-0.0017810381978750228,-0.05348287612348795,-0.015072298784367739
1772795483664094500,3.427094482421875,-0.007682371196150779,-0.05247033808007836,-0.010811791795678436
1772795483674086700,3.437086669921875,-0.013141805645823477,-0.04544065863899886,-0.027152174287103113
1772795483684078300,3.447078369140625,-0.00019523031115531922,-0.02040733966939151,-0.017347769435681403
1772795483694070500,3.457070556640625,-0.011077858853340148,-0.005264642529934645,-0.028092852670699355
1772795483704063500,3.4670634765625,-0.015191139391064644,-0.002021276694536209,-0.010307860861532389
1772795483714055400,3.477055419921875,-0.02077390795946121,0.012260785027593374,0.004283997462131083
1772795483724047400,3.48704736328125,-0.02632394330203533,0.0074436670694500206,0.002825030825473368
1772795483734039600,3.49703955078125,-0.019263503396511075,0.018154738437011837,0.0076447060668841
1772795483744031500,3.507031494140625,0.008475567400455474,0.025655834782123563,-0.012612703737802803
1772795483754024400,3.5170244140625,0.006306991189718246,0.013116744269803166,-0.006358063789829611
1772795483764016400,3.527016357421875,-0.004679682248830795,0.022566855790838596,-0.038923312634229656
1772795483774008600,3.537008544921875,0.0075146134138107295,0.018015256901085377,-0.01092712527103722
1772795483784000500,3.54700048828125,-0.008605331259965897,0.021407091296464204,-0.03590608370490372
1772795483793992400,3.556992431640625,-0.00787058724462986,0.024159385679289696,-0.003123319652304053
1772795483803984400,3.566984375,0.011387655454874038,0.03321048794537782,-0.01712692975923419
1772795483813977600,3.5769775390625,-0.002159223860502243,0.03988645857796073,-0.009398710127361118
1772795483823969300,3.58696923828125,-0.007198971593379974,0.03949095645435154,-0.005942066867463291
1772795483833961500,3.59696142578125,0.0006394669473171234,0.004584551311284303,-0.009503047284670173
1772795483843953400,3.606953369140625,-0.01220364801287651,-0.001987009098753333,0.02478442224245518
1772795483853945600,3.616945556640625,-0.004926350486278533,-0.038526203075423836,0.030149237211234865
1772795483863938600,3.6269384765625,-0.03029927667379379,-0.0687524145130068,0.07164937806352972
1772795483873930500,3.636930419921875,-0.02678630011677742,-0.07929433985874057,0.0883920577455312
1772795483883922700,3.646922607421875,-0.016190671822428702,-0.1189708820130676,0.08369801817778498
1772795483893914400,3.656914306640625,-0.00402326416671276,-0.12806575035564602,0.09724873341806232
1772795483903906600,3.666906494140625,0.0004559270739555359,-0.12948358126431703,0.08787128527443855
1772795483913899500,3.6768994140625,-0.005891980648040771,-0.12870353680253027,0.07306947399452328
1772795483923891500,3.686891357421875,-0.005101122531294822,-0.1102676433365792,0.06371365316081792
1772795483933883400,3.69688330078125,0.004153028026223182,-0.10765870294719934,0.042246283044479783
1772795483943875600,3.70687548828125,0.010495090529322624,-0.08593048993758856,0.0127429790539667
1772795483953867500,3.716867431640625,0.010271218645572662,-0.04502111805267632,0.002187719302624464
1772795483963859500,3.726859375,0.01407587162554264,-0.008817147379741073,-0.03213591751642525
1772795483973852400,3.736852294921875,0.02220949372053146,0.004515723858773708,-0.024803200008161365
1772795483983844600,3.7468447265625,0.014276947155594825,0.05200966176576912,-0.03223762432523072
1772795483993836300,3.756836181640625,-0.006315759018063545,0.06160831491202116,-0.04311667267084122
1772795484003828500,3.766828369140625,-0.024444120904803274,0.05786605964377522,-0.046606999004632235
1772795484013820400,3.7768203125,-0.015136194333434104,0.06844627117328346,-0.07153470217529684
1772795484023813400,3.7868134765625,-0.019957915401458737,0.07071611580140888,-0.07873042236566544
1772795484033805300,3.796805419921875,-0.018267478096485136,0.04156140605285764,-0.08404091333132237
1772795484043797500,3.806797607421875,-0.009566869768500328,0.02761836702674627,-0.08812317767627537
1772795484053789400,3.81678955078125,0.011219897672533988,0.022546105263754723,-0.06696684627048671
1772795484063781400,3.826781494140625,0.005047931039333343,0.0022906682204455135,-0.08042593770455568
1772795484073773300,3.836773193359375,0.007573650124669075,-0.0069046648219227786,-0.06441949987523257
1772795484083766500,3.8467666015625,0.0054845688909292215,-0.02306223809234798,-0.055360177770070726
1772795484093758500,3.856758544921875,0.0017898060262203216,-0.027041809247806668,-0.05427925066556781
1772795484103750700,3.866750732421875,0.019097499179840088,-0.027941899892687794,-0.021175474497675893
1772795484113742600,3.87674267578125,0.009365794238448142,-0.01893792470395565,-0.016785386312566698
1772795484123734500,3.886734619140625,0.004595511096715927,-0.009718480133637785,-0.011333952506259083
1772795484133727500,3.8967275390625,0.010443068081140518,-0.021927096582576633,-0.0038738457586616273
1772795484143719700,3.9067197265625,0.011338555616140365,-0.024882731517776844,0.0010943345753476022
1772795484153711600,3.916711669921875,-0.006665303108096122,-0.02827690400071442,-0.01968545513562858
1772795484163703800,3.926703857421875,-0.013016717961430549,-0.026244959781691432,-0.02455251318272203
1772795484173695500,3.936695556640625,-0.006481178712844848,-0.03670461367145181,-0.012477569583430886
1772795484183687700,3.946687744140625,-0.016102993538975714,-0.060629752203449606,-0.03487904221210628
1772795484193680600,3.9566806640625,-0.01643091031908989,-0.06260645910389721,-0.0183192082837224
1772795484203672600,3.966672607421875,-0.015234978532791137,-0.07861753657571971,0.0024767288444563747
1772795484213664500,3.97666455078125,-0.005535422295331955,-0.0848275701969862,0.009826543617993592
1772795484223656700,3.98665673828125,-0.0018500117808580398,-0.08963716243579983,0.03101034755259752
1772795484233648600,3.996648681640625,-0.00029050737917423245,-0.07134623039849101,0.02848079254236072
1772795484243641600,4.0066416015625,-0.005526069945096969,-0.07504121245890856,0.049893582927249366
1772795484253633500,4.016633544921875,0.02344926464855671,-0.05271554501280188,0.04673511889632791
1772795484263625700,4.026625732421875,0.0009153612792491912,-0.03263743729777634,0.06719378689415753
1772795484273617400,4.036617431640625,0.016505729120969773,-0.03837693079784512,0.06594236206095665
1772795484283609600,4.046609619140625,0.011155600264668464,-0.03129924749657512,0.07147745556272565
1772795484293601500,4.0566015625,0.013600655329227447,-0.018863252032548187,0.11173314931187778
1772795484303594500,4.066594482421875,0.008331190493702888,-0.022132921352982518,0.1039920336658135
1772795484313586400,4.07658642578125,-0.013476736688613891,-0.019951558725908397,0.10857015523631125
1772795484323578600,4.08657861328125,-0.002426350364089012,-0.012588701807707547,0.10473276903051883
1772795484333570600,4.096570556640625,-0.01851882250905037,-0.006858122266456484,0.11358400134295224
1772795484343562500,4.1065625,0.002317629292607307,-0.013270546592026948,0.10742518645226955
1772795484353555700,4.1165556640625,0.013075170150399208,-0.008439180912822485,0.06362568261642008
1772795484363547600,4.126547607421875,0.01357961254119873,-0.0111180447332561,0.062450830150768154
1772795484373539600,4.13653955078125,0.004995908591151237,0.003014671646058559,0.019534137031435965
1772795484383531500,4.146531494140625,-0.008218962290883064,0.004047521825134754,0.006576053922064602
1772795484393523700,4.156523681640625,0.001440261936187744,-0.005821911086514591,-0.01392714733723551
1772795484403516400,4.166516357421875,-0.017531565037369728,-0.00442176196500659,-0.059355750212259584
1772795484413508600,4.176508544921875,-0.0135112234801054,-0.022619024369493125,-0.07358798144329338
1772795484423500500,4.18650048828125,0.00003507131338119507,-0.025297595928981897,-0.09611476095207035
1772795484433492700,4.19649267578125,0.011422142246365546,0.0027990561340004204,-0.11254545207545161
1772795484443484700,4.206484619140625,-0.004819967502355575,0.0006484539713710546,-0.12117051094919443
1772795484453476600,4.2164765625,0.010725392153859137,0.021846432561799883,-0.12079546709172427
1772795484463469600,4.226469482421875,-0.002691138780117035,0.04417699537873268,-0.11596936210952699
1772795484473461500,4.23646142578125,-0.003168693163990974,0.05930946338512003,-0.12909030763041227
1772795484483453400,4.246453369140625,0.001547229442000389,0.06993548681773244,-0.10671002392023801
1772795484493445600,4.256445556640625,-0.008851414975523948,0.05734649274908006,-0.09835716958399862
1772795484503437600,4.2664375,0.0007996259450912475,0.03382365140765905,-0.0881537920102477
1772795484513430500,4.276430419921875,-0.0016588731229305266,0.001522898718342185,-0.07246420157775282
1772795484523422500,4.28642236328125,-0.011247370201349258,-0.04045483305044472,-0.0560066955126822
1772795484533414700,4.29641455078125,-0.013483166429400444,-0.06269866743199527,-0.045920697240903974
1772795484543406600,4.306406494140625,0.003466799327731132,-0.08959807253442705,-0.04478679784014821
1772795484553398500,4.3163984375,-0.004240121787786483,-0.11503894939161836,-0.02553220840245485
1772795484563390500,4.326390380859375,-0.006515665504336357,-0.11561404586583375,-0.01166296526491642
1772795484573383700,4.3363837890625,-0.014309680381417274,-0.11043313609659672,-0.004448978765495121
1772795484583375600,4.346375732421875,-0.027031799310445782,-0.11025675661638379,0.0221658737745136
1772795484593367600,4.356367431640625,-0.01969078889787197,-0.08109379049614071,-0.014104476665519177
1772795484603359700,4.36635986328125,-0.009370470413565635,-0.039857597809657454,0.008954948415234684
1772795484613351700,4.3763515625,-0.015702011522650716,-0.035618864261358976,0.009160152131132781
1772795484623344600,4.3863447265625,0.002026537391543388,0.0059874769117683165,0.02130337519366294
1772795484633336600,4.396336669921875,0.006262567526102066,0.031141938043013212,0.01336257225703448
1772795484643328800,4.406328857421875,-0.011553075149655341,0.05165222663022578,0.029934352351538834
1772795484653320400,4.416320556640625,0.00575870965719223,0.06315284094028174,0.03434570252038538
1772795484663312600,4.426312744140625,0.00837561415731907,0.0708822661485523,0.04378237003795803
1772795484673304600,4.4363046875,0.011441431468725205,0.06944288099519907,0.05863390221111476
1772795484683297500,4.446297607421875,0.001934182932972908,0.026183804178982972,0.04698138527497649
1772795484693289500,4.45628955078125,0.01591594653427601,0.00017776771970093248,0.08697722251154481
1772795484703281700,4.46628173828125,0.01106207676231861,-0.05741933878958225,0.09781144533473998
1772795484713273600,4.476273681640625,0.0017465514063835143,-0.09937800053171814,0.11184749640654772
1772795484723265500,4.486265625,0.018109657186269758,-0.1462727304365486,0.13725666295122355
1772795484733258500,4.496258544921875,0.006149754801392555,-0.16814130176492034,0.14507098996397108
1772795484743250700,4.506250732421875,0.002539163088798523,-0.18107538294419645,0.15546718669608234
1772795484753242400,4.516242431640625,-0.019190438160300253,-0.1717095156405121,0.1125466941844672
1772795484763234600,4.526234619140625,-0.01913432405889034,-0.12936645769067107,0.09315773777738214
1772795484773226500,4.5362265625,-0.010196984365582466,-0.09049458298273384,0.04987451290059834
1772795484783219500,4.546219482421875,-0.00002221183180809021,-0.02795468630902469,0.011974259703792631
1772795484793211600,4.556211669921875,0.006392915907502174,0.02891352140381932,-0.014765315194427966
1772795484803203600,4.56620361328125,0.0039344168394804,0.08224157229177653,-0.07051672077178954
1772795484813195800,4.57619580078125,0.009637012395262717,0.12924677683375774,-0.1080202662685886
1772795484823187700,4.586187744140625,-0.015903087052702904,0.12280761063173412,-0.14161452936716376
1772795484833179400,4.596179443359375,-0.018970657929778097,0.12139686705097555,-0.14885474628638476
1772795484843172600,4.606172607421875,-0.010486322700977324,0.09882701558545232,-0.14315748449284582
1772795484853164800,4.616164794921875,0.00835632493495941,0.05695435162633657,-0.1168112562937662
1772795484863156500,4.626156494140625,-0.0039034371793270108,-0.0010044278021901845,-0.1135526198239997
1772795484873148700,4.636148681640625,0.00561667083799839,-0.06204224934987723,-0.07050382475759834
1772795484883140600,4.646140625,-0.004540566039085388,-0.10402538794614374,-0.033172092163749035
1772795484893133600,4.656133544921875,-0.017838439029455182,-0.13858312578201293,-0.0040351372675970195
1772795484903125500,4.66612548828125,-0.014469254857301711,-0.16396189718842505,-0.00615863222759217
1772795484913117700,4.67611767578125,-0.016090718579292295,-0.13635909305699168,0.013228826342150567
1772795484923109600,4.686109619140625,-0.026561259189248083,-0.12011829848252237,0.018727058432251215
1772795484933101600,4.6961015625,-0.017009586989879606,-0.0939244113009423,0.018432861258648334
1772795484943093500,4.706093505859375,-0.004492050722241401,-0.058187035226449364,0.02414272680543363
1772795484953086700,4.716086669921875,0.009138999745249747,-0.006154577106982469,0.023779519516229627
1772795484963078400,4.726078369140625,0.003941431102156639,0.013432459155470132,0.036421230152808126
1772795484973070600,4.736070556640625,0.004099252012372017,0.03528437160998583,0.045527752400562164
1772795484983062500,4.7460625,-0.012395955714583396,0.06473791817463934,0.041586394363641734
1772795484993054700,4.7560546875,-0.02356909163594246,0.04505195158235729,0.053085839629918335
1772795485003047700,4.766047607421875,-0.027295418682694434,0.04315598176792264,0.025622772762738166
1772795485013039600,4.77603955078125,-0.02703238383233547,0.02483874624557793,0.031171748659387228
1772795485023031600,4.786031494140625,-0.027681203129887578,0.002949570520594716,0.02863558124527335
1772795485033023500,4.7960234375,-0.01383271051943302,-0.022553411787375806,0.03246825474333018
1772795485043015400,4.806015380859375,-0.015386954224109649,-0.03553111291266978,0.007486117971688509
1772795485053007600,4.816007568359375,-0.0027127660900354384,-0.0634300504464656,0.005300115702114999
1772795485063000600,4.82600048828125,0.012846037569642066,-0.08873115350678562,0.012069500239193438
1772795485072992500,4.835992431640625,0.01333645143508911,-0.08735255862995982,0.005338036559708416
1772795485082984700,4.845984619140625,0.00577916792333126,-0.08131415524855255,0.01122435465194285
1772795485092977000,4.855976806640625,0.011411620852351189,-0.0626542437683791,-0.0020464111357927322
1772795485102968600,4.865968505859375,-0.003723404437303543,-0.043308541981130835,-0.01542133141774684
1772795485112961800,4.8759619140625,0.005094108268618583,-0.03255487358085811,-0.013337145554833113
1772795485122953700,4.88595361328125,0.002834346643090248,-0.0056921472270041705,-0.026303521568514406
1772795485132945700,4.895945556640625,0.009247136294841765,0.012695303987339139,-0.027562399055808783
1772795485142937600,4.9059375,0.01623568000793457,0.02013466020785272,-0.03596311112176627
1772795485152929800,4.9159296875,-0.002093172886967659,0.011175912400335072,-0.03379164883419871
1772795485162921700,4.925921630859375,-0.00922083280980587,0.006595671937987208,-0.057710467223264277
1772795485172914700,4.935914794921875,-0.007530395504832268,-0.003473594394698739,-0.05810381392240524
1772795485182906600,4.94590673828125,-0.033252281260490416,-0.011706439080461858,-0.06787731217890977
1772795485192898800,4.95589892578125,0.003877718216180801,-0.025312428171932695,-0.07285849812496453
1772795485202890800,4.965890869140625,0.0037339258313179016,-0.02257416231445968,-0.0863141920255497
1772795485212882700,4.975882568359375,-0.003141805157065391,-0.03182246765308082,-0.10810085722412914
1772795485222876000,4.9858759765625,-0.005241992306709289,-0.024894421955570577,-0.09344499375354498
1772795485232867800,4.995867919921875,-0.0024421324551105496,-0.01897979108430445,-0.07328950995337218
1772795485242859500,5.005859619140625,-0.01467325299680233,-0.012010974984988569,-0.06167604638598859
1772795485252851700,5.015851806640625,-0.03250467776358128,-0.020112959832698105,-0.03385112393647432
1772795485262843600,5.02584375,-0.027350363740324974,-0.01650733655616641,-0.007457001475058496
1772795485272835800,5.0358359375,-0.005454173752665519,-0.035989962596073746,0.0062448492063209415
1772795485282828800,5.045828857421875,-0.004816460371017456,-0.05428885874412954,0.03741082571204751
1772795485292820700,5.05582080078125,0.00003857844471931457,-0.04466105256862938,0.04331497172191739
1772795485302813000,5.06581298828125,-0.0044803602844476695,-0.06200907773263752,0.054852410911023615
1772795485312804600,5.0758046875,-0.015081249275803565,-0.07896766518764198,0.057851483129151164
1772795485322796800,5.085796875,-0.0003372691303491592,-0.05769742507860064,0.03756079210937023
1772795485332789800,5.095789794921875,0.0004091653227806091,-0.07360321554504334,0.02641724760867655
1772795485342781700,5.10578173828125,0.0012245733588933945,-0.060318421231955285,0.0465183343404904
1772795485352773600,5.115773681640625,0.016033435434103013,-0.041979266138747334,0.04386829475574195
1772795485362765800,5.125765869140625,0.0028898762226104734,-0.035262598169595004,0.04773870644830167
1772795485372757800,5.1357578125,0.008483750706911087,-0.03845985984094441,0.045457207915000616
1772795485382750700,5.145750732421875,0.0033130700707435607,-0.029901874854043123,0.027506540682725608
1772795485392742700,5.15574267578125,0.0005009352594614029,-0.050383960260078305,-0.010018741721846162
1772795485402734800,5.16573486328125,0.002861234650015831,-0.05411788609139621,0.0007299582423642277
1772795485412726500,5.1757265625,-0.005346037203073501,-0.043653117635101074,-0.0064731415368616575
1772795485422718700,5.18571875,-0.011512158617377281,-0.006502513761818408,-0.018217428409680724
1772795485432710700,5.195710693359375,-0.012033552142977714,0.0006182049635797738,-0.027536095570772884
1772795485442703600,5.20570361328125,-0.00512041175365448,0.03322195918746292,-0.02633662012051791
1772795485452695600,5.215695556640625,-0.008107318609952925,0.046157428606227034,-0.03179762547276914
1772795485462687700,5.225687744140625,0.009678513449430465,0.05049691911526024,-0.024478096239641308
1772795485472679700,5.2356796875,-0.00756254420876503,0.039508930502459405,-0.00957592985779047
1772795485482671600,5.245671630859375,-0.013116671204566955,0.030797873845696447,-0.014210676986351608
1772795485492663600,5.25566357421875,-0.0019008651852607725,0.0010440291602164507,0.03414838984999805
1772795485502656800,5.26565673828125,-0.0069277534365653985,-0.02064494781754911,0.05322751312293112
1772795485512648700,5.275648681640625,-0.005156067588925361,-0.044987361913546915,0.05196750312447548
1772795485522640600,5.285640625,-0.005668693286180496,-0.0754789462890476,0.04536481692381203
1772795485532632800,5.2956328125,-0.01401098969578743,-0.09254632788076997,0.03456343692429364
1772795485542624800,5.305624755859375,-0.017812135544419287,-0.09662921328023076,0.0033460224922746418
1772795485552617700,5.31561767578125,0.004292728757858276,-0.09247581992782652,-0.018319719740375877
1772795485562609700,5.325609619140625,0.013210194706916808,-0.08428528001382947,-0.01446169260535389
1772795485572601900,5.335601806640625,0.011169628790020942,-0.05964673251546919,-0.04108381513636559
1772795485582593800,5.34559375,0.007423427999019622,-0.041122722374647855,-0.05381495762206614
1772795485592585700,5.355585693359375,0.014098667979240417,-0.011161372418329119,-0.044915246525406835
1772795485602578700,5.36557861328125,0.011900281152129173,-0.022236527857929466,-0.0437430609408766
1772795485612571000,5.37557080078125,0.002621580675244331,-0.0029304274287074803,-0.05256210801675915
1772795485622562600,5.3855625,-0.007438625568151474,-0.0129022978015244,-0.05687547770384699
1772795485632554800,5.3955546875,-0.010072481203079223,-0.020478505209460852,-0.048839982221089304
1772795485642546700,5.405546630859375,-0.012443886509537696,-0.01764642358869314,-0.06448149572815745
1772795485652539000,5.415538818359375,0.012260931158065796,-0.02270304939113557,-0.047550198138877744
1772795485662531600,5.425531494140625,0.00958382090330124,-0.021200608938932417,-0.04810454408600926
1772795485672523800,5.435523681640625,-0.019730536386370658,-0.03314787103794515,-0.022052951451949774
1772795485682515700,5.445515625,-0.0230009363591671,-0.03788132930062711,-0.03183240452520549
1772795485692507600,5.455507568359375,-0.03178396227359771,-0.03280870221145451,-0.004703099657036364
1772795485702499600,5.46549951171875,-0.024834581527113913,-0.03554609128609299,0.01868997782487422
1772795485712492800,5.475492919921875,-0.009812368962168694,-0.03076521368511021,0.027213183759339152
1772795485722484700,5.485484619140625,-0.006292378142476082,-0.015383885484188795,0.032298268471285696
1772795485732476700,5.4954765625,0.018480244064331054,-0.0006732230864465236,0.04988156369589269
1772795485742468900,5.50546875,-0.007004325804114342,0.01019376949518919,0.03582330079227686
1772795485752460800,5.515460693359375,-0.0007534487158060073,0.01874554393701255,0.05755798007529229
1772795485762452500,5.525452392578125,-0.005550035342574119,0.014136954163014888,0.045617622641101474
1772795485772445700,5.53544580078125,-0.020659926190972327,0.00022401801422238348,0.05771284184344112
1772795485782438000,5.54543798828125,-0.0022007249146699906,0.00008439034782350063,0.04042593574952334
1772795485792429600,5.5554296875,-0.008371522504091263,-0.007813596360385417,0.04186206949986517
1772795485802421800,5.565421875,0.01856324617266655,-0.016140183744207025,0.019947211344353854
1772795485812413700,5.57541357421875,0.005745850175619125,-0.044973187257722015,0.0014387640988454222
1772795485822406700,5.58540673828125,0.01852700581550598,-0.058865080618485804,-0.006234327812306583
1772795485832398600,5.595398681640625,0.016640169155597687,-0.057682300574705005,-0.018640841453522444
1772795485842390800,5.605390869140625,-0.014470423901081084,-0.05782112452350557,-0.02120736747328192
1772795485852382700,5.6153828125,0.005379354950785636,-0.06392945133596659,-0.03790500243715942
1772795485862374700,5.625374755859375,-0.0035533085674047467,-0.057034650320932266,-0.0401671386828646
1772795485872366600,5.63536669921875,-0.008484335228800773,-0.04359473851136863,-0.03293371683061123
1772795485882359800,5.64535986328125,0.006154430976510048,-0.011393792934715747,-0.038783063913322986
1772795485892351700,5.655351806640625,-0.01246200668811798,-0.013692206070199608,-0.03443045819438994
1772795485902343700,5.66534375,-0.012256254982948302,-0.026743995345011352,-0.02632624485697597
1772795485912335600,5.675335693359375,-0.011788052949309348,-0.024827786460146307,-0.018270912162587045
1772795485922327800,5.685327880859375,-0.007442132699489593,-0.028627178743109105,-0.0161238171312958
1772795485932320800,5.69532080078125,-0.003972995284199714,-0.03625599312111735,-0.02087422652877867
1772795485942312700,5.705312744140625,-0.0008048866420984267,-0.037460181279107926,-0.011868716970086096
1772795485952304600,5.7153046875,-0.012711597535014153,-0.04523980230465531,-0.010912914082594215
1772795485962296800,5.725296875,-0.004942132577300072,-0.038146263847127555,-0.016946568223647773
1772795485972288500,5.73528857421875,-0.009283961173892021,-0.03034713440351188,0.02434161037839949
1772795485982280700,5.74528076171875,-0.016315759506821632,-0.032231486845389005,0.016242584672756494
1772795485992274000,5.75527392578125,-0.0009007482320070266,-0.012156301739811897,0.01962645495738834
1772795486002265600,5.765265625,-0.018979425758123395,0.006423603306710719,0.021782390882261096
1772795486012257800,5.7752578125,-0.02300268992483616,0.014740473014116287,0.025543570046685636
1772795486022249700,5.785249755859375,-0.019075287348031995,0.020515841545164584,0.01909994686525315
1772795486032242000,5.795241943359375,0.009983049353957175,0.0529836944296956,-0.004550649041682482
1772795486042234600,5.805234619140625,0.0004717091649770736,0.03334514717571437,-0.019486681160517036
1772795486052226800,5.815226806640625,-0.007239303603768349,0.023486308723315596,-0.019070976499095556
1772795486062218800,5.82521875,0.0076245035290718076,0.01286678809672594,-0.021542261983454228
1772795486072210700,5.835210693359375,-0.009394435811042785,-0.0020806056663393974,-0.03137585639674216
1772795486082202600,5.84520263671875,-0.015655249771475793,-0.029849267883971332,-0.009005436493456363
1772795486092194800,5.85519482421875,-0.004864975687861442,-0.038315921325609084,-0.021020831925235687
1772795486102187300,5.865187255859375,0.005776245313882827,-0.04387245947420597,-0.01623838342167437
1772795486112179000,5.875178955078125,-0.008703530937433243,-0.051900794563814995,-0.01844685325138271
1772795486122171100,5.885171142578125,-0.011692775881290435,-0.07209376083016396,-0.022963892284408212
1772795486132163000,5.8951630859375,-0.00824877290725708,-0.06306560104824602,-0.00925250658970326
1772795486142155300,5.9051552734375,-0.012011924833059311,-0.03288322875238955,-0.012133286190405487
1772795486152148200,5.915148193359375,0.003193243083357811,-0.026219898405671117,-0.025600962789729235
1772795486162140200,5.92514013671875,0.005372340688109397,-0.034598142911493775,-0.0013715440815314649
1772795486172132000,5.935132080078125,0.007843699237704277,-0.02620776957646012,-0.008228058912791311
1772795486182124000,5.9451240234375,0.002530395260453224,-0.031291356451064345,0.01012640334740281
1772795486192116000,5.955115966796875,0.0012549684971570967,-0.018414777612686156,0.024814634717628358
1772795486202109200,5.965109130859375,-0.0012415244936943054,-0.03359408043548465,0.038198578556254505
1772795486212101000,5.97510107421875,-0.026160861694812774,-0.030508389379829165,0.0475492117581889
1772795486222093000,5.985093017578125,-0.013193243572115897,-0.04116984945200383,0.03375000164955854
1772795486232085200,5.995085205078125,0.0005693243205547332,-0.02707936477921903,0.011656279795803129
1772795486242077200,6.0050771484375,-0.00599134936928749,-0.01576703958287835,0.021245361396111547
1772795486252069000,6.015069091796875,-0.01777063449025154,-0.020968261487782,0.0070066273590549824
1772795486262062000,6.02506201171875,-0.007521627676486968,0.00168846454359591,0.006111249421909451
1772795486272054300,6.03505419921875,-0.010426116946339607,0.011921835396811365,0.018141075237840414
1772795486282046000,6.0450458984375,0.007439794611930847,0.014921382538974284,0.0066339946543797846
1772795486292038100,6.0550380859375,0.007490063494443893,0.005379354950785636,-0.006479388614557683
1772795486302030000,6.065030029296875,0.008542202895879744,-0.014484890817850827,0.013481376331113279
1772795486312022300,6.075022216796875,-0.0007499415844678879,-0.009701455933600663,-0.0056925125531852245
1772795486322015000,6.085014892578125,-0.007362637722492218,-0.034814635206386446,-0.007835004474595189
1772795486332007200,6.095007080078125,0.008004442757368087,-0.04411342862322926,-0.013911730572395026
1772795486341999000,6.1049990234375,-0.0013116671204566955,-0.03558211244754493,-0.011499408733658492
1772795486351991300,6.1149912109375,-0.006736614778637886,-0.03184314511492848,-0.010934870186075567
1772795486361983000,6.12498291015625,-0.019610709398984908,-0.03740779350474477,-0.014579875624924897
1772795486371976200,6.13497607421875,-0.0005880290210247039,-0.020979148207977413,-0.03481145686861127
1772795486381968100,6.144968017578125,-0.008227145597338677,-0.004631532258167863,-0.03456880721915513
1772795486391960000,6.1549599609375,-0.007000234150886535,-0.0016908026311546562,-0.04837769847158342
1772795486401952000,6.164951904296875,0.011558920368552206,-0.0013854630090296268,-0.045406427575834095
1772795486411944200,6.174944091796875,0.0004559270739555359,-0.014454641810059546,-0.022446188553236424
1772795486421936000,6.18493603515625,0.016136895808577537,-0.013882833271473645,-0.016942659233510494
1772795486431929000,6.19492919921875,0.015629530808329583,-0.008109291371330618,-0.026086079425550995
1772795486441921300,6.20492138671875,0.003841477859020233,-0.004000833139196038,-0.008561492118239403
1772795486451913200,6.214913330078125,-0.02220949372053146,-0.012122253339737652,-0.027102161132916806
1772795486461905200,6.2249052734375,-0.018893501040339468,-0.009611731823533773,-0.01990209356099367
1772795486471897000,6.23489697265625,-0.032922026392817494,0.01630932976603508,-0.011168496278859675
1772795486481890300,6.244890380859375,-0.009454057043790817,0.014949658785387872,-0.02009111332707107
1772795486491882000,6.254882080078125,0.0004851531684398651,0.005129910234361886,-0.014769735641218721
1772795486501874200,6.264874267578125,-0.00258066414296627,-0.020302637185901404,0.009050663874670862
1772795486511866000,6.2748662109375,0.010701426756381988,-0.026698987159505486,0.011035992472991347
1772795486521858300,6.2848583984375,0.0021381810724735257,-0.03757737791799009,0.04318462334051728
1772795486531851000,6.29485107421875,-0.002797521764039993,-0.05191928006857633,0.022361213683523236
1772795486541843200,6.30484326171875,0.0011029928058385848,-0.06846987124457955,0.013691256222128868
1772795486551835100,6.314835205078125,-0.0067991586208343505,-0.0567709578834474,0.017092954424396158
1772795486561827000,6.3248271484375,0.008953121784329414,-0.044067543654888866,0.01962261903248727
1772795486571819000,6.334819091796875,0.0017775310665369033,-0.032011341288685796,0.023550861859507857
1772795486581811200,6.344811279296875,0.004459902018308639,-0.00748801766782999,0.016885449153557417
1772795486591804000,6.354803955078125,0.013705284747481346,0.001769786151498556,0.037438809697516263
1772795486601796000,6.364796142578125,-0.004317278677225113,0.023394246525689957,0.02700794351082295
1772795486611788000,6.3747880859375,-0.009646364745497703,0.028470015420019625,0.024925803474523126
1772795486621780200,6.3847802734375,-0.0028425299495458602,0.03203464909903705,0.0386616294907406
1772795486631772200,6.394772216796875,-0.015608488020300864,0.03691029231138527,0.012337247797288
1772795486641765000,6.40476513671875,-0.016048048481345174,0.04286854312866926,0.019216924308426676
1772795486651757300,6.41475732421875,-0.007622165441513061,0.009364625194668769,0.017850385195575653
1772795486661749200,6.424749267578125,0.0014513678520917891,-0.010527896820381284,0.018462708407640457
1772795486671741200,6.4347412109375,-0.007560206121206283,-0.02702427359111607,0.005204363710060715
1772795486681733000,6.444733154296875,0.007381926944851875,-0.019877105250209567,0.02227057625800371
1772795486691725000,6.45472509765625,0.011668225961923599,-0.03884403685294092,-0.004067980091273784
1772795486701718000,6.464718017578125,-0.013395488145947456,-0.04325615420676768,0.012006846799142658
1772795486711710200,6.474710205078125,0.002377250525355339,-0.049032472585886715,0.003833148422092199
1772795486721702100,6.4847021484375,-0.006721417209506034,-0.027840631475299596,-0.014379494214616715
1772795486731694300,6.4946943359375,-0.011650690305233,-0.012199629424884915,-0.014481712480075657
1772795486741686000,6.50468603515625,-0.015242577317357063,-0.010583061073720455,-0.03023972850628197
1772795486751679200,6.51467919921875,-0.011657120046019553,0.0007380319509655237,-0.024128734812699257
1772795486761671200,6.524671142578125,-0.009584989947080612,-0.017994141047820447,-0.022504677274823186
1772795486771663000,6.5346630859375,-0.01906418143212795,-0.012946283073723315,-0.00588832738623023
1772795486781655000,6.544655029296875,-0.004328384593129158,-0.006420753762498498,-0.002485314009711146
1772795486791647200,6.554647216796875,-0.011432663640379905,-0.01560644219368696,0.008612235924787819
1772795486801639200,6.56463916015625,-0.025542437535524366,-0.051242842111736533,0.007256400869041681
1772795486811632000,6.574632080078125,0.01006955859363079,-0.08989515578486025,-0.010078107226267457
1772795486821624000,6.5846240234375,0.09138356771171093,-0.026214053186774253,-0.03152103702109307
1772795486831616300,6.5946162109375,0.08448854750096797,0.047468584270030256,-0.05709620778243989
1772795486841608000,6.60460791015625,-0.026834815433621404,0.05478986706882715,-0.0667736983185634
1772795486851600100,6.61460009765625,-0.13346797472536562,0.013497779476642607,-0.07404062058161943
1772795486861593300,6.62459326171875,-0.17141104415059089,-0.015462869004532694,-0.036103432907909155
1772795486871585000,6.6345849609375,-0.0933189196884632,-0.05852978424951434,0.013753507803380489
1772795486881577000,6.644576904296875,0.02581190212666988,-0.01442380828037858,0.09093454530257732
