time,seconds_elapsed,z,y,x
1772795480296727600,0.0597275390625,0.0026416624896228313,-0.02397334575653076,-0.024456104263663292
1772795480306719700,0.0697197265625,0.011336350813508034,-0.07548101246356964,0.012071278877556324
1772795480316711700,0.079711669921875,0.010383971966803074,-0.11219630390405655,0.03660544753074646
1772795480326704600,0.08970458984375,0.009044135920703411,-0.1377141773700714,0.04432541877031326
1772795480336696600,0.099696533203125,0.0008780069183558226,-0.1519836187362671,0.03931892290711403
1772795480346688800,0.109688720703125,-0.004741795361042023,-0.15515758097171783,0.020410478115081787
1772795480356680700,0.1196806640625,-0.008262195624411106,-0.14628483355045319,0.006226151715964079
1772795480366672600,0.129672607421875,-0.011305389925837517,-0.13332775235176086,-0.004412910435348749
1772795480376665900,0.139665771484375,-0.015391619876027107,-0.11477430909872055,-0.0034838933497667313
1772795480386657800,0.14965771484375,-0.017497649416327477,-0.09497050940990448,0.004814250394701958
1772795480396649500,0.1596494140625,-0.01820145733654499,-0.07308139652013779,0.01209147647023201
1772795480406641700,0.1696416015625,-0.015440291725099087,-0.043989021331071854,0.018419679254293442
1772795480416633600,0.179633544921875,-0.012067995965480804,-0.01631990075111389,0.013372850604355335
1772795480426626600,0.18962646484375,-0.007369913160800934,0.018808256834745407,0.001389425015076995
1772795480436618800,0.19961865234375,-0.00035454973112791777,0.05301155894994736,-0.009494509547948837
1772795480446610700,0.209610595703125,0.005532900337129831,0.08319609612226486,-0.01697692647576332
1772795480456603000,0.219602783203125,0.0133074801415205,0.11069764941930771,-0.019777623936533928
1772795480466594800,0.2295947265625,0.018372811377048492,0.12657834589481354,-0.01853073202073574
1772795480476586800,0.239586669921875,0.02112928032875061,0.13114295899868011,-0.01313589233905077
1772795480486579700,0.249579833984375,0.0196823850274086,0.12148606777191162,-0.012251988984644413
1772795480496572000,0.259572021484375,0.015682727098464966,0.10128519684076309,-0.010050458833575249
1772795480506563600,0.2695634765625,0.012354573234915733,0.07035258412361145,-0.007909011095762253
1772795480516555800,0.2795556640625,0.00723854498937726,0.03210829943418503,-0.007789777126163244
1772795480526547700,0.289547607421875,0.0034336866810917854,-0.003228651825338602,-0.0069649964570999146
1772795480536540700,0.299540771484375,-0.002048632362857461,-0.031967561691999435,0.0002112966903951019
1772795480546532600,0.30953271484375,-0.007312636822462082,-0.05990305542945862,0.004902188666164875
1772795480556524800,0.31952490234375,-0.009029828943312168,-0.07933998852968216,0.012406858615577221
1772795480566516700,0.329516845703125,-0.012420832179486752,-0.09009915590286255,0.015065758489072323
1772795480576508700,0.3395087890625,-0.01300036907196045,-0.09354651719331741,0.016158517450094223
1772795480586501600,0.349501708984375,-0.01186399720609188,-0.0856209471821785,0.010665747337043285
1772795480596493800,0.359493896484375,-0.007211326155811548,-0.07624596357345581,0.010473479516804218
1772795480606485500,0.369485595703125,-0.007179101929068565,-0.05677986145019531,0.003944207448512316
1772795480616477700,0.379477783203125,-0.002226816490292549,-0.034393176436424255,-0.0018609629478305578
1772795480626469600,0.3894697265625,0.003381534479558468,-0.012987222522497177,0.00045865029096603394
1772795480636461800,0.3994619140625,0.005262341350317001,0.005574546288698912,0.0027832514606416225
1772795480646454800,0.409454833984375,0.005919342860579491,0.025685405358672142,0.004318830091506243
1772795480656446700,0.41944677734375,0.005292104557156563,0.04238896071910858,-0.00009656476322561502
1772795480666439000,0.42943896484375,0.00352456490509212,0.05463816970586777,0.0011641756864264607
1772795480676430600,0.4394306640625,0.0016936550382524729,0.0645761713385582,-0.005710626021027565
1772795480686422800,0.4494228515625,-0.0006536550354212523,0.071062833070755,-0.008827856741845608
1772795480696415700,0.459415771484375,-0.003800069447606802,0.07145549356937408,-0.010949105955660343
1772795480706407700,0.46940771484375,-0.006972692906856537,0.06801043450832367,-0.010501428507268429
1772795480716399600,0.479399658203125,-0.006070433184504509,0.05845579877495766,-0.00730116106569767
1772795480726391800,0.489391845703125,-0.0068086618557572365,0.04875284060835838,0.0010992474853992462
1772795480736383700,0.4993837890625,-0.0065801250748336315,0.030849754810333252,0.0001376882428303361
1772795480746376700,0.509376708984375,-0.003573149908334017,0.010083755478262901,0.0018852546345442533
1772795480756368600,0.51936865234375,-0.0015687951818108559,-0.013589946553111076,0.002261791378259659
1772795480766360800,0.52936083984375,-0.0002515957457944751,-0.03515089675784111,0.0011861406965181231
1772795480776352800,0.539352783203125,-0.0006683621322736144,-0.04975326731801033,0.0022943371441215277
1772795480786344700,0.5493447265625,-0.0015362863196060061,-0.056284669786691666,0.007199080660939217
1772795480796336600,0.559336669921875,0.000017039477825164795,-0.061463143676519394,0.007421910762786865
1772795480806329600,0.56932958984375,-0.004034161102026701,-0.05651978403329849,0.006455449853092432
1772795480816321500,0.579321533203125,-0.0025395951233804226,-0.04501120001077652,0.005445046350359917
1772795480826313700,0.589313720703125,0.00010492373257875443,-0.031792864203453064,0.0003421636938583106
1772795480836305700,0.5993056640625,0.0032875249162316322,-0.019906114786863327,0.0016325716860592365
1772795480846297900,0.6092978515625,0.0047935424372553825,-0.0032757390290498734,0.00012921728193759918
1772795480856290800,0.619290771484375,0.004663066007196903,0.011115726083517075,-0.0023472022730857134
1772795480866282800,0.62928271484375,0.006349113769829273,0.02335588075220585,-0.0015200243797153234
1772795480876275000,0.63927490234375,0.005098773166537285,0.03016813099384308,-0.0038493431638926268
1772795480886266600,0.6492666015625,0.0056431228294968605,0.03457246720790863,-0.007473639212548733
1772795480896258800,0.6592587890625,0.007573460228741169,0.036144744604825974,-0.0064131468534469604
1772795480906251800,0.669251708984375,0.004882868379354477,0.032309792935848236,-0.008573503233492374
1772795480916243700,0.67924365234375,0.002873013261705637,0.02636391669511795,-0.005297612398862839
1772795480926235600,0.689235595703125,0.0014926970470696688,0.016266273334622383,-0.0012868918711319566
1772795480936227800,0.699227783203125,-0.003494715318083763,0.005765588488429785,-0.0031766286119818687
1772795480946219800,0.7092197265625,-0.0023269192315638065,-0.00558933150023222,-0.0009001584257930517
1772795480956212700,0.719212646484375,-0.0054816496558487415,-0.017185093834996223,0.0013925489038228989
1772795480966204700,0.72920458984375,-0.0035441999789327383,-0.02523050457239151,0.0031265332363545895
1772795480976196900,0.73919677734375,-0.0038016350008547306,-0.03213625028729439,0.005238055717200041
1772795480986188500,0.7491884765625,-0.004682076163589954,-0.0357605442404747,0.006479355040937662
1772795480996180700,0.7591806640625,-0.0024896839167922735,-0.038866378366947174,0.00645833695307374
1772795481006172700,0.769172607421875,-0.002925110748037696,-0.03788766637444496,0.005097195506095886
1772795481016165600,0.77916552734375,-0.00033039296977221966,-0.030971704050898552,0.0020145864691585302
1772795481026157600,0.789157470703125,0.0013114458415657282,-0.01971452124416828,0.0002648895897436887
1772795481036149800,0.799149658203125,0.001189959468320012,-0.0071961162611842155,-0.001209520734846592
1772795481046141700,0.8091416015625,0.002014474244788289,0.007119706366211176,-0.0005381379160098732
1772795481056133600,0.819133544921875,0.0023342235945165157,0.02174929343163967,-0.0009230403229594231
1772795481066126800,0.829126953125,0.0025925501249730587,0.03316600248217583,-0.004100191406905651
1772795481076118800,0.839118896484375,0.0027995877899229527,0.04354977235198021,-0.005211038514971733
1772795481086110700,0.84911083984375,-0.00019593560136854649,0.051527004688978195,-0.007920805364847183
1772795481096102100,0.85910205078125,0.0008427153807133436,0.05231770500540733,-0.00584055483341217
1772795481106094000,0.869093994140625,0.0012443200685083866,0.05260053277015686,-0.005526834633201361
1772795481116087300,0.87908740234375,0.0007264914456754923,0.044238101691007614,-0.007143064402043819
1772795481126079200,0.889079345703125,0.0024207946844398975,0.03653011471033096,-0.0047214520163834095
1772795481136071200,0.8990712890625,0.0012999020982533693,0.02230047434568405,-0.0030658282339572906
1772795481146063400,0.9090634765625,0.0025649038143455982,0.008611559867858887,-0.00034860498271882534
1772795481156055300,0.91905517578125,0.0005860142409801483,-0.00757514638826251,-0.00052592036081478
1772795481166047200,0.929047119140625,-0.0000784446019679308,-0.02196606993675232,0.00012468991917558014
1772795481176040200,0.939040283203125,-0.0009938509901985526,-0.03794684633612633,0.002920188708230853
1772795481186032400,0.949032470703125,-0.002631428651511669,-0.04952813684940338,0.006363922264426947
1772795481196024000,0.959024169921875,-0.002815563464537263,-0.056315574795007706,0.00444622291252017
1772795481206016300,0.969016357421875,-0.00335405464284122,-0.059503111988306046,0.0064931283704936504
1772795481216008200,0.97900830078125,-0.0016897027380764484,-0.05387025699019432,0.009183879010379314
1772795481226001200,0.989001220703125,-0.0001650429330766201,-0.04043247923254967,0.0036208026576787233
1772795481235993000,0.9989931640625,0.0014942027628421783,-0.0268474742770195,0.0001382628979627043
1772795481245985300,1.0089853515625,0.002001002198085189,-0.012777460739016533,-0.004740914795547724
1772795481255977200,1.018977294921875,0.0036785590928047895,0.0002503548748791218,-0.0070307631976902485
1772795481265969200,1.02896923828125,0.0046056052669882774,0.010541342198848724,-0.0046514952555298805
1772795481275962000,1.038962158203125,0.004151031840592623,0.023440400138497353,-0.004441342316567898
1772795481285954300,1.048954345703125,0.0017523225396871567,0.030625874176621437,-0.0016050759004428983
1772795481295946200,1.0589462890625,-0.0014743306674063206,0.03512091934680939,-0.004019295331090689
1772795481305938200,1.068938232421875,-0.0015337192453444004,0.03765678405761719,-0.0010924811940640211
1772795481315930000,1.07893017578125,-0.0032716202549636364,0.03308781236410141,-0.004142311867326498
1772795481325922300,1.08892236328125,-0.0004404138308018446,0.030730115249753,-0.005665906239300966
1772795481335915300,1.098915283203125,-0.0002922184066846967,0.025453057140111923,-0.006468210369348526
1772795481345907200,1.1089072265625,0.002027128590270877,0.016974084079265594,-0.0031847991049289703
1772795481355899400,1.1188994140625,0.006365216337144375,0.006837884429842234,-0.00235695019364357
1772795481365891300,1.128891357421875,0.0040986002422869205,-0.0007744948379695415,0.002141395350918174
1772795481375883000,1.138883056640625,0.004800342954695225,-0.008773831650614738,0.0012308605946600437
1772795481385876200,1.148876220703125,0.004520444665104151,-0.011304633691906929,0.000990643398836255
1772795481395868400,1.158868408203125,0.005723770707845688,-0.01519114337861538,0.00009924097685143352
1772795481405860000,1.168860107421875,0.0035746002104133368,-0.01579674519598484,-0.002130623906850815
1772795481415852300,1.178852294921875,-0.00044517521746456623,-0.010755382478237152,-0.0002618836588226259
1772795481425844200,1.18884423828125,-0.0013826079666614532,-0.0094767976552248,-0.0003492353134788573
1772795481435837200,1.198837158203125,-0.0032737324945628643,-0.0030217142775654793,0.0016301447758451104
1772795481445829000,1.2088291015625,-0.004016754683107138,-0.0018118401058018208,0.004173730034381151
1772795481455821300,1.2188212890625,-0.005672629922628403,0.004071827512234449,0.0001763461041264236
1772795481465813200,1.228813232421875,-0.007901695556938648,0.003543988335877657,0.0003414620878174901
1772795481475805200,1.23880517578125,-0.003381563350558281,0.0020769480615854263,-0.0000012775999493896961
1772795481485797000,1.248797119140625,-0.00004382338374853134,-0.0014176513068377972,-0.0012593548744916916
1772795481495790300,1.258790283203125,0.0014893906190991402,-0.009620824828743935,-0.001618679380044341
1772795481505782000,1.268781982421875,0.0013887232635170221,-0.014200396835803986,0.0008500710246153176
1772795481515774200,1.278774169921875,0.0026043460238724947,-0.021626995876431465,0.0009348021121695638
1772795481525766100,1.28876611328125,0.0015795615036040545,-0.021697835996747017,0.0010240180417895317
1772795481535758300,1.29875830078125,-0.0011338044423609972,-0.023737967014312744,0.00383419799618423
1772795481545751300,1.308751220703125,-0.00003471784293651581,-0.021407434716820717,0.001885296544060111
1772795481555743200,1.3187431640625,0.00018068519420921803,-0.016981307417154312,0.0036434317007660866
1772795481565735200,1.328735107421875,0.00046298024244606495,-0.008387553505599499,0.00157681864220649
1772795481575727000,1.33872705078125,-0.000542096677236259,0.001719941385090351,0.0027797683142125607
1772795481585719000,1.348718994140625,-0.001547706313431263,0.010427945293486118,-0.00018885714234784245
1772795481595712300,1.358712158203125,-0.00026606861501932144,0.022992467507719994,0.00038755586137995124
1772795481605704200,1.3687041015625,0.003919089213013649,0.03170366585254669,-0.005848501808941364
1772795481615696100,1.378696044921875,0.001899439375847578,0.038349151611328125,-0.00586804049089551
1772795481625688300,1.388688232421875,0.005487516522407532,0.03993160277605057,-0.004368946887552738
1772795481635680300,1.39868017578125,0.002020396990701556,0.03882496431469917,-0.0036368519067764282
1772795481645673200,1.408673095703125,0.004240940324962139,0.035044342279434204,-0.005704796407371759
1772795481655665200,1.4186650390625,0.0011522064451128244,0.024457745254039764,-0.004979085177183151
1772795481665657300,1.4286572265625,0.001129303127527237,0.014916704036295414,-0.0003313362831249833
1772795481675649300,1.438649169921875,-0.0027786369901150465,0.0001619807444512844,0.0008462576661258936
1772795481685641200,1.44864111328125,-0.003305942751467228,-0.012797227129340172,-0.0017242254689335823
1772795481695633200,1.458633056640625,-0.003877489361912012,-0.0230628103017807,-0.0002455746871419251
1772795481705626400,1.46862646484375,-0.0013272464275360107,-0.034343428909778595,-0.0006367930327542126
1772795481715618000,1.4786181640625,-0.00021896278485655785,-0.04291640594601631,0.00416904129087925
1772795481725610200,1.4886103515625,0.004034371580928564,-0.041720911860466,0.003034801222383976
1772795481735602200,1.498602294921875,0.004733718000352383,-0.04100239276885986,0.0037562516517937183
1772795481745594400,1.508594482421875,0.007625910919159651,-0.038194090127944946,0.0027157545555382967
1772795481755587000,1.518587158203125,0.005023230332881212,-0.03112654760479927,0.0016808819491416216
1772795481765579300,1.528579345703125,0.0030176034197211266,-0.023191656917333603,0.001434539444744587
1772795481775571200,1.5385712890625,0.0020581355784088373,-0.014342859387397766,0.0017299294704571366
1772795481785563100,1.548563232421875,-0.004672205075621605,-0.00859123095870018,-0.0017095430521294475
1772795481795555000,1.55855517578125,-0.001951629645191133,-0.0029781952034682035,0.0005773552693426609
1772795481805548300,1.56854833984375,-0.005581518169492483,0.0036858324892818928,0.0011118516558781266
1772795481815540200,1.578540283203125,-0.007390887476503849,0.010813238099217415,-0.0006189922569319606
1772795481825532200,1.5885322265625,-0.0035250429064035416,0.015634093433618546,0.0012545415665954351
1772795481835524400,1.5985244140625,-0.0017953336937353015,0.021632177755236626,-0.0012585651129484177
1772795481845516300,1.608516357421875,-0.0017561852000653744,0.025255141779780388,0.0010133776813745499
1772795481855508200,1.61850830078125,0.0035218235570937395,0.03198164328932762,-0.002672661328688264
1772795481865501200,1.628501220703125,0.0005132502410560846,0.03299551084637642,-0.0034740064293146133
1772795481875493400,1.638493408203125,0.002113934140652418,0.03213797137141228,-0.0027660327032208443
1772795481885485000,1.648485107421875,0.00212671747431159,0.03250175714492798,-0.00036732357693836093
1772795481895477200,1.658477294921875,0.0023296179715543985,0.027062352746725082,-0.0006966929649934173
1772795481905469200,1.66846923828125,-0.0004906696267426014,0.02271687425673008,-0.0011126786703243852
1772795481915462100,1.678462158203125,0.000023086555302143097,0.01884879544377327,-0.000051206385251134634
1772795481925454000,1.6884541015625,-0.0016957176849246025,0.010702451691031456,-0.00499643012881279
1772795481935446300,1.6984462890625,0.000038675032556056976,0.001883131917566061,-0.0053190444596111774
1772795481945438200,1.708438232421875,0.0017902359832078218,-0.010165806859731674,-0.0036678845062851906
1772795481955430100,1.71843017578125,0.0040476685389876366,-0.022063329815864563,-0.0014577391557395458
1772795481965422000,1.728422119140625,0.005188301205635071,-0.028216563165187836,0.0033418096136301756
1772795481975415300,1.738415283203125,0.003914468921720982,-0.032659173011779785,0.005423159804195166
1772795481985407200,1.7484072265625,0.0008941779378801584,-0.031824272125959396,0.006573911756277084
1772795481995399200,1.758399169921875,0.0006344378925859928,-0.030134567990899086,0.004006161820143461
1772795482005391000,1.76839111328125,-0.003708645235747099,-0.02744157984852791,-0.001753722783178091
1772795482015383300,1.77838330078125,-0.003448780160397291,-0.02500685304403305,-0.0014333105646073818
1772795482025376300,1.788376220703125,0.001251698937267065,-0.023604698479175568,-0.0006735106580890715
1772795482035368200,1.7983681640625,0.0014919620007276535,-0.01628335379064083,-0.0004313451354391873
1772795482045360400,1.8083603515625,0.004531693644821644,-0.01194772869348526,-0.001206857617944479
1772795482055352300,1.818352294921875,0.005379175767302513,-0.006690587382763624,-0.0006567745003849268
1772795482065344300,1.82834423828125,0.007732611149549484,-0.0010113962925970554,0.0012926594354212284
1772795482075337200,1.838337158203125,0.007611984387040138,0.0026007997803390026,0.0009162353817373514
1772795482085329400,1.848329345703125,0.00765352975577116,0.007933514192700386,-0.0018550499808043242
1772795482095321300,1.8583212890625,0.0075539276003837585,0.01138497143983841,-0.0024385484866797924
1772795482105313500,1.8683134765625,0.0010286502074450254,0.019917739555239677,-0.003306739032268524
1772795482115305500,1.878305419921875,-0.0009632841683924198,0.023162642493844032,-0.0047182561829686165
1772795482125297700,1.888297607421875,-0.0013747424818575382,0.028976857662200928,-0.0011456259526312351
1772795482135290600,1.89829052734375,-0.004124065861105919,0.030934538692235947,-0.0027575320564210415
1772795482145282600,1.908282470703125,-0.003945634234696627,0.029191233217716217,-0.0007383231422863901
1772795482155274500,1.9182744140625,-0.002142674056813121,0.027742475271224976,-0.001509308349341154
1772795482165266400,1.928266357421875,-0.0011397276539355516,0.022684333845973015,-0.0013292785733938217
1772795482175258400,1.93825830078125,-0.00014365976676344872,0.015244310721755028,-0.0005134674720466137
1772795482185251600,1.94825146484375,0.0029293617699295282,0.002150879707187414,-0.003227228531613946
1772795482195243500,1.958243408203125,0.0014781598001718521,-0.010159365832805634,-0.00248535699211061
1772795482205235500,1.9682353515625,0.0019311632495373487,-0.023127630352973938,-0.00020728883100673556
1772795482215227600,1.9782275390625,-0.0025214997585862875,-0.033019136637449265,0.002799580805003643
1772795482225219600,1.988219482421875,-0.003200872102752328,-0.04003070667386055,0.0019388471264392138
1772795482235212500,1.998212646484375,-0.005489969160407782,-0.04161166772246361,0.004644927103072405
1772795482245204500,2.00820458984375,-0.0019990976434201,-0.03874637186527252,0.007283587008714676
1772795482255196700,2.01819677734375,-0.0008526212768629193,-0.03219301626086235,0.003503083251416683
1772795482265188400,2.028188232421875,0.0009681819938123226,-0.022649046033620834,0.0017893388867378235
1772795482275180500,2.0381806640625,0.00374986813403666,-0.012448456138372421,0.0008954627555795014
1772795482285172500,2.04817236328125,0.006976820528507233,-0.0024126004427671432,-0.0043083541095256805
1772795482295165400,2.05816552734375,0.00645559374243021,0.008473288267850876,-0.004094586241990328
1772795482305157400,2.068157470703125,0.0047128209844231606,0.016229745000600815,-0.0033241338096559048
1772795482315149600,2.078149658203125,0.007775704842060804,0.025288211181759834,-0.005553520750254393
1772795482325141500,2.0881416015625,0.004260598216205835,0.02898441068828106,-0.003624327015131712
1772795482335133400,2.098133544921875,0.00211944873444736,0.03215719759464264,-0.002835828810930252
1772795482345126400,2.10812646484375,0.0000626896508038044,0.03504406288266182,-0.004229194950312376
1772795482355118600,2.11811865234375,0.00024942285381257534,0.03330347314476967,-0.0038125913124531507
1772795482365110300,2.1281103515625,-0.0019460871117189527,0.030461613088846207,-0.004126312211155891
1772795482375102500,2.1381025390625,-0.005968444049358368,0.024347864091396332,-0.002249919343739748
1772795482385094400,2.148094482421875,-0.0060981400310993195,0.01236097700893879,-0.000322057050652802
1772795482395087400,2.15808740234375,-0.006058820523321629,-0.001984097994863987,-0.0005943095311522484
1772795482405079600,2.16807958984375,-0.007521694526076317,-0.011646579019725323,0.0017647185595706105
1772795482415071500,2.178071533203125,-0.002660255879163742,-0.025304876267910004,0.004307025112211704
1772795482425063700,2.188063720703125,-0.0018141695763915777,-0.031018421053886414,0.003689704230055213
1772795482435055600,2.1980556640625,0.00009226822294294834,-0.037823472172021866,0.0054708924144506454
1772795482445047600,2.208047607421875,0.0004057222977280617,-0.03901044651865959,0.0017624410102143884
1772795482455040500,2.21804052734375,-0.0007309190696105361,-0.03412899374961853,0.0015633294824510813
1772795482465032700,2.22803271484375,-0.002375420881435275,-0.03160165250301361,0.0019902342464774847
1772795482475024400,2.2380244140625,-0.0011626631021499634,-0.022891037166118622,0.002438358962535858
1772795482485016600,2.2480166015625,-0.00392489368095994,-0.012110826559364796,0.002974187023937702
1772795482495008500,2.258008544921875,-0.005208206363022327,0.0005834558978676796,0.0018350259633734822
1772795482505001500,2.26800146484375,-0.008129694499075413,0.012581262737512589,0.002286964561790228
1772795482514993400,2.277993408203125,-0.009034072048962116,0.02069767564535141,0.00012121867621317506
1772795482524985600,2.287985595703125,-0.010851945728063583,0.022571207955479622,0.0013425443321466446
1772795482534977500,2.2979775390625,-0.010730083100497723,0.02650032751262188,-0.0001826058723963797
1772795482544969500,2.307969482421875,-0.008325248956680298,0.02397325448691845,0.001465091947466135
1772795482554961400,2.31796142578125,-0.00615010317414999,0.029194386675953865,-0.0017316053854301572
1772795482564954600,2.32795458984375,-0.001871468499302864,0.031668201088905334,-0.002426424063742161
1772795482574946300,2.3379462890625,0.0007212893106043339,0.030985672026872635,-0.006332026794552803
1772795482584938500,2.3479384765625,0.006468391045928001,0.02904103323817253,-0.003637174144387245
1772795482594930400,2.357930419921875,0.010485672391951084,0.02976519614458084,-0.005132080987095833
1772795482604922600,2.367922607421875,0.012868136167526245,0.028142530471086502,-0.004614362493157387
1772795482614915600,2.37791552734375,0.010147078894078732,0.0229850634932518,-0.004259414970874786
1772795482624907500,2.387907470703125,0.007952634245157242,0.019214561209082603,-0.003411198267713189
1772795482634899700,2.397899658203125,0.004519002512097359,0.01387091912329197,-0.004466664046049118
1772795482644891400,2.407891357421875,0.003979180008172989,0.004447856452316046,-0.004123914986848831
1772795482654883600,2.417883544921875,0.003705269191414118,-0.005707191303372383,-0.004833368118852377
1772795482664875500,2.42787548828125,0.0034698457457125187,-0.016381407156586647,-0.003824829123914242
1772795482674868500,2.437868408203125,-0.0024628322571516037,-0.02958637662231922,0.003897889517247677
1772795482684860400,2.4478603515625,-0.0017736060544848442,-0.037665609270334244,0.004666477907449007
1772795482694852600,2.4578525390625,-0.004284154158085585,-0.0451958067715168,0.0074906419031322
1772795482704844500,2.467844482421875,-0.008216045796871185,-0.05297623202204704,0.003943311516195536
1772795482714836500,2.47783642578125,-0.003520593512803316,-0.05534575507044792,0.00483354227617383
1772795482724829400,2.487829345703125,-0.004064144566655159,-0.05413907393813133,0.0021437497343868017
1772795482734821600,2.497821533203125,-0.0018114229897037148,-0.052407003939151764,0.0008957081008702517
1772795482744813600,2.5078134765625,0.003351913532242179,-0.04737735912203789,0.0018027806654572487
1772795482754805500,2.517805419921875,0.0034185710828751326,-0.03763397037982941,0.0021309033036231995
1772795482764797400,2.52779736328125,0.003223627572879195,-0.025777576491236687,0.002390295034274459
1772795482774790400,2.537790283203125,0.00045017944648861885,-0.010672291740775108,0.0036947745829820633
1772795482784782300,2.5477822265625,0.005444938316941261,0.0008956813253462315,0.002427909057587385
1772795482794774500,2.5577744140625,0.002208898775279522,0.01660284213721752,-0.0009332028566859663
1772795482804766500,2.567766357421875,-0.0016593426698818803,0.03162706643342972,-0.0023233729880303144
1772795482814758700,2.577758544921875,-0.003654803615063429,0.04078146815299988,-0.005556897725909948
1772795482824750300,2.587750244140625,-0.008742772974073887,0.05295078083872795,-0.007078095339238644
1772795482834743600,2.59774365234375,-0.006620793603360653,0.0610017403960228,-0.004379278514534235
1772795482844735700,2.60773583984375,-0.00829192716628313,0.0678844153881073,-0.007511687930673361
1772795482854727400,2.6177275390625,-0.006255049258470535,0.07226701080799103,-0.004502147436141968
1772795482864719400,2.62771923828125,-0.00439003761857748,0.0734340101480484,-0.004601483233273029
1772795482874711600,2.637711669921875,0.0007635266520082951,0.06738071888685226,-0.006317427847534418
1772795482884704500,2.64770458984375,0.0018508951179683208,0.061366237699985504,-0.008621328510344028
1772795482894696400,2.657696533203125,0.007009797729551792,0.04616793617606163,-0.007166542578488588
1772795482904688600,2.667688720703125,0.008173066191375256,0.029047273099422455,-0.006976126693189144
1772795482914680600,2.6776806640625,0.009518573060631752,0.013890102505683899,-0.002907061716541648
1772795482924672500,2.687672607421875,0.006539560854434967,-0.013219811022281647,0.0014208413194864988
1772795482934664400,2.69766455078125,0.0035408558323979378,-0.032752081751823425,0.000513117469381541
1772795482944657700,2.70765771484375,0.0022793165408074856,-0.050373151898384094,0.003520625177770853
1772795482954649300,2.7176494140625,0.002918052952736616,-0.06903887540102005,0.0071861580945551395
1772795482964641500,2.7276416015625,-0.0009685643017292023,-0.07977141439914703,0.0018928588833659887
1772795482974633500,2.737633544921875,0.003881726646795869,-0.0877867192029953,0.007036382332444191
1772795482984625700,2.747625732421875,0.0007786115165799856,-0.08462581783533096,0.009795949794352055
1772795482994618400,2.757618408203125,-0.0006216326728463173,-0.0802491307258606,0.008762462064623833
1772795483004610600,2.767610595703125,-0.0017960867844522,-0.07112753391265869,0.007597328629344702
1772795483014602500,2.7776025390625,-0.0011224776972085238,-0.05792868509888649,0.00769035005941987
1772795483024594400,2.787594482421875,-0.0023603150621056557,-0.044171061366796494,0.007557990960776806
1772795483034586400,2.79758642578125,-0.0010932785226032138,-0.026339292526245117,0.003620696719735861
1772795483044578600,2.80757861328125,-0.0019406963838264346,-0.0068665253929793835,0.002154360059648752
1772795483054571300,2.8175712890625,-0.003453794401139021,0.015330765396356583,-0.0016356264241039753
1772795483064563500,2.8275634765625,-0.003376828972250223,0.03427915275096893,-0.004119024146348238
1772795483074555400,2.837555419921875,0.0003384689334779978,0.04782697558403015,-0.003731555538251996
1772795483084547600,2.847547607421875,0.00026043830439448357,0.06404723227024078,-0.009322862140834332
1772795483094539500,2.85753955078125,-0.0002679836470633745,0.074074387550354,-0.0076133692637085915
1772795483104532500,2.867532470703125,-0.0029007846023887396,0.07833251357078552,-0.01067440677434206
1772795483114524400,2.8775244140625,-0.0008339008782058954,0.0753704085946083,-0.00883532129228115
1772795483124516600,2.8875166015625,-0.0005241752369329333,0.06944194436073303,-0.006694139912724495
1772795483134508300,2.89750830078125,-0.00231924164108932,0.05382813885807991,-0.006312585435807705
1772795483144500500,2.90750048828125,-0.00044730573426932096,0.03762147203087807,-0.00564919225871563
1772795483154493700,2.91749365234375,-0.00002090143971145153,0.015620728954672813,-0.002967718755826354
1772795483164485400,2.9274853515625,-0.0006075958954170346,-0.005941555369645357,-0.002797808963805437
1772795483174477600,2.9374775390625,0.0011707551311701536,-0.02573361247777939,0.004707197658717632
1772795483184469500,2.947469482421875,0.0002953740768134594,-0.03527279198169708,0.00612240144982934
1772795483194461700,2.957461669921875,-0.00017300015315413475,-0.041341785341501236,0.00597444036975503
1772795483204453400,2.967453369140625,0.00025496981106698513,-0.045133594423532486,0.00654702028259635
1772795483214446600,2.977446533203125,0.0006161401979625225,-0.03974144160747528,0.0048173824325203896
1772795483224438500,2.9874384765625,-0.0015764404088258743,-0.03608252480626106,-0.00032917672069743276
1772795483234430500,2.997430419921875,-0.0008277613669633865,-0.030113790184259415,-0.00011491944314911962
1772795483244422400,3.00742236328125,-0.003965497948229313,-0.021757058799266815,0.002341846702620387
1772795483254414600,3.01741455078125,-0.008081398904323578,-0.020117994397878647,0.003652536775916815
1772795483264407300,3.0274072265625,-0.009246531873941422,-0.02086181566119194,0.0026053818874061108
1772795483274399500,3.0373994140625,-0.012712760828435421,-0.02157740294933319,0.005313177593052387
1772795483284391400,3.047391357421875,-0.008589387871325016,-0.026470430195331573,0.005830629728734493
1772795483294383600,3.057383544921875,-0.005825133994221687,-0.02873143181204796,0.006180786993354559
1772795483304375300,3.067375244140625,-0.0034780900459736586,-0.02566693350672722,0.006568543147295713
1772795483314367500,3.077367431640625,0.0003374498337507248,-0.023579247295856476,0.003610331565141678
1772795483324360400,3.0873603515625,0.0068012080155313015,-0.011526845395565033,0.0013802002649754286
1772795483334352400,3.097352294921875,0.00757130142301321,0.0029502674005925655,-0.001885802368633449
1772795483344344300,3.10734423828125,0.010607038624584675,0.023917600512504578,-0.006674166303128004
1772795483354336500,3.11733642578125,0.011379888281226158,0.04397733137011528,-0.0078395651653409
1772795483364328400,3.127328369140625,0.011547134257853031,0.06432654708623886,-0.01240555476397276
1772795483374321400,3.1373212890625,0.007166234776377678,0.07756058871746063,-0.013902250677347183
1772795483384313600,3.147313720703125,0.0036612486001104116,0.08466057479381561,-0.013859108090400696
1772795483394305500,3.157305419921875,-0.005863863043487072,0.08493258059024811,-0.011900345794856548
1772795483404297500,3.16729736328125,-0.007847651839256287,0.07848666608333588,-0.0067372750490903854
1772795483414289400,3.177289306640625,-0.011503464542329311,0.06349855661392212,-0.002771198283880949
1772795483424282600,3.18728271484375,-0.00960356555879116,0.04184332862496376,0.0007066235993988812
1772795483434274600,3.197274658203125,-0.00952570978552103,0.01621583104133606,0.0001643070427235216
1772795483444266500,3.2072666015625,-0.0036718156188726425,-0.011432839557528496,0.0021763253025710583
1772795483454258400,3.217258544921875,0.002485416829586029,-0.03411165997385979,0.002186619909480214
1772795483464250600,3.227250732421875,0.00970577821135521,-0.05820607766509056,0.0037067520897835493
1772795483474242600,3.23724267578125,0.011378509923815727,-0.07165637612342834,0.005206910893321037
1772795483484235500,3.247235595703125,0.013536203652620316,-0.07624340057373047,0.0073084114119410515
1772795483494227500,3.2572275390625,0.013806385919451714,-0.0719747468829155,0.006338740233331919
1772795483504219600,3.2672197265625,0.007899494841694832,-0.06059106066823006,0.004291567951440811
1772795483514211300,3.27721142578125,0.003970455843955278,-0.04628317430615425,0.004628702998161316
1772795483524203500,3.28720361328125,-0.0023902379907667637,-0.02654195949435234,0.002537589054554701
1772795483534196500,3.297196533203125,-0.007944760844111443,-0.009394234977662563,-0.0005157883861102164
1772795483544188400,3.3071884765625,-0.010774369351565838,0.004868590272963047,-0.0025096971075981855
1772795483554180400,3.317180419921875,-0.012210157699882984,0.012731892988085747,-0.003634104738011956
1772795483564172500,3.327172607421875,-0.007266531698405743,0.017066987231373787,-0.004259414970874786
1772795483574164500,3.33716455078125,-0.004424672573804855,0.020735491067171097,-0.002207715529948473
1772795483584156400,3.347156494140625,-0.0018611138220876455,0.018258219584822655,-0.00012246053665876389
1772795483594149400,3.3571494140625,0.002029121620580554,0.012797566130757332,-0.0010630469769239426
1772795483604141600,3.3671416015625,0.008084883913397789,0.008077645674347878,-0.0032036956399679184
1772795483614133200,3.37713330078125,0.011190317571163177,0.006028130650520325,-0.0010036795865744352
1772795483624125400,3.38712548828125,0.010831589810550213,0.005459013395011425,0.00024534304975531995
1772795483634117400,3.397117431640625,0.01040866132825613,0.00946413166821003,-0.000013837125152349472
1772795483644110300,3.4071103515625,0.007010468281805515,0.008935494348406792,-0.0004348829388618469
1772795483654102500,3.4171025390625,0.0031797769479453564,0.015468494966626167,-0.0008370202267542481
1772795483664094500,3.427094482421875,-0.0006312064360827208,0.01440110057592392,0.00014834938338026404
1772795483674086700,3.437086669921875,-0.003757036756724119,0.01779322139918804,-0.0026605078019201756
1772795483684078300,3.447078369140625,-0.003808968234807253,0.01592155173420906,-0.003958266228437424
1772795483694070500,3.457070556640625,-0.003615843364968896,0.013322890736162663,-0.002008214592933655
1772795483704063500,3.4670634765625,-0.001194497337564826,0.007657548412680626,-0.0029863936360925436
1772795483714055400,3.477055419921875,-0.0035975268110632896,0.0023366142995655537,-0.0006750032771378756
1772795483724047400,3.48704736328125,-0.0035815478768199682,-0.003531128168106079,-0.0001788564259186387
1772795483734039600,3.49703955078125,-0.0023403875529766083,-0.011585202999413013,0.0008113218354992568
1772795483744031500,3.507031494140625,-0.00007217330858111382,-0.015537334606051445,-0.0015687452396377921
1772795483754024400,3.5170244140625,-0.0006469786167144775,-0.020025786012411118,-0.0008732056594453752
1772795483764016400,3.527016357421875,-0.0009604326914995909,-0.020869474858045578,0.0007206962327472866
1772795483774008600,3.537008544921875,0.0006565139628946781,-0.019212182611227036,0.004036759492009878
1772795483784000500,3.54700048828125,-0.0016836058348417282,-0.012310069054365158,0.003211978357285261
1772795483793992400,3.556992431640625,0.0006254613399505615,-0.005796259269118309,0.007609706372022629
1772795483803984400,3.566984375,0.001884337281808257,0.0011250297538936138,0.004778499715030193
1772795483813977600,3.5769775390625,0.00312264752574265,0.01686490699648857,0.005763903260231018
1772795483823969300,3.58696923828125,0.00263955001719296,0.03083105757832527,0.0024461373686790466
1772795483833961500,3.59696142578125,0.0012239515781402588,0.04251076653599739,0.003110849764198065
1772795483843953400,3.606953369140625,0.0005307307001203299,0.056247882544994354,-0.00003514240961521864
1772795483853945600,3.616945556640625,-0.002151476452127099,0.061670996248722076,-0.0031616808846592903
1772795483863938600,3.6269384765625,-0.00006542238406836987,0.06286142766475677,-0.003975010477006435
1772795483873930500,3.636930419921875,-0.0002632171381264925,0.058347851037979126,-0.005865833722054958
1772795483883922700,3.646922607421875,-0.0013045130763202906,0.046369750052690506,-0.007026705890893936
1772795483893914400,3.656914306640625,0.0016460346523672342,0.030642880126833916,-0.006094129756093025
1772795483903906600,3.666906494140625,-0.001454417360946536,0.005678675603121519,-0.008057145401835442
1772795483913899500,3.6768994140625,-0.0013457604218274355,-0.02102217637002468,-0.005931144114583731
1772795483923891500,3.686891357421875,-0.0030275466851890087,-0.048728104680776596,-0.003194746095687151
1772795483933883400,3.69688330078125,-0.0061110639944672585,-0.07118186354637146,0.0013137611094862223
1772795483943875600,3.70687548828125,-0.006594960577785969,-0.09054677188396454,0.005172681529074907
1772795483953867500,3.716867431640625,-0.007117440924048424,-0.1019183024764061,0.005753453820943832
1772795483963859500,3.726859375,-0.008342761546373367,-0.10025782138109207,0.00964752770960331
1772795483973852400,3.736852294921875,-0.001739361323416233,-0.09618867933750153,0.0073760198429226875
1772795483983844600,3.7468447265625,0.0018865321762859821,-0.08014100044965744,0.00919256266206503
1772795483993836300,3.756836181640625,0.004964848048985004,-0.05522356554865837,0.008436554111540318
1772795484003828500,3.766828369140625,0.00557098351418972,-0.026382599025964737,0.005168589297682047
1772795484013820400,3.7768203125,0.012132763862609863,0.006860587280243635,-0.000523329246789217
1772795484023813400,3.7868134765625,0.012861404567956924,0.03312335163354874,-0.009056363254785538
1772795484033805300,3.796805419921875,0.01479311939328909,0.05428189039230347,-0.011471480131149292
1772795484043797500,3.806797607421875,0.014872216619551182,0.0644674152135849,-0.016190867871046066
1772795484053789400,3.81678955078125,0.010605093091726303,0.06743411719799042,-0.010457913391292095
1772795484063781400,3.826781494140625,0.011048242449760437,0.05897831544280052,-0.009858702309429646
1772795484073773300,3.836773193359375,0.0073296376504004,0.046551309525966644,-0.004533913917839527
1772795484083766500,3.8467666015625,0.005477942060679197,0.03376973420381546,-0.0015855280216783285
1772795484093758500,3.856758544921875,-0.0004264992894604802,0.01544669084250927,0.0006370474002324045
1772795484103750700,3.866750732421875,-0.001973795937374234,0.0031298366375267506,0.002293000929057598
1772795484113742600,3.87674267578125,-0.0059120021760463715,-0.0068795750848948956,0.003736810525879264
1772795484123734500,3.886734619140625,-0.00834187027066946,-0.008403168991208076,0.006878541316837072
1772795484133727500,3.8967275390625,-0.01028473861515522,-0.013602822087705135,0.009189464151859283
1772795484143719700,3.9067197265625,-0.007437819615006447,-0.010223004035651684,0.008106091059744358
1772795484153711600,3.916711669921875,-0.010378606617450714,-0.008718842640519142,0.013089027255773544
1772795484163703800,3.926703857421875,-0.01053093932569027,-0.008249327540397644,0.011636272072792053
1772795484173695500,3.936695556640625,-0.016039986163377762,-0.0075871641747653484,0.011704778298735619
1772795484183687700,3.946687744140625,-0.016975820064544678,-0.006928298156708479,0.006867146119475365
1772795484193680600,3.9566806640625,-0.01749645546078682,-0.0024343300610780716,0.0014096770901232958
1772795484203672600,3.966672607421875,-0.015065521001815796,0.005102415569126606,-0.0017216678243130445
1772795484213664500,3.97666455078125,-0.008015178143978119,0.013141592964529991,-0.004155222326517105
1772795484223656700,3.98665673828125,-0.0018222637008875608,0.02347838506102562,-0.006110781338065863
1772795484233648600,3.996648681640625,-0.0018430190393701196,0.039256028831005096,-0.00840477179735899
1772795484243641600,4.0066416015625,0.004153088200837374,0.05201390013098717,-0.008133395574986935
1772795484253633500,4.016633544921875,0.005947053898125887,0.06568890064954758,-0.007613848429173231
1772795484263625700,4.026625732421875,0.0071244374848902225,0.07497428357601166,-0.009516410529613495
1772795484273617400,4.036617431640625,0.003257417818531394,0.07508069276809692,-0.009794136509299278
1772795484283609600,4.046609619140625,0.0004112974274903536,0.06978446990251541,-0.009061500430107117
1772795484293601500,4.0566015625,-0.0032758815214037895,0.06089947000145912,-0.008008156903088093
1772795484303594500,4.066594482421875,-0.000605263514444232,0.04354631155729294,-0.009089400060474873
1772795484313586400,4.07658642578125,0.0006880639120936394,0.024228760972619057,-0.007271450012922287
1772795484323578600,4.08657861328125,0.006448214873671532,0.0019466248340904713,-0.003676182823255658
1772795484333570600,4.096570556640625,0.009915761649608612,-0.02675122395157814,-0.00023941538529470563
1772795484343562500,4.1065625,0.012649495154619217,-0.049770787358284,-0.0008258433663286269
1772795484353555700,4.1165556640625,0.011630289256572723,-0.07498521357774734,0.0034814071841537952
1772795484363547600,4.126547607421875,0.006183858495205641,-0.0919002816081047,0.005930449813604355
1772795484373539600,4.13653955078125,0.004820757545530796,-0.10412148386240005,0.008753588423132896
1772795484383531500,4.146531494140625,0.001080614048987627,-0.10985367745161057,0.011639922857284546
1772795484393523700,4.156523681640625,0.00024215434677898884,-0.10633266717195511,0.012146912515163422
1772795484403516400,4.166516357421875,-0.0011107315076515079,-0.09792293608188629,0.01270724181085825
1772795484413508600,4.176508544921875,-0.0011530757183209062,-0.08159243315458298,0.012147977948188782
1772795484423500500,4.18650048828125,-0.0027453796938061714,-0.06046291068196297,0.00598568981513381
1772795484433492700,4.19649267578125,-0.0027414767537266016,-0.04130902513861656,0.005262472201138735
1772795484443484700,4.206484619140625,-0.004097292199730873,-0.012727446854114532,0.0050715235993266106
1772795484453476600,4.2164765625,-0.005511821247637272,0.014255707152187824,0.0017824146198108792
1772795484463469600,4.226469482421875,-0.007056188769638538,0.03747474402189255,-0.002296216320246458
1772795484473461500,4.23646142578125,-0.0060990662313997746,0.054448388516902924,-0.00216977228410542
1772795484483453400,4.246453369140625,-0.003988510929048061,0.06383869051933289,-0.0041088201105594635
1772795484493445600,4.256445556640625,-0.006883740425109863,0.06563075631856918,-0.0053986371494829655
1772795484503437600,4.2664375,-0.005906892940402031,0.06356813758611679,-0.005239912774413824
1772795484513430500,4.276430419921875,-0.006690209731459618,0.04913399741053581,-0.004028637427836657
1772795484523422500,4.28642236328125,-0.006705656182020903,0.037774816155433655,-0.003120233304798603
1772795484533414700,4.29641455078125,-0.008214851841330528,0.022703731432557106,0.0034410525113344193
1772795484543406600,4.306406494140625,-0.016427241265773773,0.007937569171190262,0.00801742821931839
1772795484553398500,4.3163984375,-0.017580518499016762,-0.004334928933531046,0.008880279026925564
1772795484563390500,4.326390380859375,-0.0212362390011549,-0.012237060815095901,0.010413194075226784
1772795484573383700,4.3363837890625,-0.029192226007580757,-0.01404980942606926,0.008215588517487049
1772795484583375600,4.346375732421875,-0.030488653108477592,-0.015239976346492767,0.006970560643821955
1772795484593367600,4.356367431640625,-0.028909554705023766,-0.008756134659051895,0.0034855064004659653
1772795484603359700,4.36635986328125,-0.027933772653341293,0.0011561503633856773,0.0052671609446406364
1772795484613351700,4.3763515625,-0.02722778730094433,0.010100364685058594,-0.000693315698299557
1772795484623344600,4.3863447265625,-0.018893957138061523,0.019726360216736794,0.0014116468373686075
1772795484633336600,4.396336669921875,-0.018688829615712166,0.029622728005051613,-0.0031502083875238895
1772795484643328800,4.406328857421875,-0.01829441450536251,0.044444549828767776,-0.0011262060143053532
1772795484653320400,4.416320556640625,-0.01601834036409855,0.054978564381599426,-0.002629306400194764
1772795484663312600,4.426312744140625,-0.014499539509415627,0.06018238142132759,-0.0039566257037222385
1772795484673304600,4.4363046875,-0.015014278702437878,0.056173697113990784,-0.004489000421017408
1772795484683297500,4.446297607421875,-0.015288317576050758,0.0565718412399292,-0.003584591206163168
1772795484693289500,4.45628955078125,-0.019634848460555077,0.04960223287343979,0.00040310766780748963
1772795484703281700,4.46628173828125,-0.017578355967998505,0.03865264728665352,0.00127635826356709
1772795484713273600,4.476273681640625,-0.016011599451303482,0.02684180438518524,0.0031688562594354153
1772795484723265500,4.486265625,-0.011115645058453083,0.008038291707634926,0.0023179762065410614
1772795484733258500,4.496258544921875,-0.002426737453788519,-0.011418018490076065,-0.0012892544036731124
1772795484743250700,4.506250732421875,0.01213915552943945,-0.03622882440686226,-0.005317019298672676
1772795484753242400,4.516242431640625,0.0259961299598217,-0.05824050307273865,-0.008264990523457527
1772795484763234600,4.526234619140625,0.034199465066194534,-0.07336938381195068,-0.004561333451420069
1772795484773226500,4.5362265625,0.04315125569701195,-0.09053761512041092,-0.003910232335329056
1772795484783219500,4.546219482421875,0.04633932560682297,-0.09823521226644516,-0.0011764976661652327
1772795484793211600,4.556211669921875,0.04765719920396805,-0.0969928428530693,0.001011716783978045
1772795484803203600,4.56620361328125,0.042407579720020294,-0.09049179404973984,0.0025520892813801765
1772795484813195800,4.57619580078125,0.034648146480321884,-0.06998923420906067,0.00438159704208374
1772795484823187700,4.586187744140625,0.025991808623075485,-0.044690538197755814,0.005535012576729059
1772795484833179400,4.596179443359375,0.014333819970488548,-0.011995706707239151,0.005700927227735519
1772795484843172600,4.606172607421875,0.007603746373206377,0.025152994319796562,-0.0007007794338278472
1772795484853164800,4.616164794921875,-0.002699914388358593,0.05994544178247452,-0.002851057332009077
1772795484863156500,4.626156494140625,-0.010366089642047882,0.08720742166042328,-0.003160516731441021
1772795484873148700,4.636148681640625,-0.01272142119705677,0.10408344119787216,-0.0035569986794143915
1772795484883140600,4.646140625,-0.013604791834950447,0.10807765275239944,-0.003469114424660802
1772795484893133600,4.656133544921875,-0.015552987344563007,0.09752478450536728,-0.0033015015069395304
1772795484903125500,4.66612548828125,-0.010938262566924095,0.07959691435098648,-0.005455465987324715
1772795484913117700,4.67611767578125,-0.012441559694707394,0.05305299162864685,-0.0026553627103567123
1772795484923109600,4.686109619140625,-0.010244451463222504,0.01918957009911537,-0.0014492170885205269
1772795484933101600,4.6961015625,-0.011281076818704605,-0.00762553047388792,0.00014484472922049463
1772795484943093500,4.706093505859375,-0.010601704940199852,-0.031806766986846924,0.0029017492197453976
1772795484953086700,4.716086669921875,-0.01056166086345911,-0.0455617718398571,0.003777206176891923
1772795484963078400,4.726078369140625,-0.010421046055853367,-0.05158477649092674,0.00808007549494505
1772795484973070600,4.736070556640625,-0.007425774820148945,-0.04485481604933739,0.009743900038301945
1772795484983062500,4.7460625,-0.001693853409960866,-0.03200959041714668,0.007516698446124792
1772795484993054700,4.7560546875,0.0009468912612646818,-0.014820002019405365,0.004955984652042389
1772795485003047700,4.766047607421875,0.0071038538590073586,0.0014207535423338413,0.0021697853226214647
1772795485013039600,4.77603955078125,0.012530827894806862,0.015971846878528595,-0.002294618636369705
1772795485023031600,4.786031494140625,0.019821764901280403,0.02791425958275795,-0.007395903579890728
1772795485033023500,4.7960234375,0.020650573074817657,0.0296460147947073,-0.007914483547210693
1772795485043015400,4.806015380859375,0.019840173423290253,0.02568509243428707,-0.01018615998327732
1772795485053007600,4.816007568359375,0.015743602067232132,0.024432649835944176,-0.008216298185288906
1772795485063000600,4.82600048828125,0.011471092700958252,0.012516602873802185,-0.011474675498902798
1772795485072992500,4.835992431640625,0.009872851893305779,0.0004991418682038784,-0.005918542854487896
1772795485082984700,4.845984619140625,0.006465070880949497,-0.011734355241060257,-0.002392518101260066
1772795485092977000,4.855976806640625,0.0015454597305506468,-0.023266326636075974,0.0006251941667869687
1772795485102968600,4.865968505859375,-0.002672721166163683,-0.032303228974342346,0.0008094849181361496
1772795485112961800,4.8759619140625,-0.002325789537280798,-0.03810354322195053,0.005211136303842068
1772795485122953700,4.88595361328125,-0.003940996713936329,-0.03870940953493118,0.005051346495747566
1772795485132945700,4.895945556640625,-0.004071458242833614,-0.03662678599357605,0.005332425236701965
1772795485142937600,4.9059375,-0.0025595815386623144,-0.03249062970280647,0.004769166931509972
1772795485152929800,4.9159296875,-0.0013986192643642426,-0.02613556571304798,0.0037283943966031075
1772795485162921700,4.925921630859375,-0.0024537635035812855,-0.019072595983743668,0.004226937890052795
1772795485172914700,4.935914794921875,0.0014781306963413954,-0.010942637920379639,0.0023362685460597277
1772795485182906600,4.94590673828125,-0.00046571053098887205,-0.012399652972817421,0.0021985832136124372
1772795485192898800,4.95589892578125,0.003619671566411853,-0.010461042635142803,0.0016826300416141748
1772795485202890800,4.965890869140625,0.0032002239022403955,-0.0024888701736927032,0.0015547983348369598
1772795485212882700,4.975882568359375,-0.002056213328614831,0.0008625607006251812,-0.0013872378040105104
1772795485222876000,4.9858759765625,-0.0028961743228137493,0.007149750832468271,-0.0012724555563181639
1772795485232867800,4.995867919921875,-0.007219770923256874,0.01639043726027012,0.0007377826259471476
1772795485242859500,5.005859619140625,-0.01068960316479206,0.030865782871842384,0.002240870613604784
1772795485252851700,5.015851806640625,-0.01625128462910652,0.05097510293126106,0.0008234103443101048
1772795485262843600,5.02584375,-0.019214583560824394,0.06364935636520386,-0.002892764750868082
1772795485272835800,5.0358359375,-0.014759507030248642,0.07237601280212402,-0.00809029396623373
1772795485282828800,5.045828857421875,-0.010890200734138489,0.0731925368309021,-0.012372124940156937
1772795485292820700,5.05582080078125,-0.0030934831593185663,0.06893232464790344,-0.012601605616509914
1772795485302813000,5.06581298828125,0.0031409768853336573,0.05111098289489746,-0.010888926684856415
1772795485312804600,5.0758046875,0.005688993725925684,0.02996765449643135,-0.006091053131967783
1772795485322796800,5.085796875,0.00307643273845315,0.010832310654222965,0.0004661823040805757
1772795485332789800,5.095789794921875,0.0005926263984292746,-0.0124109648168087,0.003678593086078763
1772795485342781700,5.10578173828125,-0.0027339281514286995,-0.03365260362625122,0.00743072060868144
1772795485352773600,5.115773681640625,-0.0042570182122290134,-0.04806061089038849,0.007620841730386019
1772795485362765800,5.125765869140625,-0.005143851041793823,-0.055425047874450684,0.008525251410901546
1772795485372757800,5.1357578125,-0.002934951102361083,-0.05844658240675926,0.004965251311659813
1772795485382750700,5.145750732421875,0.0013034697622060776,-0.05095377936959267,0.004439277108758688
1772795485392742700,5.15574267578125,0.004067050293087959,-0.04686741530895233,0.0028081450145691633
1772795485402734800,5.16573486328125,0.008395752869546413,-0.028661780059337616,0.004281139466911554
1772795485412726500,5.1757265625,0.009188059717416763,-0.013078548014163971,0.0030529461801052094
1772795485422718700,5.18571875,0.00874544307589531,0.007154819089919329,-0.002127967542037368
1772795485432710700,5.195710693359375,0.006391223520040512,0.024751005694270134,-0.0022151723969727755
1772795485442703600,5.20570361328125,0.0031682660337537527,0.03696080297231674,-0.0066946097649633884
1772795485452695600,5.215695556640625,-0.0003671906888484955,0.0465422123670578,-0.006623194552958012
1772795485462687700,5.225687744140625,-0.005559556186199188,0.04944905266165733,-0.007274603936821222
1772795485472679700,5.2356796875,-0.011293231509625912,0.04736257717013359,-0.0025328875053673983
1772795485482671600,5.245671630859375,-0.010291616432368755,0.036496613174676895,-0.0022782892920076847
1772795485492663600,5.25566357421875,-0.008351081050932407,0.024361809715628624,0.00048345071263611317
1772795485502656800,5.26565673828125,-0.006244520656764507,0.009466217830777168,0.0014384603127837181
1772795485512648700,5.275648681640625,0.001159006031230092,-0.008602995425462723,0.003852651920169592
1772795485522640600,5.285640625,0.005016328301280737,-0.03006194718182087,0.003920828923583031
1772795485532632800,5.2956328125,0.01026394497603178,-0.04626116529107094,-0.0006621008506044745
1772795485542624800,5.305624755859375,0.008414380252361298,-0.062441203743219376,0.007216061931103468
1772795485552617700,5.31561767578125,0.00456548435613513,-0.06259216368198395,0.005571483168751001
1772795485562609700,5.325609619140625,0.0005068269092589617,-0.062327705323696136,0.006286009680479765
1772795485572601900,5.335601806640625,-0.0028026835061609745,-0.050407130271196365,0.004052682314068079
1772795485582593800,5.34559375,-0.008070948533713818,-0.03745804354548454,0.003598347306251526
1772795485592585700,5.355585693359375,-0.0054869758896529675,-0.018708156421780586,0.0016807029023766518
1772795485602578700,5.36557861328125,-0.0017979652620851994,-0.0042192284017801285,-0.005371613893657923
1772795485612571000,5.37557080078125,0.00016199657693505287,0.007897628471255302,-0.0025788613129407167
1772795485622562600,5.3855625,0.0030536565463989973,0.018247738480567932,-0.005917400121688843
1772795485632554800,5.3955546875,0.004683902487158775,0.028104623779654503,-0.0023007229901850224
1772795485642546700,5.405546630859375,0.007420300506055355,0.032086048275232315,-0.0022842111065983772
1772795485652539000,5.415538818359375,0.004219510592520237,0.03744412586092949,-0.005070269573479891
1772795485662531600,5.425531494140625,0.0023108231835067272,0.03667793422937393,-0.005130190402269363
1772795485672523800,5.435523681640625,0.0026633304078131914,0.03374317288398743,-0.0015706873964518309
1772795485682515700,5.445515625,-0.0002712066052481532,0.03213728591799736,-0.0015879981219768524
1772795485692507600,5.455507568359375,-0.0017992825014516711,0.029568444937467575,-0.001483784057199955
1772795485702499600,5.46549951171875,-0.001968925818800926,0.029379360377788544,-0.005077720154076815
1772795485712492800,5.475492919921875,-0.0030650494154542685,0.03155067190527916,-0.006111710332334042
1772795485722484700,5.485484619140625,-0.0015616950113326311,0.026103971526026726,-0.006028086878359318
1772795485732476700,5.4954765625,-0.0026456015184521675,0.023978237062692642,-0.007157001178711653
1772795485742468900,5.50546875,-0.00011107116006314754,0.015449197962880135,-0.00415934668853879
1772795485752460800,5.515460693359375,-0.0006439076969400048,0.0075935982167720795,-0.003029405605047941
1772795485762452500,5.525452392578125,-0.000510483281686902,-0.0038891532458364964,0.0010215286165475845
1772795485772445700,5.53544580078125,-0.0013228750322014093,-0.010815623216331005,0.005501484498381615
1772795485782438000,5.54543798828125,0.0014087292365729809,-0.024125836789608,0.004046865738928318
1772795485792429600,5.5554296875,0.003173812059685588,-0.03680934011936188,0.005045053083449602
1772795485802421800,5.565421875,0.00041610863991081715,-0.04709979519248009,0.005026943515986204
1772795485812413700,5.57541357421875,0.0015955909620970488,-0.05571874976158142,0.005177208688110113
1772795485822406700,5.58540673828125,0.0024536617565900087,-0.05722663179039955,0.00491968123242259
1772795485832398600,5.595398681640625,0.004308396950364113,-0.05668962374329567,0.004751061089336872
1772795485842390800,5.605390869140625,0.005512411706149578,-0.04948124662041664,0.009317051619291306
1772795485852382700,5.6153828125,0.003414248814806342,-0.031985338777303696,0.00905302632600069
1772795485862374700,5.625374755859375,0.00008023739792406559,-0.01913878135383129,0.006363234482705593
1772795485872366600,5.63536669921875,-0.002546265721321106,0.0011485549621284008,0.001054057152941823
1772795485882359800,5.64535986328125,-0.0021372041665017605,0.017258282750844955,-0.006103987339884043
1772795485892351700,5.655351806640625,-0.0020255239214748144,0.0320596918463707,-0.008275097236037254
1772795485902343700,5.66534375,-0.0008534668013453484,0.04045557230710983,-0.011933214962482452
1772795485912335600,5.675335693359375,0.0034737158566713333,0.04395437613129616,-0.005632421001791954
1772795485922327800,5.685327880859375,0.0076833744533360004,0.040816374123096466,-0.006145079620182514
1772795485932320800,5.69532080078125,0.008259117603302002,0.035101864486932755,-0.0059516713954508305
1772795485942312700,5.705312744140625,0.008196533657610416,0.026126746088266373,-0.005174560938030481
1772795485952304600,5.7153046875,0.005930904299020767,0.018596980720758438,-0.0018887737533077598
1772795485962296800,5.725296875,0.0016653193160891533,0.011478884145617485,-0.0010221812408417463
1772795485972288500,5.73528857421875,-0.0001870191190391779,0.003260525409132242,-0.0015355966752395034
1772795485982280700,5.74528076171875,-0.0038147771265357733,0.0035510766319930553,-0.003436827566474676
1772795485992274000,5.75527392578125,-0.003112626262009144,-0.000635138712823391,-0.001334100030362606
1772795486002265600,5.765265625,0.0010163385886698961,-0.004397386685013771,-0.0007284971070475876
1772795486012257800,5.7752578125,0.004305858165025711,-0.008389478549361229,-0.0005397357163019478
1772795486022249700,5.785249755859375,0.0065889861434698105,-0.013492894358932972,0.0030171822290867567
1772795486032242000,5.795241943359375,0.007754700258374214,-0.01872449368238449,0.0020187576301395893
1772795486042234600,5.805234619140625,0.003726669354364276,-0.022316832095384598,0.0010427089873701334
1772795486052226800,5.815226806640625,0.0013723222073167562,-0.023380205035209656,0.0028130444698035717
1772795486062218800,5.82521875,-0.0028019165620207787,-0.020543405786156654,0.0026189000345766544
1772795486072210700,5.835210693359375,-0.0029138613026589155,-0.017789529636502266,0.00548189552500844
1772795486082202600,5.84520263671875,-0.009177349507808685,-0.01547044888138771,0.008757583796977997
1772795486092194800,5.85519482421875,-0.004176324233412743,-0.008241024799644947,0.0042769769206643105
1772795486102187300,5.865187255859375,-0.004222663585096598,-0.008623721078038216,0.0011930360924452543
1772795486112179000,5.875178955078125,-0.001655407715588808,-0.0010005868971347809,-0.0008522087591700256
1772795486122171100,5.885171142578125,-0.000917179393582046,0.0047140237875282764,-0.000990426866337657
1772795486132163000,5.8951630859375,0.0014761884231120348,0.008640440180897713,-0.0024886010214686394
1772795486142155300,5.9051552734375,0.003659980371594429,0.013948386535048485,-0.004639902617782354
1772795486152148200,5.915148193359375,0.0007644351571798325,0.02123011089861393,-0.003335261717438698
1772795486162140200,5.92514013671875,-0.0022880800534039736,0.02021624706685543,-0.00456723989918828
1772795486172132000,5.935132080078125,-0.00038376322481781244,0.021655840799212456,-0.004948296584188938
1772795486182124000,5.9451240234375,0.0020588883198797703,0.02312350831925869,-0.0050979661755263805
1772795486192116000,5.955115966796875,0.002726887119933963,0.01816944032907486,-0.002613482531160116
1772795486202109200,5.965109130859375,0.0030014587100595236,0.016323070973157883,-0.0027112204115837812
1772795486212101000,5.97510107421875,0.0028560820501297712,0.010709559544920921,-0.0008060574764385819
1772795486222093000,5.985093017578125,0.003357821376994252,0.003735540434718132,0.0017766761593520641
1772795486232085200,5.995085205078125,0.0013199073728173971,-0.0027671633288264275,0.00033043831354007125
1772795486242077200,6.0050771484375,0.002988644177094102,-0.012323916889727116,0.0002332329167984426
1772795486252069000,6.015069091796875,0.0002522605936974287,-0.01934093050658703,0.00009063445031642914
1772795486262062000,6.02506201171875,0.0013026113156229258,-0.02109195850789547,-0.0009565204964019358
1772795486272054300,6.03505419921875,0.0017821365036070347,-0.02394670993089676,-0.00003449193900451064
1772795486282046000,6.0450458984375,-0.0017327035311609507,-0.02324097231030464,-0.0007330390508286655
1772795486292038100,6.0550380859375,-0.0023679749574512243,-0.01944621279835701,-0.0006814214866608381
1772795486302030000,6.065030029296875,-0.0017290825489908457,-0.014922832138836384,0.00029942073160782456
1772795486312022300,6.075022216796875,0.00008752127178013325,-0.01034998893737793,0.0003736863436643034
1772795486322015000,6.085014892578125,-0.000576937454752624,-0.0033048628829419613,0.0004802127950824797
1772795486332007200,6.095007080078125,-0.0020449822768568993,0.00037418538704514503,0.00020435143960639834
1772795486341999000,6.1049990234375,-0.0016740038990974426,0.007099732290953398,0.00261637638323009
1772795486351991300,6.1149912109375,-0.0019269720651209354,0.009464249946177006,-0.003922013565897942
1772795486361983000,6.12498291015625,0.002006782917305827,0.0066287824884057045,-0.0011872133472934365
1772795486371976200,6.13497607421875,0.001596030779182911,0.0024981251917779446,-0.002602051477879286
1772795486381968100,6.144968017578125,0.003509245812892914,-0.003664962016046047,-0.0030414732173085213
1772795486391960000,6.1549599609375,0.002542173257097602,-0.004667320288717747,-0.00022573384921997786
1772795486401952000,6.164951904296875,0.003560299752280116,-0.009449026547372341,-0.0000861842418089509
1772795486411944200,6.174944091796875,0.0000884153414517641,-0.006372597999870777,0.003590596839785576
1772795486421936000,6.18493603515625,0.001429316820576787,-0.003674016799777746,0.0028931149281561375
1772795486431929000,6.19492919921875,0.002257620682939887,-0.005073843523859978,0.0018496522679924965
1772795486441921300,6.20492138671875,0.0001529245637357235,0.0006884383037686348,0.0016975859180092812
1772795486451913200,6.214913330078125,0.0014115199446678162,0.00810439232736826,0.0010399044258520007
1772795486461905200,6.2249052734375,-0.00513958977535367,0.013818470761179924,-0.0014717228477820754
1772795486471897000,6.23489697265625,-0.005916371010243893,0.020784031599760056,-0.0017837039195001125
1772795486481890300,6.244890380859375,-0.005660174414515495,0.023896735161542892,-0.0005266917869448662
1772795486491882000,6.254882080078125,-0.006409370340406895,0.022283479571342468,-0.0017946171574294567
1772795486501874200,6.264874267578125,-0.0030852127820253372,0.019661331549286842,-0.0037123593501746655
1772795486511866000,6.2748662109375,-0.0011596371186897159,0.015896262601017952,-0.0012329986784607172
1772795486521858300,6.2848583984375,0.0005796733312308788,0.007070013787597418,-0.0013528410345315933
1772795486531851000,6.29485107421875,0.004055161960422993,0.0003461260348558426,-0.0007031553541310132
1772795486541843200,6.30484326171875,0.006630172021687031,-0.0035450183786451817,-0.000949497742112726
1772795486551835100,6.314835205078125,0.0020849236752837896,-0.003196840872988105,0.001362455077469349
1772795486561827000,6.3248271484375,-0.0015007564797997475,-0.0006793546490371227,-0.0016320032300427556
1772795486571819000,6.334819091796875,-0.003811502829194069,0.0026250402443110943,-0.0014807148836553097
1772795486581811200,6.344811279296875,-0.002616009907796979,0.008525274693965912,-0.002168342936784029
1772795486591804000,6.354803955078125,-0.0012153156567364931,0.009908400475978851,-0.003120435867458582
1772795486601796000,6.364796142578125,-0.0015767066506668925,0.014986783266067505,0.0010769723448902369
1772795486611788000,6.3747880859375,0.0007909100968390703,0.0134455356746912,0.0007108376594260335
1772795486621780200,6.3847802734375,0.000742174219340086,0.009141335263848305,0.0012575846631079912
1772795486631772200,6.394772216796875,0.002607247792184353,0.0024031992070376873,0.0005640603485517204
1772795486641765000,6.40476513671875,0.0018093651160597801,-0.006381503771990538,-0.0021294609177857637
1772795486651757300,6.41475732421875,0.002254048828035593,-0.01384773664176464,-0.0006448884378187358
1772795486661749200,6.424749267578125,0.0006838489789515734,-0.023262541741132736,-0.00047231564531102777
1772795486671741200,6.4347412109375,-0.0004934074822813272,-0.02923802100121975,0.0004057431942783296
1772795486681733000,6.444733154296875,-0.001084362855181098,-0.032825566828250885,0.00456986203789711
1772795486691725000,6.45472509765625,-0.003479547332972288,-0.029234761372208595,0.005205167457461357
1772795486701718000,6.464718017578125,-0.0018337136134505272,-0.02710529789328575,0.007374311797320843
1772795486711710200,6.474710205078125,0.0001324196346104145,-0.014813155867159367,0.0029515798669308424
1772795486721702100,6.4847021484375,-0.0016518982592970133,-0.009136628359556198,0.005586777813732624
1772795486731694300,6.4946943359375,-0.0007820940809324384,-0.001128355972468853,0.00046326746814884245
1772795486741686000,6.50468603515625,0.0004474874585866928,0.004156953189522028,-0.004554926883429289
1772795486751679200,6.51467919921875,-0.0010918666375800967,0.008634746074676514,-0.005605627316981554
1772795486761671200,6.524671142578125,-0.002523581963032484,0.014126450754702091,-0.003978169523179531
1772795486771663000,6.5346630859375,-0.004240414127707481,0.017000246793031693,-0.004253759048879147
1772795486781655000,6.544655029296875,-0.0010307722259312868,0.01703832857310772,-0.0004451725399121642
1772795486791647200,6.554647216796875,-0.0017615435644984245,0.05025726929306984,0.018838245421648026
1772795486801639200,6.56463916015625,-0.004763725213706493,0.14334087073802948,0.06814693659543991
1772795486811632000,6.574632080078125,-0.007107477635145187,0.23288296163082123,0.08109850436449051
1772795486821624000,6.5846240234375,-0.006231297738850117,0.27182236313819885,0.03837793692946434
1772795486831616300,6.5946162109375,0.0072898054495453835,0.2511883080005646,-0.036608628928661346
1772795486841608000,6.60460791015625,0.021033048629760742,0.18006911873817444,-0.10042969137430191
1772795486851600100,6.61460009765625,0.03448303043842316,0.08105088025331497,-0.12531594932079315
1772795486861593300,6.62459326171875,0.031391631811857224,-0.035916753113269806,-0.1046985536813736
1772795486871585000,6.6345849609375,0.007564738392829895,-0.15628603100776672,-0.053133197128772736
1772795486881577000,6.644576904296875,-0.0015632461290806532,-0.24156177043914795,0.020359395071864128
