time,seconds_elapsed,z,y,x
1772721617313135600,0.092135498046875,0,0,0
1772721617331731200,0.110731201171875,-0.1898488998413086,-0.002825021743774414,0.03673863410949707
1772721617350326800,0.129326904296875,-0.43198204040527344,-0.08274757862091064,0.05144762992858887
1772721617368922400,0.14792236328125,-0.4072895050048828,-0.20864790678024292,0.21133697032928467
1772721617387518000,0.16651806640625,-0.09793472290039062,-0.22595983743667603,-0.023642301559448242
1772721617406113300,0.18511328125,-0.14560890197753906,-0.32089781761169434,0.10974228382110596
1772721617424709000,0.203709228515625,-0.4718303680419922,-0.5204454064369202,0.5133835077285767
1772721617443304400,0.222304443359375,-0.725804328918457,-0.49250853061676025,0.43881070613861084
1772721617461900000,0.240900146484375,-1.0127086639404297,0.2210397720336914,0.8497185707092285
1772721617480495600,0.25949560546875,-1.0620784759521484,-0.06747853755950928,0.822088897228241
1772721617499091200,0.27809130859375,-0.5852823257446289,-0.3459087014198303,0.22944217920303345
1772721617517686800,0.296686767578125,-0.20633983612060547,-0.7057920098304749,-0.22207635641098022
1772721617536282400,0.315282470703125,0.47662353515625,-0.6901126503944397,-0.6495409607887268
1772721617554878000,0.3338779296875,1.0716257095336914,-0.8254145979881287,-0.22386252880096436
1772721617573473500,0.3524736328125,1.05206298828125,-0.5586205124855042,0.8187523484230042
1772721617592069000,0.371069091796875,0.9071331024169922,-0.5176209211349487,1.13815176486969
1772721617610664400,0.38966455078125,0.13228988647460938,-0.3831508457660675,1.2467085123062134
1772721617629260300,0.40826025390625,-0.7771768569946289,-0.5618913173675537,0.7682461142539978
1772721617647855600,0.426855712890625,-1.5587005615234375,-0.47475406527519226,-0.01736895740032196
1772721617666451200,0.445451171875,-2.2703351974487305,-0.36333510279655457,-1.157273530960083
1772721617685046800,0.464046875,-2.352126121520996,-0.27494537830352783,-1.6350215673446655
1772721617703642400,0.482642333984375,-2.2171759605407715,-0.14903724193572998,-2.353271961212158
1772721617722238000,0.501238037109375,-1.0728750228881836,0.03633338212966919,-0.608019232749939
1772721617740833500,0.51983349609375,0.2585563659667969,0.4498371183872223,0.6127368211746216
1772721617759429000,0.53842919921875,0.7028188705444336,0.7846901416778564,0.47007817029953003
1772721617778024400,0.5570244140625,-0.1391315460205078,0.860274076461792,0.028474867343902588
1772721617796620000,0.5756201171875,-1.501504898071289,1.1273961067199707,-0.3455103635787964
1772721617815215600,0.594215576171875,-2.826503276824951,1.1534130573272705,0.03508448600769043
1772721617833811200,0.612811279296875,-3.4055261611938477,1.359782099723816,-0.33329176902770996
1772721617852406800,0.63140673828125,-1.9199819564819336,1.3580917119979858,-0.16313397884368896
1772721617871002400,0.65000244140625,1.1993207931518555,0.9763267040252686,0.6972323656082153
1772721617889598000,0.668597900390625,3.7841358184814453,0.6459187865257263,1.0812830924987793
1772721617908193300,0.687193359375,6.698251724243164,0.5310649871826172,0.5388607382774353
1772721617926789000,0.7057890625,10.82166576385498,-0.21536976099014282,-0.7002114057540894
1772721617945384400,0.724384521484375,13.16773796081543,-1.7409685850143433,0.18934214115142822
1772721617963980000,0.74297998046875,13.125008583068848,-2.2133734226226807,1.2065629959106445
1772721617982575600,0.76157568359375,10.66166877746582,-1.9067912101745605,1.7490472793579102
1772721618001171200,0.780171142578125,6.420439720153809,-0.25950607657432556,1.7863799333572388
1772721618019766800,0.798766845703125,2.392902374267578,0.9221736192703247,1.4138286113739014
1772721618038362400,0.8173623046875,1.3465595245361328,1.3652580976486206,1.974238395690918
1772721618056958000,0.8359580078125,2.511707305908203,0.258436918258667,2.325268507003784
1772721618075553300,0.85455322265625,0.9913530349731445,-1.2466175556182861,0.44477033615112305
1772721618094148900,0.87314892578125,-1.4348363876342773,-1.1921913623809814,-1.5566731691360474
1772721618112744400,0.891744384765625,-3.132469654083252,-0.7871185541152954,-1.4926304817199707
1772721618131340000,0.910340087890625,-5.372042655944824,-0.16071057319641113,-1.2781922817230225
1772721618149935600,0.928935546875,-8.63432502746582,-0.11070585250854492,-2.1731624603271484
1772721618168531200,0.94753125,-10.950756072998047,0.2375050187110901,-3.345893144607544
1772721618187126500,0.96612646484375,-11.897150039672852,0.5610167384147644,-2.405970811843872
1772721618205722400,0.984722412109375,-12.257068634033203,0.9992228150367737,-0.7157655954360962
1772721618224317700,1.003317626953125,-12.011542320251465,1.4353957176208496,1.5174577236175537
1772721618242913300,1.021913330078125,-12.339534759521484,1.6104938983917236,1.609662652015686
1772721618261508900,1.0405087890625,-11.495306968688965,1.274647831916809,1.6257779598236084
1772721618280104400,1.0591044921875,-9.38050365447998,1.0863418579101562,1.489396333694458
1772721618298700000,1.077699951171875,-5.86381721496582,0.9771566390991211,1.4768695831298828
1772721618317295600,1.096295654296875,-1.7484130859375,0.23353302478790283,1.1243209838867188
1772721618335891200,1.11489111328125,1.0853805541992188,-1.0386724472045898,-0.10661149024963379
1772721618354486500,1.133486572265625,1.4551305770874023,-1.9585487842559814,-2.13643479347229
1772721618373082000,1.15208203125,1.7541847229003906,-1.6262569427490234,-3.964972496032715
1772721618391677700,1.170677734375,5.3642730712890625,0.01600569486618042,-3.849600315093994
1772721618410273300,1.189273193359375,11.202775001525879,0.3680999279022217,-2.079355239868164
1772721618428868900,1.207868896484375,14.976460456848145,-1.352609634399414,-1.4582189321517944
1772721618447464400,1.22646435546875,16.597431182861328,-2.0658349990844727,-2.8156557083129883
1772721618466059800,1.245059814453125,17.578243255615234,-2.689666509628296,-3.153439998626709
1772721618484655400,1.2636552734375,17.412960052490234,-1.8891472816467285,-2.82841157913208
1772721618503251000,1.2822509765625,15.180315017700195,-1.0832836627960205,-2.5817136764526367
1772721618521846500,1.300846435546875,12.033987045288086,0.09203076362609863,-1.644775629043579
1772721618540442000,1.319442138671875,7.665022850036621,1.7360211610794067,0.3309452533721924
1772721618559037700,1.33803759765625,2.8589916229248047,2.9130756855010986,2.979320526123047
1772721618577633000,1.356633056640625,-2.585010528564453,2.9452152252197266,3.908803701400757
1772721618596228600,1.375228515625,-7.194916725158691,1.8398258686065674,2.857492685317993
1772721618614824200,1.39382421875,-10.12060546875,0.400892436504364,1.6575862169265747
1772721618633419800,1.412419677734375,-10.493502616882324,-0.6015036106109619,0.5779711604118347
1772721618652015400,1.431015380859375,-10.408088684082031,-0.9066249132156372,0.43160098791122437
1772721618670611000,1.44961083984375,-11.212472915649414,-1.358139157295227,0.31602704524993896
1772721618689206500,1.46820654296875,-12.57853889465332,-1.6687272787094116,0.2778937816619873
1772721618707801900,1.4868017578125,-13.419252395629883,-1.6534966230392456,0.37048014998435974
1772721618726397400,1.5053974609375,-13.296141624450684,-1.4754358530044556,0.8245062232017517
1772721618744993000,1.523992919921875,-11.990118026733398,-1.3709602355957031,1.4953471422195435
1772721618763588600,1.542588623046875,-10.506962776184082,-1.2782177925109863,1.5407603979110718
1772721618782184200,1.56118408203125,-8.695128440856934,-1.0471398830413818,1.0060248374938965
1772721618800779800,1.57977978515625,-5.481395244598389,-1.021713376045227,0.5615180730819702
1772721618819375000,1.598375,-0.12903118133544922,-1.0986865758895874,1.4134819507598877
1772721618837970700,1.616970703125,4.6389007568359375,-1.0720804929733276,0.20634722709655762
1772721618856566300,1.635566162109375,5.1820783615112305,-0.6383346915245056,-1.2830476760864258
1772721618875161900,1.654161865234375,6.083636283874512,1.446012258529663,-1.8668584823608398
1772721618893757400,1.67275732421875,9.923819541931152,3.121061325073242,-1.8283467292785645
1772721618912352800,1.691352783203125,15.13327407836914,-0.18430279195308685,-1.8963003158569336
1772721618930948400,1.7099482421875,15.189536094665527,-1.0771273374557495,-2.8127758502960205
1772721618949544000,1.7285439453125,10.29759407043457,-0.6292939782142639,-3.102407932281494
1772721618968139500,1.747139404296875,8.847094535827637,0.25116395950317383,-3.503218650817871
1772721618986735000,1.765735107421875,7.629663467407227,0.7065654993057251,-2.3510866165161133
1772721619005330700,1.78433056640625,5.504783630371094,1.2672386169433594,-1.1755735874176025
1772721619023926000,1.802926025390625,5.090363502502441,0.6654114723205566,-0.9791587591171265
1772721619042521600,1.821521484375,3.9817934036254883,0.7421550154685974,-1.5569926500320435
1772721619061117200,1.8401171875,1.4737129211425781,1.1406582593917847,-0.9903380870819092
1772721619079712800,1.858712646484375,-1.6736869812011719,1.5296032428741455,-0.16637837886810303
1772721619098308000,1.87730810546875,-4.412808418273926,1.8985538482666016,0.4072458744049072
1772721619116904000,1.895904052734375,-5.697429656982422,2.079864501953125,0.9831490516662598
1772721619135499300,1.914499267578125,-6.7640275955200195,2.1661808490753174,0.7862402200698853
1772721619154094800,1.9330947265625,-7.454996585845947,1.9165328741073608,0.4120461940765381
1772721619172690400,1.9516904296875,-7.435525894165039,1.885286569595337,0.7347173094749451
1772721619191286000,1.9702861328125,-7.296808242797852,1.7421844005584717,1.770872712135315
1772721619209881300,1.98888134765625,-7.794629096984863,1.5444884300231934,2.5804331302642822
1772721619228477000,2.007476806640625,-8.770238876342773,1.2056328058242798,2.732872247695923
1772721619247072500,2.026072509765625,-9.330204963684082,0.8889888525009155,2.7263545989990234
1772721619265668000,2.044668212890625,-8.9219331741333,0.5598816871643066,2.530425548553467
1772721619284263700,2.063263671875,-7.891851902008057,0.5718175172805786,2.0144731998443604
1772721619302859000,2.08185888671875,-4.842412948608398,0.43765974044799805,1.4820573329925537
1772721619321454600,2.10045458984375,-1.0390625,0.18672770261764526,1.0114545822143555
1772721619340050200,2.11905029296875,2.4230270385742188,-0.03920423984527588,0.38158106803894043
1772721619358645800,2.137645751953125,4.937020301818848,-0.20747551321983337,-1.036853551864624
1772721619377241300,2.156241455078125,8.577186584472656,0.17992562055587769,-2.290144443511963
1772721619395836700,2.174836669921875,12.447741508483887,-0.14673274755477905,-1.8341329097747803
1772721619414432300,2.193432373046875,14.32137680053711,-2.2297933101654053,-1.9614977836608887
1772721619433027800,2.21202783203125,12.862956047058105,-2.626107931137085,-2.140847682952881
1772721619451623400,2.23062353515625,9.576390266418457,-1.9651254415512085,-2.9227378368377686
1772721619470219000,2.249218994140625,8.249095916748047,-1.3235533237457275,-3.5332865715026855
1772721619488814300,2.267814453125,7.198124885559082,-0.47535380721092224,-3.1321041584014893
1772721619507410000,2.286409912109375,5.594699859619141,0.2759498357772827,-2.967471122741699
1772721619526005500,2.305005615234375,6.3457536697387695,-0.7663999795913696,-2.479755401611328
1772721619544601000,2.32360107421875,3.500920295715332,-1.0980952978134155,-1.279205083847046
1772721619563196400,2.342196533203125,-0.8775320053100586,-0.5449895858764648,-0.3997375965118408
1772721619581792000,2.3607919921875,-2.8351306915283203,0.09113716334104538,0.3242673873901367
1772721619600387600,2.3793876953125,-4.167888164520264,0.4184175431728363,1.6200411319732666
1772721619618983200,2.397983154296875,-5.974054336547852,0.4207119643688202,2.7504966259002686
1772721619637578800,2.416578857421875,-8.040417671203613,0.1489725410938263,2.757020950317383
1772721619656174300,2.43517431640625,-9.469009399414062,0.058894798159599304,2.0021960735321045
1772721619674769700,2.453769775390625,-10.754073143005371,0.519701361656189,2.0967178344726562
1772721619693365200,2.472365234375,-11.77389144897461,0.7976193428039551,1.7657843828201294
1772721619711960800,2.4909609375,-12.222965240478516,0.6182228326797485,1.7140355110168457
1772721619730556400,2.509556396484375,-11.86874771118164,0.35504838824272156,1.6408265829086304
1772721619749151700,2.52815185546875,-11.785186767578125,0.17770665884017944,0.9438692331314087
1772721619767747300,2.546747314453125,-10.678364753723145,0.10023710131645203,0.06243407726287842
1772721619786343000,2.565343017578125,-7.808732986450195,0.17822138965129852,0.1419445276260376
1772721619804938500,2.5839384765625,-3.7621798515319824,0.09777790307998657,0.6933913230895996
1772721619823533800,2.602533935546875,-0.015257835388183594,-0.34691789746284485,0.5313559770584106
1772721619842129400,2.62112939453125,1.5551652908325195,-0.5858425498008728,-0.6834548711776733
1772721619860725000,2.63972509765625,2.0540599822998047,-0.41757631301879883,-1.523977279663086
1772721619879320600,2.658320556640625,4.481203079223633,1.1219147443771362,-2.3041296005249023
1772721619897916000,2.676916015625,9.783995628356934,1.304565668106079,-2.774545192718506
1772721619916511500,2.695511474609375,13.66557502746582,-1.5478993654251099,-1.9516527652740479
1772721619935107000,2.714107177734375,14.244646072387695,-2.2051236629486084,-2.8656816482543945
1772721619953702700,2.73270263671875,14.093842506408691,-2.37955641746521,-2.4451704025268555
1772721619972298000,2.751298095703125,13.754990577697754,-1.788822889328003,-1.0167077779769897
1772721619990893600,2.7698935546875,11.49793815612793,-0.7438716888427734,0.9492265582084656
1772721620009489200,2.7884892578125,9.161629676818848,-0.12136095762252808,2.7563886642456055
1772721620028084700,2.807084716796875,8.682125091552734,0.03116166591644287,3.220705509185791
1772721620046680000,2.82568017578125,8.565678596496582,0.48313069343566895,2.750138521194458
1772721620065275600,2.844275634765625,6.710762023925781,1.8110734224319458,1.643717646598816
1772721620083871200,2.862871337890625,4.411949157714844,3.0312066078186035,2.0089540481567383
1772721620102466800,2.881466796875,1.4191484451293945,2.7129671573638916,2.8714823722839355
1772721620121062100,2.900062255859375,-1.741623878479004,1.403965711593628,3.3324060440063477
1772721620139657700,2.91865771484375,-4.882732391357422,-0.2924743592739105,4.477894306182861
1772721620158253300,2.93725341796875,-7.8044328689575195,-1.8266280889511108,4.600774765014648
1772721620176849000,2.955848876953125,-12.203499794006348,-2.8044323921203613,3.805406093597412
1772721620195444200,2.9744443359375,-17.014270782470703,-3.2176475524902344,1.9981818199157715
1772721620214039800,2.993039794921875,-19.865013122558594,-2.8298754692077637,1.050610065460205
1772721620232635400,3.011635498046875,-17.19577407836914,-2.315816879272461,2.2848012447357178
1772721620251231000,3.03023095703125,-12.950543403625488,-2.0454938411712646,2.8455190658569336
1772721620269826300,3.048826416015625,-9.416610717773438,-1.6798994541168213,2.3520679473876953
1772721620288422000,3.067421875,-6.850762367248535,-1.5413291454315186,1.7002261877059937
1772721620307017500,3.086017578125,-4.731785774230957,-1.6869741678237915,0.5569919347763062
1772721620325613000,3.104613037109375,-3.301037311553955,-2.2871689796447754,-0.4033893346786499
1772721620344208400,3.12320849609375,-1.759857177734375,-2.2573952674865723,-1.6545934677124023
1772721620362804000,3.141803955078125,1.0108346939086914,-1.0389411449432373,-2.658386707305908
1772721620381399600,3.160399658203125,6.464347839355469,0.6524982452392578,-3.1061840057373047
1772721620399995100,3.1789951171875,9.986441612243652,1.5744431018829346,-3.0908331871032715
1772721620418590500,3.197590576171875,10.802457809448242,0.5940133333206177,-2.0955915451049805
1772721620437186000,3.21618603515625,12.817953109741211,0.5951347947120667,-1.4222111701965332
1772721620455781600,3.23478173828125,15.060099601745605,0.14553165435791016,-1.3442109823226929
1772721620474377000,3.253376953125,16.331886291503906,-0.3518798053264618,-2.1766207218170166
1772721620492972500,3.27197265625,15.599065780639648,-0.08370029926300049,-2.284263849258423
1772721620511568100,3.290568115234375,13.85778522491455,0.30613601207733154,-2.0101492404937744
1772721620530163700,3.309163818359375,11.410725593566895,0.4182446002960205,-1.1107444763183594
1772721620548759000,3.327759033203125,7.571967124938965,0.3439393639564514,-0.18638533353805542
1772721620567354600,3.346354736328125,3.0155229568481445,0.31515175104141235,0.0629725530743599
1772721620585950200,3.3649501953125,-0.5215253829956055,0.4335082769393921,-0.16822001338005066
1772721620604545800,3.3835458984375,-2.5199708938598633,0.5427913665771484,-0.09579376876354218
1772721620623141000,3.40214111328125,-5.414707183837891,0.36805838346481323,-0.41816282272338867
1772721620641736700,3.42073681640625,-8.240013122558594,0.28261661529541016,-0.46996015310287476
1772721620660332000,3.43933203125,-10.749086380004883,0.5839951634407043,-0.8563286066055298
1772721620678927600,3.457927734375,-12.536981582641602,0.6539449691772461,-0.7985828518867493
1772721620697523200,3.476523193359375,-13.119483947753906,0.22815491259098053,-0.2076512575149536
1772721620716118800,3.495118896484375,-12.547883987426758,-0.2602255642414093,0.1690993309020996
1772721620734714000,3.513714111328125,-11.297831535339355,-0.5459352135658264,0.6734343767166138
1772721620753309700,3.532309814453125,-9.440714836120605,-0.5525333881378174,1.9910800457000732
1772721620771905300,3.5509052734375,-8.298752784729004,-0.472818523645401,2.8017749786376953
1772721620790500900,3.5695009765625,-8.945541381835938,-0.5569882392883301,2.3256640434265137
1772721620809096200,3.58809619140625,-9.772061347961426,-0.8068259954452515,1.250556468963623
1772721620827691800,3.60669189453125,-9.336089134216309,-1.0201053619384766,0.5975491404533386
1772721620846287400,3.625287353515625,-6.5717878341674805,-1.2706162929534912,0.8798128366470337
1772721620864882700,3.643882568359375,-1.591722011566162,-1.3910812139511108,1.9840571880340576
1772721620883478300,3.662478271484375,4.007640838623047,-1.855604887008667,2.464585781097412
1772721620902073900,3.681073974609375,7.033536911010742,0.12933509051799774,-0.11341726779937744
1772721620920669400,3.69966943359375,9.747424125671387,0.7651240229606628,1.05755615234375
1772721620939264800,3.7182646484375,15.686251640319824,-0.258468359708786,2.508565902709961
1772721620957860400,3.7368603515625,19.430740356445312,-0.4933977723121643,1.8155080080032349
1772721620976455700,3.75545556640625,19.985183715820312,-0.4863566756248474,-0.5047842860221863
1772721620995051300,3.77405126953125,18.415096282958984,0.5205042362213135,-3.2071282863616943
1772721621013646800,3.792646728515625,17.072662353515625,1.6253392696380615,-5.0926618576049805
1772721621032242400,3.811242431640625,15.496999740600586,1.7442549467086792,-5.4673967361450195
1772721621050837800,3.829837646484375,11.42893123626709,1.9760541915893555,-3.283504009246826
1772721621069433300,3.848433349609375,5.072063446044922,2.429128408432007,-0.7926515340805054
1772721621088029000,3.86702880859375,-1.0205879211425781,2.6124343872070312,0.2891359031200409
1772721621106624300,3.885624267578125,-5.348599433898926,2.6089537143707275,0.3353583514690399
1772721621125219800,3.9042197265625,-8.291227340698242,2.263946294784546,0.083462655544281
1772721621143815400,3.9228154296875,-10.185331344604492,1.4217045307159424,0.11398142576217651
1772721621162411000,3.941410888671875,-11.586780548095703,0.49135205149650574,0.16964715719223022
1772721621181006300,3.96000634765625,-12.670992851257324,-0.1403142809867859,0.4230988025665283
1772721621199602000,3.978601806640625,-13.188737869262695,-0.5706241130828857,0.6603893041610718
1772721621218197200,3.997197265625,-13.599924087524414,-0.7539243698120117,1.4522565603256226
1772721621236792800,4.015792724609375,-13.956926345825195,-0.5591100454330444,2.0374181270599365
1772721621255388400,4.034388427734375,-14.422918319702148,-0.41254281997680664,2.0196471214294434
1772721621273984000,4.05298388671875,-13.598756790161133,-0.4050760865211487,1.7535784244537354
1772721621292579300,4.071579345703125,-11.083905220031738,-0.5186753273010254,1.9666013717651367
1772721621311175000,4.0901748046875,-6.796164035797119,-0.4936447739601135,2.016817331314087
1772721621329770500,4.1087705078125,-1.0910539627075195,0.14418113231658936,2.8508667945861816
1772721621348365800,4.12736572265625,3.6085987091064453,0.8610466122627258,1.9686779975891113
1772721621366961400,4.14596142578125,5.824165344238281,0.9571078419685364,-1.9953781366348267
1772721621385557000,4.164556884765625,12.684636116027832,1.5845752954483032,-3.536755084991455
1772721621404152300,4.18315234375,19.305980682373047,4.297554969787598,-1.0284416675567627
1772721621422748000,4.201747802734375,18.653385162353516,0.9926692247390747,1.0824170112609863
1772721621441343500,4.220343505859375,15.187313079833984,0.0820099413394928,-0.6996210813522339
1772721621459938800,4.238938720703125,14.854462623596191,-1.1902834177017212,-2.7284321784973145
1772721621478534400,4.257534423828125,14.904135704040527,-1.5726656913757324,-3.8369128704071045
1772721621497130000,4.2761298828125,13.97722339630127,-2.008633613586426,-3.7637181282043457
1772721621515725300,4.294725341796875,10.895536422729492,-2.8681089878082275,-2.8205013275146484
1772721621534321000,4.31332080078125,6.768527984619141,-2.9144070148468018,0.07142162322998047
1772721621552916500,4.33191650390625,1.7073087692260742,-1.7790015935897827,2.07277250289917
1772721621571511800,4.35051171875,-3.2826194763183594,-1.0735459327697754,2.9284563064575195
1772721621590107400,4.369107421875,-6.10391902923584,-1.0088772773742676,3.4046270847320557
1772721621608703000,4.387702880859375,-8.243332862854004,-1.4525521993637085,2.8599166870117188
1772721621627298300,4.40629833984375,-9.850754737854004,-1.6231601238250732,2.1093087196350098
1772721621645894000,4.424893798828125,-11.385259628295898,-1.4763567447662354,2.049851655960083
1772721621664489200,4.4434892578125,-13.854524612426758,-0.9218882918357849,1.4464088678359985
1772721621683084800,4.462084716796875,-15.708036422729492,-0.05609053373336792,1.2612384557724
1772721621701680400,4.480680419921875,-16.38714599609375,0.41540926694869995,1.6969702243804932
1772721621720276000,4.49927587890625,-15.284687042236328,0.37140148878097534,1.935678482055664
1772721621738871300,4.517871337890625,-12.769757270812988,-0.060201212763786316,1.4672865867614746
1772721621757467000,4.536466796875,-9.908127784729004,-0.5508338212966919,0.9443502426147461
1772721621776062500,4.5550625,-6.994595050811768,-0.882805585861206,0.7131541967391968
1772721621794657800,4.57365771484375,-5.205821990966797,-0.9179694056510925,0.48356640338897705
1772721621813253400,4.59225341796875,-4.548514366149902,-0.6674071550369263,-0.8720500469207764
1772721621831848700,4.6108486328125,-3.1040143966674805,-1.462587594985962,-2.2641589641571045
1772721621850444300,4.6294443359375,-0.47443389892578125,-1.923145055770874,-2.1294660568237305
1772721621869039900,4.648039794921875,3.0641069412231445,-0.8697856664657593,-3.2084691524505615
1772721621887635200,4.66663525390625,8.422645568847656,-0.1249968409538269,-4.972092151641846
1772721621906230800,4.685230712890625,13.601222038269043,0.10372990369796753,-2.9153783321380615
1772721621924826400,4.703826416015625,15.82296085357666,-0.08860635757446289,-0.49847936630249023
1772721621943422000,4.722421875,16.27218246459961,-0.2669672667980194,0.5740310549736023
1772721621962017300,4.741017333984375,17.665546417236328,-0.28537726402282715,2.542200803756714
1772721621980612900,4.75961279296875,16.348308563232422,0.931472659111023,2.13957142829895
1772721621999208200,4.778208251953125,16.893226623535156,1.3495639562606812,1.3173965215682983
1772721622017803800,4.7968037109375,17.304094314575195,0.17641833424568176,-0.505695104598999
1772721622036399400,4.8153994140625,12.911287307739258,-0.26609766483306885,-2.143447160720825
1772721622054994700,4.83399462890625,7.523833274841309,0.25397562980651855,-1.399338722229004
1772721622073590300,4.85259033203125,3.3294992446899414,0.8859106302261353,0.17421573400497437
1772721622092185600,4.871185546875,-1.6034507751464844,0.6348233222961426,1.1884262561798096
1772721622110781200,4.88978125,-6.275613784790039,-0.2679887115955353,1.691057562828064
1772721622129376800,4.908376708984375,-10.089527130126953,-1.3079224824905396,2.1086013317108154
1772721622147972400,4.926972412109375,-12.944721221923828,-2.0188913345336914,1.9206055402755737
1772721622166567700,4.945567626953125,-15.114045143127441,-2.274214744567871,1.6833823919296265
1772721622185163300,4.964163330078125,-16.940475463867188,-1.8553643226623535,1.3898526430130005
1772721622203758600,4.982758544921875,-18.218521118164062,-0.967117428779602,1.7616286277770996
1772721622222354200,5.001354248046875,-17.02535057067871,-0.49787217378616333,2.525242805480957
1772721622240949800,5.01994970703125,-14.224526405334473,-0.4172412157058716,3.381714344024658
1772721622259545000,5.038545166015625,-11.736191749572754,-0.33112043142318726,3.4681081771850586
1772721622278140700,5.057140625,-9.512473106384277,-0.14457184076309204,3.126281976699829
1772721622296736000,5.075736083984375,-6.564674377441406,-0.5178680419921875,2.8764166831970215
1772721622315331600,5.09433154296875,-3.8196935653686523,-1.1793458461761475,2.008960723876953
1772721622333927200,5.11292724609375,-1.6418375968933105,-1.9591734409332275,-0.4338787794113159
1772721622352522500,5.1315224609375,2.3890600204467773,-1.9040803909301758,-2.67680025100708
1772721622371118000,5.1501181640625,5.759495735168457,-1.0857411623001099,-2.686077117919922
1772721622389713400,5.16871337890625,7.70894718170166,0.5753421783447266,-2.927253484725952
1772721622408309000,5.18730908203125,8.020790100097656,2.3584396839141846,-3.1137282848358154
1772721622426904600,5.205904541015625,11.510519981384277,1.9216090440750122,-0.784600019454956
1772721622445500000,5.2245,16.04950714111328,1.2251509428024292,-0.7982337474822998
1772721622464095500,5.243095458984375,16.650714874267578,-0.07283514738082886,-1.4102431535720825
1772721622482691000,5.261691162109375,17.95099639892578,0.1677028238773346,-0.9030725955963135
1772721622501286400,5.280286376953125,19.51294708251953,0.023742228746414185,-0.7422369718551636
1772721622519882000,5.298882080078125,16.958106994628906,0.5218394994735718,-1.179762840270996
1772721622538477600,5.3174775390625,11.504716873168945,0.8309211730957031,-0.6340547800064087
1772721622557073000,5.336072998046875,4.789523124694824,0.7828646898269653,-0.31590837240219116
1772721622575668500,5.35466845703125,-0.21471405029296875,0.10705672204494476,-0.1138315200805664
1772721622594263800,5.373263916015625,-3.610013961791992,-0.7319087982177734,-0.08768129348754883
1772721622612859400,5.391859375,-7.040680885314941,-1.337958574295044,-0.10301816463470459
1772721622631455000,5.410455078125,-10.36642837524414,-1.9398993253707886,0.22237849235534668
1772721622650050300,5.42905029296875,-12.800362586975098,-2.5342841148376465,1.0467791557312012
1772721622668646000,5.44764599609375,-14.58524227142334,-2.626161575317383,1.6285724639892578
1772721622687241200,5.4662412109375,-15.677305221557617,-2.3097970485687256,1.9365438222885132
1772721622705836800,5.4848369140625,-16.558544158935547,-1.9816961288452148,1.8194944858551025
1772721622724432400,5.503432373046875,-15.954887390136719,-1.3000428676605225,1.49953031539917
1772721622743027700,5.52202783203125,-13.422657012939453,-0.9505171179771423,1.5019609928131104
1772721622761623300,5.540623291015625,-9.587685585021973,-0.7400795221328735,1.3378913402557373
1772721622780218600,5.559218505859375,-6.347151756286621,-0.6428075432777405,0.5328971147537231
1772721622798814200,5.577814208984375,-3.8585948944091797,-0.46745020151138306,-0.05993333458900452
1772721622817409500,5.596409423828125,-1.9485111236572266,-0.11426222324371338,-0.43098223209381104
1772721622836005000,5.615005126953125,-0.4942007064819336,0.48757511377334595,-0.7360262870788574
1772721622854600700,5.6336005859375,2.95095157623291,0.45626139640808105,-1.747662901878357
1772721622873196000,5.652196044921875,7.154258728027344,0.7234232425689697,-1.5851540565490723
1772721622891791600,5.67079150390625,9.504435539245605,1.911781668663025,-0.861126184463501
1772721622910387000,5.689386962890625,11.491506576538086,2.062074899673462,0.5611125230789185
1772721622928982500,5.707982421875,11.987935066223145,2.008796215057373,-0.8372046947479248
1772721622947578000,5.726578125,14.44564437866211,0.6201610565185547,-2.1598281860351562
1772721622966173400,5.74517333984375,16.55502700805664,0.39904046058654785,-1.9789156913757324
1772721622984769000,5.76376904296875,16.41996192932129,1.0705695152282715,-2.7052037715911865
1772721623003364400,5.7823642578125,14.746094703674316,2.1608200073242188,-3.6519434452056885
1772721623021960000,5.8009599609375,16.273332595825195,2.7215962409973145,-2.921485424041748
1772721623040555300,5.81955517578125,13.521032333374023,2.015170097351074,-1.0042248964309692
1772721623059150800,5.83815087890625,7.077225685119629,0.947272777557373,1.7613040208816528
1772721623077746400,5.856746337890625,0.13321781158447266,0.03187413513660431,3.4226882457733154
1772721623096341800,5.875341796875,-5.12113094329834,-0.8035868406295776,2.670264720916748
1772721623114937300,5.893937255859375,-8.352326393127441,-2.013857126235962,0.49766141176223755
1772721623133532700,5.91253271484375,-10.748154640197754,-3.0015172958374023,-2.223578453063965
1772721623152128300,5.931128173828125,-12.489826202392578,-2.911003351211548,-3.5895116329193115
1772721623170723800,5.949723876953125,-13.659019470214844,-2.4368748664855957,-3.076577663421631
1772721623189319200,5.968319091796875,-13.962179183959961,-1.767621397972107,-1.856065034866333
1772721623207914800,5.986914794921875,-13.804998397827148,-1.2717851400375366,-0.6443661451339722
1772721623226510000,6.005510009765625,-12.839152336120605,-0.9049426913261414,0.9562385082244873
1772721623245105700,6.024105712890625,-12.048293113708496,-0.20525097846984863,2.373584270477295
1772721623263701000,6.042700927734375,-12.523202896118164,0.3884263336658478,2.3137359619140625
1772721623282296600,6.061296630859375,-12.523011207580566,0.3441384434700012,2.2523727416992188
1772721623300892200,6.07989208984375,-11.00041389465332,0.2600448727607727,1.7738049030303955
1772721623319487500,6.098487548828125,-7.27532958984375,0.08819934725761414,1.8005608320236206
1772721623338083000,6.1170830078125,-1.716421127319336,-0.3547026515007019,1.0672354698181152
1772721623356678400,6.135678466796875,3.1078033447265625,-1.3865468502044678,-0.8267116546630859
1772721623375274000,6.15427392578125,5.775379180908203,-1.7373982667922974,-2.9026594161987305
1772721623393869300,6.172869384765625,7.169770240783691,-0.7540887594223022,-5.872993469238281
1772721623412465000,6.19146484375,9.43737506866455,0.41998031735420227,-5.634843349456787
1772721623431060200,6.210060302734375,12.069255828857422,-0.5985526442527771,-1.8845666646957397
1772721623449655800,6.22865576171875,14.059565544128418,-1.0043736696243286,-0.38435959815979004
1772721623468251100,6.247251220703125,13.186915397644043,-1.0103833675384521,-0.4488093852996826
1772721623486846700,6.2658466796875,12.679669380187988,-0.6873153448104858,-0.4467947483062744
1772721623505442000,6.284442138671875,12.430512428283691,-0.11048251390457153,0.33256399631500244
1772721623524037600,6.30303759765625,14.260815620422363,-0.049139320850372314,0.7479850053787231
1772721623542633200,6.32163330078125,12.790420532226562,-0.8869913816452026,-0.2147371768951416
1772721623561228500,6.340228515625,9.786771774291992,-0.8553215265274048,-0.03266268968582153
1772721623579824000,6.35882421875,6.242901802062988,-0.5941201448440552,0.37856119871139526
1772721623598419500,6.37741943359375,2.0017242431640625,-0.40878939628601074,0.4233248233795166
1772721623617015000,6.39601513671875,-1.9858322143554688,-0.1353849172592163,0.33144617080688477
1772721623635610400,6.4146103515625,-4.943854331970215,0.14195740222930908,0.35074126720428467
1772721623654206000,6.4332060546875,-7.049044609069824,0.25503039360046387,0.20165014266967773
1772721623672801500,6.451801513671875,-8.432792663574219,0.24058032035827637,0.7562272548675537
1772721623691396900,6.47039697265625,-9.344839096069336,0.4403422772884369,2.171262502670288
1772721623709992400,6.488992431640625,-10.728757858276367,0.7125316858291626,3.009895086288452
1772721623728587800,6.507587890625,-13.045393943786621,0.5040783286094666,2.1123874187469482
1772721623747183000,6.52618310546875,-15.057109832763672,-0.09411698579788208,1.86776864528656
1772721623765778700,6.54477880859375,-15.922783851623535,-0.09752652049064636,1.9253876209259033
1772721623784374000,6.5633740234375,-15.0195894241333,-0.17370513081550598,2.614718437194824
1772721623802969600,6.581969482421875,-13.181024551391602,-0.17077003419399261,3.0803756713867188
1772721623821565200,6.600565185546875,-11.021133422851562,-0.5709933638572693,2.9970531463623047
1772721623840160500,6.619160400390625,-8.77850341796875,-1.2634646892547607,2.6412312984466553
1772721623858756000,6.637756103515625,-6.414847373962402,-2.114518165588379,1.6970218420028687
1772721623877351400,6.656351318359375,-2.0819849967956543,-3.0777432918548584,0.13084864616394043
1772721623895947000,6.674947021484375,3.670954704284668,-2.3213863372802734,-0.7559096813201904
1772721623914542300,6.693542236328125,8.652817726135254,0.6938528418540955,-3.091731309890747
1772721623933138000,6.712137939453125,13.15728759765625,0.7467149496078491,-2.88449764251709
1772721623951733200,6.730733154296875,20.633544921875,-1.3320786952972412,0.11124956607818604
1772721623970328800,6.749328857421875,25.368511199951172,-2.6309049129486084,1.6780519485473633
1772721623988924200,6.767924072265625,24.458023071289062,-2.3467023372650146,1.94214928150177
1772721624007519700,6.786519775390625,18.93610382080078,-0.41967928409576416,1.023593544960022
1772721624026115000,6.805114990234375,13.753758430480957,0.8918637037277222,0.2850971221923828
1772721624044710700,6.823710693359375,10.670405387878418,0.9708853960037231,-0.9150453805923462
1772721624063306200,6.84230615234375,6.838642120361328,0.7295342087745667,-2.2381491661071777
1772721624081901600,6.860901611328125,2.0009164810180664,0.6114204525947571,-2.265896797180176
1772721624100497000,6.879496826171875,-2.760530471801758,0.2351783663034439,-0.5481537580490112
1772721624119092500,6.898092529296875,-5.48952579498291,0.1864241659641266,0.5443638563156128
1772721624137687800,6.916687744140625,-7.592545509338379,0.07189983129501343,0.5820847749710083
1772721624156283400,6.935283447265625,-9.040584564208984,-0.019764721393585205,0.6217426061630249
1772721624174878700,6.953878662109375,-10.369046211242676,0.0098055899143219,0.7451273202896118
1772721624193474300,6.972474365234375,-11.372949600219727,0.36928361654281616,0.7452793717384338
1772721624212069600,6.991069580078125,-12.003171920776367,0.7574294209480286,0.5087182521820068
1772721624230665200,7.009665283203125,-11.93274211883545,0.9758837819099426,0.29051750898361206
1772721624249260500,7.028260498046875,-11.509450912475586,1.1476268768310547,0.24582219123840332
1772721624267856100,7.046856201171875,-10.743349075317383,1.1824736595153809,0.5318911075592041
1772721624286451500,7.065451416015625,-10.432312965393066,1.184766411781311,0.7433832883834839
1772721624305047000,7.084047119140625,-9.85720157623291,0.8524040579795837,1.3257858753204346
1772721624323642400,7.102642333984375,-8.288840293884277,0.26091450452804565,1.1688064336776733
1772721624342238000,7.121238037109375,-4.879858016967773,-0.5476117134094238,1.0834736824035645
1772721624360833300,7.139833251953125,-2.098264694213867,-1.1599000692367554,1.0280487537384033
1772721624379428900,7.158428955078125,0.9752168655395508,-1.6658990383148193,1.139425277709961
1772721624398024200,7.177024169921875,3.3677635192871094,-1.1875568628311157,-0.2959597110748291
1772721624416619800,7.195619873046875,6.490647315979004,0.628560483455658,-2.263874053955078
1772721624435215000,7.214215087890625,11.626561164855957,-1.096755027770996,-0.29432177543640137
1772721624453810700,7.232810791015625,15.648069381713867,-2.19960880279541,1.4427584409713745
1772721624472406000,7.251406005859375,14.788742065429688,-2.904970169067383,0.9911487102508545
1772721624491001600,7.270001708984375,14.0780611038208,-1.9012470245361328,0.4001123905181885
1772721624509597000,7.288596923828125,14.223258972167969,-1.1639951467514038,-0.5174107551574707
1772721624528192300,7.307192138671875,13.77716064453125,-1.2452151775360107,-2.135061740875244
1772721624546787800,7.325787841796875,11.58547592163086,-0.9720446467399597,-2.661442756652832
1772721624565383400,7.344383544921875,8.551586151123047,-0.20937645435333252,-1.0468864440917969
1772721624583978800,7.362978759765625,4.253044128417969,0.2587122917175293,0.10696935653686523
1772721624602574300,7.38157421875,0.4321861267089844,0.4215284287929535,0.48526453971862793
1772721624621169700,7.400169677734375,-1.6296072006225586,0.2815319895744324,1.7699987888336182
1772721624639765000,7.418764892578125,-4.303618431091309,-0.100383460521698,1.6741714477539062
1772721624658360600,7.437360595703125,-7.386635780334473,-0.4831162691116333,0.596910297870636
1772721624676956000,7.455955810546875,-9.72195053100586,-0.39538538455963135,0.30129534006118774
1772721624695551500,7.474551513671875,-11.464797019958496,-0.357779324054718,1.0390002727508545
1772721624714146800,7.493146728515625,-13.16470718383789,-0.20129844546318054,1.2307220697402954
1772721624732742400,7.511742431640625,-14.387101173400879,0.08196550607681274,1.4369902610778809
1772721624751337700,7.530337646484375,-14.491782188415527,0.3683328628540039,2.0347342491149902
1772721624769933300,7.548933349609375,-14.140997886657715,0.514212429523468,1.914176344871521
1772721624788528600,7.567528564453125,-12.943553924560547,0.3933623135089874,1.8983064889907837
1772721624807124200,7.586124267578125,-10.93616771697998,0.05458468198776245,2.013153553009033
1772721624825719600,7.604719482421875,-8.352428436279297,-0.3185267746448517,1.5339782238006592
1772721624844315000,7.62331494140625,-5.340337753295898,-0.8042948246002197,0.7416026592254639
1772721624862910500,7.641910400390625,-2.3186192512512207,-1.358119249343872,0.1566786766052246
1772721624881505800,7.660505859375,2.200613021850586,-1.5604887008666992,-0.4820122718811035
1772721624900101400,7.679101318359375,7.196966171264648,-0.6228953003883362,-1.213009238243103
1772721624918696700,7.69769677734375,9.804885864257812,1.2923531532287598,-2.2809300422668457
1772721624937292000,7.7162919921875,14.018852233886719,-0.042643070220947266,-1.0750162601470947
1772721624955887600,7.7348876953125,20.1278076171875,-1.6488826274871826,-0.3104921579360962
1772721624974483200,7.753483154296875,19.49886703491211,-1.9534316062927246,-0.5687901973724365
1772721624993078500,7.77207861328125,16.454700469970703,-0.7304422855377197,-0.8947622776031494
1772721625011673900,7.790673828125,15.763382911682129,-0.015276432037353516,-0.8874486684799194
1772721625030269400,7.80926953125,15.88189697265625,-0.5359397530555725,-1.154628872871399
1772721625048864800,7.82786474609375,12.654598236083984,-0.3035249710083008,-1.9607514142990112
1772721625067460400,7.84646044921875,8.412566184997559,1.0014441013336182,-1.7828760147094727
1772721625086055700,7.8650556640625,3.285586357116699,2.426785469055176,-0.33815133571624756
1772721625104651000,7.883651123046875,-2.869039535522461,2.365656852722168,0.09803712368011475
1772721625123246600,7.90224658203125,-5.203370094299316,1.0705912113189697,0.852594256401062
1772721625141842200,7.92084228515625,-4.072633266448975,-0.27868133783340454,1.7466870546340942
1772721625160437500,7.9394375,-5.640517234802246,-1.2905573844909668,1.1342867612838745
1772721625179032800,7.95803271484375,-9.283655166625977,-1.9851783514022827,0.35933658480644226
1772721625197628400,7.97662841796875,-13.07668399810791,-2.076909065246582,-0.21227282285690308
1772721625216223700,7.9952236328125,-15.068992614746094,-2.060312032699585,1.2373380661010742
1772721625234819300,8.0138193359375,-15.841150283813477,-2.316636800765991,2.8723630905151367
1772721625253414700,8.03241455078125,-15.223770141601562,-2.785912036895752,3.4420278072357178
1772721625272010000,8.051010009765625,-13.28475570678711,-3.4943137168884277,3.261913299560547
1772721625290605600,8.06960546875,-11.165810585021973,-4.033022880554199,2.4043967723846436
1772721625309201000,8.088200927734375,-8.937990188598633,-4.22714376449585,2.2511096000671387
1772721625327796500,8.10679638671875,-8.158248901367188,-4.284098148345947,0.7713342905044556
1772721625346391800,8.125391845703126,-8.2323637008667,-4.1480889320373535,-0.7585128545761108
1772721625364987100,8.143987060546875,-5.996766090393066,-3.7930409908294678,-1.3361867666244507
1772721625383582700,8.162582763671875,-0.16758060455322266,-3.0052318572998047,-1.090606927871704
1772721625402178000,8.181177978515626,4.882900238037109,-1.134253978729248,-2.244152545928955
1772721625420773600,8.199773681640625,7.911553382873535,2.1488687992095947,-3.424715280532837
1772721625439369000,8.218368896484375,13.663276672363281,1.0969470739364624,-0.6917157769203186
1772721625457964500,8.236964599609376,17.613407135009766,0.8348439931869507,-1.2416951656341553
1772721625476560000,8.255559814453125,19.254566192626953,2.2779805660247803,-1.605842113494873
1772721625495155200,8.2741552734375,22.660449981689453,2.3287808895111084,-0.39527833461761475
1772721625513750800,8.292750732421876,21.636695861816406,2.0646233558654785,-2.6136701107025146
1772721625532346000,8.31134619140625,18.002450942993164,3.013524293899536,-2.2950210571289062
1772721625550941400,8.32994140625,11.684386253356934,3.8224284648895264,-0.9851484894752502
1772721625569537000,8.348537109375,5.078632354736328,4.075581073760986,0.5398882031440735
1772721625588132400,8.36713232421875,-0.3088569641113281,3.0234568119049072,2.4497179985046387
1772721625606728000,8.38572802734375,-3.4868807792663574,1.5299689769744873,2.236023187637329
1772721625625323300,8.4043232421875,-5.082497596740723,0.3204410672187805,1.2440893650054932
1772721625643918600,8.422918701171875,-5.87818717956543,-0.20538508892059326,0.23925840854644775
1772721625662514200,8.44151416015625,-6.467978000640869,-0.4220399856567383,0.02118128538131714
1772721625681109500,8.460109619140624,-8.892803192138672,-0.959904134273529,-0.7133206725120544
1772721625699705000,8.478705078125,-12.273589134216309,-1.315969705581665,-1.6606782674789429
1772721625718300400,8.497300537109375,-14.712380409240723,-1.448317289352417,-1.931889295578003
1772721625736895700,8.515895751953124,-16.447683334350586,-1.3634345531463623,-1.9310474395751953
1772721625755491300,8.5344912109375,-16.55638885498047,-1.141900658607483,-1.0702908039093018
1772721625774086700,8.553086669921875,-15.128795623779297,-0.8233152031898499,-0.019056696444749832
1772721625792682200,8.57168212890625,-13.46470832824707,-0.9824039936065674,0.12265114486217499
1772721625811277600,8.590277587890625,-10.807403564453125,-1.4444341659545898,0.12661319971084595
1772721625829873000,8.608872802734375,-6.8339996337890625,-1.9331693649291992,0.23111368715763092
1772721625848468500,8.627468505859374,-2.2185239791870117,-2.2064859867095947,0.4282108545303345
1772721625867063800,8.646063720703125,1.6255807876586914,-2.3887453079223633,0.8131054043769836
1772721625885659100,8.6646591796875,3.9203128814697266,-2.565031051635742,1.0735176801681519
1772721625904254700,8.683254638671874,4.932541847229004,-1.2879698276519775,0.6621635556221008
1772721625922850000,8.70185009765625,7.439446449279785,0.9790138006210327,-0.020556040108203888
1772721625941445400,8.7204453125,12.537504196166992,-0.03551854193210602,2.5388803482055664
1772721625960041000,8.739041015625,17.024478912353516,-0.22139686346054077,2.345963478088379
1772721625978636300,8.75763623046875,18.078922271728516,-0.9499207735061646,0.3635619580745697
1772721625997231600,8.776231689453125,18.47732925415039,-0.7801227569580078,-2.0962765216827393
1772721626015827200,8.7948271484375,18.423885345458984,0.38994163274765015,-3.91788911819458
1772721626034422800,8.8134228515625,17.82713508605957,1.5369852781295776,-5.200098991394043
1772721626053018000,8.83201806640625,15.570619583129883,2.2937796115875244,-5.710572719573975
1772721626071613400,8.850613525390624,9.844182014465332,2.5608808994293213,-4.67988395690918
1772721626090209000,8.869208984375,2.983112335205078,2.600755214691162,-1.9961659908294678
1772721626108804400,8.887804443359375,-2.618612289428711,2.2040855884552,0.2790675759315491
1772721626127399700,8.906399658203124,-6.370650768280029,1.183423638343811,0.9226248264312744
1772721626145995300,8.924995361328126,-9.294720649719238,-0.010569944977760315,0.32791751623153687
1772721626164590600,8.943590576171875,-11.623506546020508,-1.2770841121673584,-0.3259086310863495
1772721626183186000,8.96218603515625,-12.980352401733398,-2.046804666519165,-0.2935697138309479
1772721626201781500,8.980781494140626,-14.299671173095703,-2.087069511413574,0.783215343952179
1772721626220376800,8.999376953125,-15.211716651916504,-1.842775821685791,1.973480224609375
1772721626238972200,9.01797216796875,-15.88759708404541,-1.8908571004867554,1.8905067443847656
1772721626257567700,9.036567626953126,-15.28052806854248,-1.8584482669830322,1.1036860942840576
1772721626276163000,9.0551630859375,-13.002874374389648,-1.7378021478652954,0.36334744095802307
1772721626294758400,9.07375830078125,-10.238643646240234,-1.239209532737732,0.13763388991355896
1772721626313354000,9.09235400390625,-6.242443561553955,-0.9130550622940063,-0.24412477016448975
1772721626331949300,9.11094921875,-3.559417724609375,-0.42576903104782104,-0.3423893451690674
1772721626350544600,9.129544677734375,-1.2819280624389648,0.16737428307533264,-0.3420460820198059
1772721626369140200,9.14814013671875,1.6703643798828125,0.48655998706817627,-1.0901432037353516
1772721626387735600,9.166735595703125,6.631884574890137,2.6278083324432373,-2.0255701541900635
1772721626406331100,9.1853310546875,12.700420379638672,5.196345329284668,-1.4329942464828491
1772721626424926500,9.203926513671876,15.428628921508789,3.628161668777466,0.4462393820285797
1772721626443521800,9.222521728515625,14.69769287109375,2.44708514213562,0.13760840892791748
1772721626462117400,9.241117431640625,13.027471542358398,1.824080467224121,-0.5620929598808289
1772721626480712700,9.259712646484376,14.244178771972656,1.3174071311950684,-0.9887940287590027
1772721626499308000,9.27830810546875,15.653904914855957,0.3398251533508301,-0.6982789635658264
1772721626517903600,9.296903564453125,14.546865463256836,-0.9771782159805298,0.48388671875
1772721626536499000,9.3154990234375,10.149175643920898,-1.0574129819869995,0.9946928024291992
1772721626555094300,9.33409423828125,5.03199577331543,-1.083970546722412,1.4351904392242432
1772721626573689900,9.35268994140625,-0.7776832580566406,-1.0031880140304565,1.1760879755020142
1772721626592285200,9.37128515625,-6.62270975112915,-1.1145635843276978,0.17652562260627747
1772721626610880500,9.389880615234375,-10.114725112915039,-1.7005205154418945,-0.3395870625972748
1772721626629476000,9.40847607421875,-10.957825660705566,-2.108353614807129,-0.08682030439376831
1772721626648071400,9.427071533203126,-11.181556701660156,-2.044942855834961,0.3391237258911133
1772721626666666800,9.445666748046875,-11.949061393737793,-1.4560437202453613,0.3496856391429901
1772721626685262000,9.464261962890625,-12.604848861694336,-0.6050994396209717,0.2235967516899109
1772721626703857700,9.482857666015626,-13.049206733703613,0.16093087196350098,0.40076786279678345
1772721626722453000,9.501452880859375,-12.362146377563477,0.4325734078884125,0.5796371698379517
1772721626741048300,9.52004833984375,-10.911966323852539,0.6977769136428833,0.2094114124774933
1772721626759644000,9.538643798828126,-8.517745971679688,0.9415200352668762,-0.2114236056804657
1772721626778239200,9.5572392578125,-5.673612117767334,0.7481156587600708,-0.9506182670593262
1772721626796834600,9.57583447265625,-2.775911808013916,0.272524356842041,-1.2987905740737915
1772721626815430100,9.59443017578125,-0.8878660202026367,0.1579742282629013,-0.8673396110534668
1772721626834025500,9.613025390625,-0.7715015411376953,0.46287041902542114,-0.31004613637924194
1772721626852620800,9.631620849609375,-1.4033794403076172,1.056320071220398,-0.3378216028213501
1772721626871216400,9.65021630859375,2.09615421295166,1.9573264122009277,-0.6134931445121765
1772721626889811700,9.668811767578125,9.919039726257324,3.2671289443969727,-2.4376440048217773
1772721626908407000,9.687406982421875,17.850278854370117,2.342772960662842,-2.1821000576019287
1772721626927002400,9.70600244140625,18.06375503540039,1.2540760040283203,-0.7712947130203247
1772721626945598000,9.724597900390625,13.980534553527832,1.1405218839645386,-1.1536654233932495
1772721626964193300,9.743193359375,15.028286933898926,0.7837759256362915,-1.7100679874420166
1772721626982788600,9.76178857421875,17.392017364501953,-0.15531623363494873,-1.9345901012420654
1772721627001384200,9.78038427734375,16.434085845947266,-1.0129634141921997,-1.7584058046340942
1772721627019979500,9.7989794921875,11.414029121398926,-0.7861660718917847,-1.6945304870605469
1772721627038574800,9.817574951171874,5.907317161560059,-0.24001049995422363,0.17049860954284668
1772721627057170400,9.83617041015625,-0.6541986465454102,-0.056910932064056396,2.537269115447998
1772721627075765800,9.854765869140625,-7.875092506408691,-0.36549484729766846,3.327455997467041
1772721627094361000,9.873361083984374,-11.731980323791504,-1.551955223083496,2.1938698291778564
1772721627112956400,9.891956298828125,-10.556034088134766,-2.597890615463257,-0.13241636753082275
1772721627131552000,9.910552001953125,-7.995619773864746,-2.518136978149414,-1.7144322395324707
1772721627150147300,9.929147216796874,-7.470780849456787,-1.6289329528808594,-0.7442901134490967
1772721627168742700,9.94774267578125,-9.84605598449707,-0.7409988641738892,0.9730361104011536
1772721627187338200,9.966338134765625,-12.290045738220215,0.024179935455322266,2.3208720684051514
1772721627205933600,9.98493359375,-13.17239761352539,0.5240464210510254,3.5198068618774414
1772721627224529000,10.00352880859375,-11.635527610778809,0.5839110612869263,3.437603712081909
1772721627243124200,10.022124267578125,-9.777377128601074,0.15411293506622314,1.4993929862976074
1772721627261719800,10.0407197265625,-7.843941688537598,-0.30248260498046875,0.09927809238433838
1772721627280315100,10.059315185546875,-6.202969551086426,-0.3387490212917328,-0.16687822341918945
1772721627298910700,10.07791064453125,-5.106363296508789,-0.3937844932079315,0.6572529077529907
1772721627317505800,10.096505859375,-5.477104663848877,-0.5849853754043579,0.7074110507965088
1772721627336101400,10.115101318359375,-4.493682384490967,-0.5490380525588989,-0.4026881456375122
1772721627354696700,10.13369677734375,-0.32317256927490234,-0.31203126907348633,-0.6910575032234192
1772721627373292000,10.1522919921875,4.873690605163574,0.9149705171585083,-0.61726313829422
1772721627391887600,10.1708876953125,10.908646583557129,1.8244678974151611,-1.7171571254730225
1772721627410483000,10.18948291015625,13.120939254760742,-0.030420303344726562,-0.11072605848312378
1772721627429078300,10.208078369140624,10.810338020324707,-0.30384016036987305,1.0790352821350098
1772721627447673600,10.226673583984375,11.481180191040039,0.7813929319381714,0.16969621181488037
1772721627466269200,10.245269287109375,17.08621597290039,0.703439474105835,-0.7066654562950134
1772721627484864500,10.263864501953124,20.041622161865234,-0.123920738697052,-1.500769019126892
1772721627503459800,10.2824599609375,19.898502349853516,-0.7424355745315552,-1.975130319595337
1772721627522055200,10.30105517578125,17.148624420166016,0.2244604229927063,-0.601675271987915
1772721627540650800,10.319650634765624,11.172883987426758,2.1150012016296387,1.0358304977416992
1772721627559246000,10.33824609375,3.3865184783935547,3.841782569885254,1.9934368133544922
1772721627577841400,10.35684130859375,-3.9694900512695312,3.191316604614258,3.7740602493286133
1772721627596436700,10.375436767578124,-8.964131355285645,1.954279899597168,4.042408466339111
1772721627615032300,10.3940322265625,-11.059562683105469,0.8529332876205444,3.68623685836792
1772721627633627600,10.412627685546875,-11.908632278442383,0.22567218542099,2.3220152854919434
1772721627652223000,10.431222900390624,-11.931822776794434,-0.3461126685142517,1.2708475589752197
1772721627670818300,10.449818359375,-12.41061019897461,-0.5075564384460449,1.0302331447601318
1772721627689414000,10.468413818359375,-13.367385864257812,-0.481741726398468,1.108484148979187
1772721627708009200,10.48700927734375,-14.26041316986084,-0.29626405239105225,1.3944979906082153
1772721627726604500,10.5056044921875,-14.501989364624023,-0.06777256727218628,1.5116689205169678
1772721627745199900,10.524199951171875,-13.194209098815918,-0.009111881256103516,1.3856322765350342
1772721627763795500,10.54279541015625,-10.247793197631836,-0.008717894554138184,0.6396517157554626
1772721627782390800,10.561390869140626,-7.236586570739746,-0.028786659240722656,0.5617421865463257
1772721627800986000,10.579986083984375,-3.843606472015381,-0.1241506040096283,0.28283268213272095
1772721627819581400,10.59858154296875,-0.46422767639160156,-0.581059992313385,-0.06308043003082275
1772721627838177000,10.617177001953126,1.5739059448242188,-0.26660045981407166,-1.6566753387451172
1772721627856772400,10.6357724609375,2.275726318359375,0.06989255547523499,-2.250920295715332
1772721627875367700,10.65436767578125,5.927451133728027,0.10477966070175171,-2.1010098457336426
1772721627893963000,10.672962890625,9.728151321411133,-0.531130850315094,-1.0233802795410156
1772721627912558600,10.69155859375,9.655978202819824,-0.30884337425231934,2.166895866394043
1772721627931154000,10.71015380859375,9.991689682006836,-1.5796858072280884,2.442216634750366
1772721627949749200,10.728749267578126,9.891312599182129,-0.6800311803817749,-0.36948367953300476
1772721627968344600,10.747344482421875,9.7286376953125,-1.3795651197433472,-0.27159005403518677
1772721627986940200,10.765940185546874,9.240851402282715,-0.23711782693862915,0.06319862604141235
1772721628005535500,10.784535400390626,6.901702880859375,-0.28631192445755005,-0.9277299046516418
1772721628024130800,10.803130859375,4.860105514526367,-0.4246155023574829,-1.310410737991333
1772721628042726100,10.82172607421875,2.7223024368286133,-0.1057470440864563,-0.8032830953598022
1772721628061321700,10.84032177734375,1.1127634048461914,0.8179776668548584,0.31254053115844727
1772721628079917000,10.8589169921875,0.24334716796875,1.5110461711883545,1.1874172687530518
1772721628098512400,10.877512451171874,-0.8201904296875,1.6924763917922974,0.9111570119857788
1772721628117107700,10.896107666015626,-1.6940746307373047,1.8835266828536987,0.18285134434700012
1772721628135703000,10.914703125,-2.747335910797119,0.6034433245658875,1.4445053339004517
1772721628154298600,10.933298583984374,-4.4009270668029785,0.2537022531032562,1.1369074583053589
1772721628172894000,10.95189404296875,-5.2883758544921875,0.2729283571243286,0.23609942197799683
1772721628191489300,10.9704892578125,-5.2190141677856445,0.30171599984169006,0.13732147216796875
1772721628210084600,10.989084716796874,-3.47395658493042,0.5645908117294312,0.23451560735702515
1772721628228680200,11.00768017578125,-2.038952350616455,0.6825470924377441,0.2197234034538269
1772721628247275300,11.026275146484375,-1.0320711135864258,0.543729841709137,0.4579731225967407
1772721628265870800,11.044870849609374,0.19600868225097656,0.400379478931427,0.2326338291168213
1772721628284466200,11.063466064453126,0.32527828216552734,0.03596678376197815,0.06269240379333496
1772721628303061500,11.0820615234375,-0.12584781646728516,0.03187471628189087,0.015929341316223145
1772721628321656800,11.10065673828125,-0.1926736831665039,0.0046042799949646,0.2086784839630127
1772721628340252400,11.11925244140625,0.40387725830078125,-0.5658823251724243,0.7993152141571045
1772721628358847700,11.13784765625,1.5797014236450195,-0.9502432346343994,0.4375188946723938
1772721628377443000,11.156443115234374,2.3930673599243164,-1.312591791152954,0.13331705331802368
1772721628396038400,11.175038330078126,2.150385856628418,-1.3347615003585815,0.20062953233718872
1772721628414633700,11.1936337890625,1.041071891784668,-0.7730028033256531,-0.022252917289733887
1772721628433229300,11.212229248046874,0.2888813018798828,-0.5136076807975769,-0.32643163204193115
1772721628451824600,11.23082470703125,-1.3682479858398438,0.05123645067214966,-0.5944404602050781
1772721628470420000,11.249419921875,-2.345600128173828,0.16272759437561035,-0.6447057723999023
1772721628489015300,11.268015380859374,-2.980121612548828,0.4846299886703491,-0.26683342456817627
1772721628507609900,11.28660986328125,-2.5638346672058105,0.42702674865722656,-0.5162791013717651
