time,seconds_elapsed,z,y,x
1772721617313135600,0.092135498046875,0.16875138878822327,0.30459246039390564,-0.06757691502571106
1772721617331731200,0.110731201171875,0.2689332067966461,0.09812015295028687,0.072921983897686
1772721617350326800,0.129326904296875,0.3685041666030884,-0.0836121141910553,0.16210824251174927
1772721617368922400,0.14792236328125,0.402407169342041,-0.18409937620162964,0.25954118371009827
1772721617387518000,0.16651806640625,0.6372846961021423,-0.21952952444553375,0.45043641328811646
1772721617406113300,0.18511328125,0.8874338269233704,-0.21586434543132782,0.5906298756599426
1772721617424709000,0.203709228515625,0.9143118858337402,-0.1508072465658188,0.6055960655212402
1772721617443304400,0.222304443359375,0.8297070860862732,-0.07475458085536957,0.5093848705291748
1772721617461900000,0.240900146484375,0.5160280466079712,-0.13217586278915405,0.2986365258693695
1772721617480495600,0.25949560546875,0.19532401859760284,-0.05581776797771454,0.0243582334369421
1772721617499091200,0.27809130859375,0.2753472924232483,0.07643445581197739,-0.1943313628435135
1772721617517686800,0.296686767578125,0.5267181396484375,0.1170569658279419,-0.44203701615333557
1772721617536282400,0.315282470703125,0.8721621632575989,0.059024810791015625,-0.5773435831069946
1772721617554878000,0.3338779296875,1.0569487810134888,-0.04818195849657059,-0.5180897116661072
1772721617573473500,0.3524736328125,0.7484620809555054,-0.2833648920059204,-0.3775908052921295
1772721617592069000,0.371069091796875,0.38499751687049866,-0.6330850124359131,-0.10392337292432785
1772721617610664400,0.38966455078125,0.12782345712184906,-0.8401681184768677,0.007254019379615784
1772721617629260300,0.40826025390625,-0.10155627131462097,-0.6248382925987244,-0.08223766833543777
1772721617647855600,0.426855712890625,-0.16905683279037476,-0.16882775723934174,-0.36628979444503784
1772721617666451200,0.445451171875,0.05146535858511925,0.18700097501277924,-0.7657953500747681
1772721617685046800,0.464046875,0.39996370673179626,0.6164389252662659,-1.2071452140808105
1772721617703642400,0.482642333984375,1.0929898023605347,0.8271872401237488,-1.597182273864746
1772721617722238000,0.501238037109375,1.131474256515503,0.8180242776870728,-1.5745803117752075
1772721617740833500,0.51983349609375,0.7011200785636902,0.40294167399406433,-1.0987166166305542
1772721617759429000,0.53842919921875,0.4601338803768158,0.04955640435218811,-0.46402814984321594
1772721617778024400,0.5570244140625,0.39446592330932617,-0.06375901401042938,0.07933606207370758
1772721617796620000,0.5756201171875,0.4699077308177948,0.11461350321769714,0.40004006028175354
1772721617815215600,0.594215576171875,0.46227192878723145,0.3287216126918793,0.4363865256309509
1772721617833811200,0.612811279296875,0.5615374445915222,0.5669588446617126,0.23877176642417908
1772721617852406800,0.63140673828125,0.6766854524612427,0.5605447888374329,0.0988837331533432
1772721617871002400,0.65000244140625,0.6809614896774292,0.4548651874065399,0.24335326254367828
1772721617889598000,0.668597900390625,0.5539016127586365,-0.08452841639518738,0.34720027446746826
1772721617908193300,0.687193359375,0.2906189262866974,-0.7598394155502319,0.26626068353652954
1772721617926789000,0.7057890625,0.2890917658805847,-0.6532435417175293,0.31604617834091187
1772721617945384400,0.724384521484375,0.34193155169487,0.037949975579977036,0.612621009349823
1772721617963980000,0.74297998046875,0.2283107042312622,0.2804632782936096,1.0133483409881592
1772721617982575600,0.76157568359375,-0.01695149764418602,0.15034909546375275,1.243338942527771
1772721618001171200,0.780171142578125,-0.44119709730148315,0.03245219215750694,0.9504292607307434
1772721618019766800,0.798766845703125,-0.9503529071807861,-0.4021781086921692,0.062537282705307
1772721618038362400,0.8173623046875,-1.5987858772277832,-1.0509165525436401,-1.0131956338882446
1772721618056958000,0.8359580078125,-2.2643229961395264,-1.0503056049346924,-1.5950442552566528
1772721618075553300,0.85455322265625,-2.4063491821289062,0.04955640435218811,-1.8509966135025024
1772721618094148900,0.87314892578125,-2.097862482070923,1.0260237455368042,-1.6924772262573242
1772721618112744400,0.891744384765625,-1.7307326793670654,1.025412917137146,-0.940808117389679
1772721618131340000,0.910340087890625,-1.402698278427124,0.05933023989200592,0.114460788667202
1772721618149935600,0.928935546875,-0.8965967893600464,-0.8230639100074768,0.8230639100074768
1772721618168531200,0.94753125,-0.15286891162395477,-1.0500001907348633,1.0457241535186768
1772721618187126500,0.96612646484375,0.4589121639728546,-0.7616720199584961,1.0148755311965942
1772721618205722400,0.984722412109375,0.7518218159675598,-0.3001636862754822,0.8383355736732483
1772721618224317700,1.003317626953125,0.634230375289917,0.10758855938911438,0.6077340841293335
1772721618242913300,1.021913330078125,0.3987419903278351,0.37667450308799744,0.13064870238304138
1772721618261508900,1.0405087890625,0.19440771639347076,0.6051379442214966,-0.48357582092285156
1772721618280104400,1.0591044921875,-0.0691804364323616,0.5281689763069153,-0.9585232138633728
1772721618298700000,1.077699951171875,-0.42745262384414673,0.116751529276371,-1.0205259323120117
1772721618317295600,1.096295654296875,-0.790917158126831,-0.08025235682725906,-0.6530908346176147
1772721618335891200,1.11489111328125,-0.8764382600784302,0.368122398853302,-0.14882193505764008
1772721618354486500,1.133486572265625,-0.5203040838241577,0.9887610077857971,0.023136503994464874
1772721618373082000,1.15208203125,0.10277800261974335,1.0189988613128662,-0.24869832396507263
1772721618391677700,1.170677734375,0.32849252223968506,0.18974986672401428,-0.4964039921760559
1772721618410273300,1.189273193359375,-0.07589995115995407,-0.6813433170318604,-0.38156139850616455
1772721618428868900,1.207868896484375,-0.3776671588420868,-0.35941755771636963,-0.3626246154308319
1772721618447464400,1.22646435546875,-0.1876882016658783,0.6497310400009155,-0.5019017457962036
1772721618466059800,1.245059814453125,0.26221370697021484,0.8723912835121155,-0.3891972303390503
1772721618484655400,1.2636552734375,0.5991056561470032,0.033979352563619614,0.18471023440361023
1772721618503251000,1.2822509765625,0.9155336022377014,-1.1184170246124268,0.7867174744606018
1772721618521846500,1.300846435546875,1.1760674715042114,-1.7250057458877563,1.2195152044296265
1772721618540442000,1.319442138671875,1.182176113128662,-1.8658101558685303,1.3612358570098877
1772721618559037700,1.33803759765625,0.7090612649917603,-1.7017929553985596,1.2552508115768433
1772721618577633000,1.356633056640625,0.004428769461810589,-1.168202519416809,0.899727463722229
1772721618596228600,1.375228515625,-0.4799869954586029,-0.34842199087142944,0.3749946057796478
1772721618614824200,1.39382421875,-0.6577486395835876,0.3879754841327667,-0.08865175396203995
1772721618633419800,1.412419677734375,-0.6159043908119202,0.9747111201286316,-0.1784488707780838
1772721618652015400,1.431015380859375,-0.5838339924812317,0.9670752882957458,0.19814926385879517
1772721618670611000,1.44961083984375,-0.4915934205055237,0.7407498955726624,0.5884918570518494
1772721618689206500,1.46820654296875,-0.35475972294807434,0.6509527564048767,0.6895899772644043
1772721618707801900,1.4868017578125,-0.23014330863952637,0.6106356978416443,0.5026653409004211
1772721618726397400,1.5053974609375,-0.16966769099235535,0.6558396816253662,0.15447242558002472
1772721618744993000,1.523992919921875,-0.22586725652217865,0.8702532649040222,-0.17508912086486816
1772721618763588600,1.542588623046875,-0.304974228143692,1.135979413986206,-0.455781489610672
1772721618782184200,1.56118408203125,-0.30802857875823975,1.127121925354004,-0.6903535723686218
1772721618800779800,1.57977978515625,-0.24113887548446655,0.8131373524665833,-0.7318923473358154
1772721618819375000,1.598375,-0.3315468728542328,0.46372273564338684,-0.270689457654953
1772721618837970700,1.616970703125,-0.34406960010528564,0.14607304334640503,0.5115228891372681
1772721618856566300,1.635566162109375,-0.11682789027690887,0.2566395699977875,0.5851321220397949
1772721618875161900,1.654161865234375,-0.1000291109085083,0.91362464427948,-0.07185296714305878
1772721618893757400,1.67275732421875,-0.5429060459136963,0.7086794972419739,-0.6256018877029419
1772721618912352800,1.691352783203125,-0.6537780165672302,0.6472876071929932,-0.3229183852672577
1772721618930948400,1.7099482421875,-0.4140135943889618,0.9808197617530823,0.37835437059402466
1772721618949544000,1.7285439453125,-0.21151192486286163,0.6442332863807678,0.25954118371009827
1772721618968139500,1.747139404296875,0.008093958720564842,0.037949975579977036,-0.04222602769732475
1772721618986735000,1.765735107421875,-0.018173227086663246,-0.9162207841873169,-0.3110065162181854
1772721619005330700,1.78433056640625,-0.33887723088264465,-1.5600723028182983,-0.8833868503570557
1772721619023926000,1.802926025390625,-0.4903717041015625,-1.1336886882781982,-1.3427571058273315
1772721619042521600,1.821521484375,-0.2903134822845459,-0.289168119430542,-1.3797144889831543
1772721619061117200,1.8401171875,-0.10949750989675522,-0.09827287495136261,-1.1118502616882324
1772721619079712800,1.858712646484375,-0.0694858655333519,-0.3392590284347534,-0.7712931632995605
1772721619098308000,1.87730810546875,-0.11957678198814392,-0.7073050737380981,-0.5217548608779907
1772721619116904000,1.895904052734375,-0.22586725652217865,-0.770529568195343,-0.2853502035140991
1772721619135499300,1.914499267578125,-0.2484692484140396,-0.46021026372909546,-0.1274416595697403
1772721619154094800,1.9330947265625,-0.08933897316455841,0.1781434416770935,-0.050778135657310486
1772721619172690400,1.9516904296875,0.07131846249103546,0.7321978211402893,0.08666644245386124
1772721619191286000,1.9702861328125,0.0899498388171196,0.8488729596138,0.38140869140625
1772721619209881300,1.98888134765625,-0.02519817277789116,0.6860775351524353,0.677678108215332
1772721619228477000,2.007476806640625,-0.16569706797599792,0.5290852785110474,0.7653372287750244
1772721619247072500,2.026072509765625,-0.304974228143692,0.48998990654945374,0.6245328783988953
1772721619265668000,2.044668212890625,-0.3889681398868561,0.7233402729034424,0.36430448293685913
1772721619284263700,2.063263671875,-0.4240928590297699,0.9664644598960876,0.03321577236056328
1772721619302859000,2.08185888671875,-0.4228711426258087,1.0782526731491089,-0.06452259421348572
1772721619321454600,2.10045458984375,-0.38927358388900757,0.8418480157852173,0.20883940160274506
1772721619340050200,2.11905029296875,-0.397825688123703,0.20227259397506714,0.6761509776115417
1772721619358645800,2.137645751953125,-0.2707658112049103,-0.0988837331533432,0.7696132659912109
1772721619377241300,2.156241455078125,-0.10094540566205978,0.3158934414386749,0.5368737578392029
1772721619395836700,2.174836669921875,-0.12232567369937897,0.9346994757652283,0.4266127049922943
1772721619414432300,2.193432373046875,0.03191768378019333,1.4933353662490845,0.6431642770767212
1772721619433027800,2.21202783203125,0.15286891162395477,1.4679844379425049,0.8862884640693665
1772721619451623400,2.23062353515625,0.17577634751796722,0.6561451554298401,0.7100539207458496
1772721619470219000,2.249218994140625,0.20173808932304382,-0.4180605709552765,0.4492146968841553
1772721619488814300,2.267814453125,-0.012675444595515728,-1.3930007219314575,0.09674570709466934
1772721619507410000,2.286409912109375,-0.2903134822845459,-2.0115013122558594,-0.4756345748901367
1772721619526005500,2.305005615234375,-0.1724165827035904,-1.6181044578552246,-0.5559632778167725
1772721619544601000,2.32360107421875,0.08933897316455841,-0.974558413028717,-0.4099666178226471
1772721619563196400,2.342196533203125,0.3761399984359741,-0.8676570653915405,-0.3336085379123688
1772721619581792000,2.3607919921875,0.6385064125061035,-1.1046725511550903,-0.060551971197128296
1772721619600387600,2.3793876953125,0.6858484148979187,-1.2179880142211914,0.3300960659980774
1772721619618983200,2.397983154296875,0.5676460862159729,-0.7778599262237549,0.5597811937332153
1772721619637578800,2.416578857421875,0.45738500356674194,-0.03565923124551773,0.5384009480476379
1772721619656174300,2.43517431640625,0.4738783538341522,0.5846739411354065,0.43424850702285767
1772721619674769700,2.453769775390625,0.40149086713790894,0.6555342674255371,0.3410916328430176
1772721619693365200,2.472365234375,0.2909243404865265,0.5263363718986511,0.21311545372009277
1772721619711960800,2.4909609375,0.18463388085365295,0.40294167399406433,0.021914774551987648
1772721619730556400,2.509556396484375,0.08628465235233307,0.41760244965553284,-0.18150319159030914
1772721619749151700,2.52815185546875,0.07406735420227051,0.44722938537597656,-0.5187005400657654
1772721619767747300,2.546747314453125,0.19440771639347076,0.3748418986797333,-0.8781944513320923
1772721619786343000,2.565343017578125,0.3016144931316376,0.07948877662420273,-0.9331722855567932
1772721619804938500,2.5839384765625,0.24480405449867249,-0.35361436009407043,-0.5690969228744507
1772721619823533800,2.602533935546875,0.14767655730247498,-0.4431060254573822,-0.04192059487104416
1772721619842129400,2.62112939453125,0.2341139316558838,-0.019471315667033195,0.1547778695821762
1772721619860725000,2.63972509765625,0.40149086713790894,0.2774089574813843,-0.18700097501277924
1772721619879320600,2.658320556640625,0.31383177638053894,-0.0371863916516304,-0.6246855854988098
1772721619897916000,2.676916015625,0.0539088174700737,-0.7851903438568115,-0.6231584548950195
1772721619916511500,2.695511474609375,-0.08414662629365921,-1.0316742658615112,-0.3485747277736664
1772721619935107000,2.714107177734375,0.09758564829826355,-0.8059597015380859,-0.2908479869365692
1772721619953702700,2.73270263671875,0.383470356464386,-0.6651554107666016,-0.3891972303390503
1772721619972298000,2.751298095703125,0.43661558628082275,-1.0313688516616821,-0.3375791609287262
1772721619990893600,2.7698935546875,0.12385283410549164,-1.5081487894058228,-0.5999455451965332
1772721620009489200,2.7884892578125,-0.3920224606990814,-1.3612358570098877,-1.0651191473007202
1772721620028084700,2.807084716796875,-0.6647735834121704,-0.7729730010032654,-1.1973713636398315
1772721620046680000,2.82568017578125,-0.5749764442443848,0.008628465235233307,-0.7972549200057983
1772721620065275600,2.844275634765625,-0.23991714417934418,0.5009855031967163,-0.21876594424247742
1772721620083871200,2.862871337890625,-0.08139773458242416,0.6662244200706482,0.46021026372909546
1772721620102466800,2.881466796875,-0.10094540566205978,1.0623701810836792,1.074434757232666
1772721620121062100,2.900062255859375,-0.12660172581672668,1.8140393495559692,1.6593377590179443
1772721620139657700,2.91865771484375,-0.18035782873630524,2.364733934402466,2.25126576423645
1772721620158253300,2.93725341796875,-0.1776089370250702,2.2911248207092285,2.8328089714050293
1772721620176849000,2.955848876953125,-0.10980294644832611,1.461570382118225,2.9757513999938965
1772721620195444200,2.9744443359375,0.16966769099235535,0.6314051151275635,2.297691583633423
1772721620214039800,2.993039794921875,0.5053378939628601,0.0910952091217041,0.9290489554405212
1772721620232635400,3.011635498046875,0.4598284661769867,-0.2745073735713959,-0.16562071442604065
1772721620251231000,3.03023095703125,0.11133010685443878,-0.4828122556209564,-0.6811906099319458
1772721620269826300,3.048826416015625,-0.2955058515071869,-0.6175079345703125,-0.8415426015853882
1772721620288422000,3.067421875,-0.698371171951294,-0.816649854183197,-0.7801506519317627
1772721620307017500,3.086017578125,-0.9078977704048157,-0.7002801299095154,-0.645455002784729
1772721620325613000,3.104613037109375,-0.8681915402412415,-0.19784383475780487,-0.5581013560295105
1772721620344208400,3.12320849609375,-0.5477929711341858,-0.051847148686647415,-0.5874228477478027
1772721620362804000,3.141803955078125,-0.11591159552335739,-0.6984475255012512,-0.5852848291397095
1772721620381399600,3.160399658203125,0.1256854236125946,-1.5884774923324585,-0.2658025324344635
1772721620399995100,3.1789951171875,0.09697478264570236,-1.9064326286315918,-0.0031306820455938578
1772721620418590500,3.197590576171875,-0.0062613640911877155,-1.3487130403518677,-0.35590508580207825
1772721620437186000,3.21618603515625,-0.2179260104894638,-0.6251437664031982,-0.8119156360626221
1772721620455781600,3.23478173828125,-0.47693267464637756,-0.5261836647987366,-1.0052543878555298
1772721620474377000,3.253376953125,-0.5001455545425415,-0.7170788645744324,-0.9533308744430542
1772721620492972500,3.27197265625,-0.4961749315261841,-0.8441387414932251,-0.9951750636100769
1772721620511568100,3.290568115234375,-0.541378915309906,-0.8093194961547852,-1.0932189226150513
1772721620530163700,3.309163818359375,-0.5862774848937988,-0.6349175572395325,-0.9481384754180908
1772721620548759000,3.327759033203125,-0.6299542784690857,-0.48678287863731384,-0.6619483232498169
1772721620567354600,3.346354736328125,-0.6195695996284485,-0.2543488144874573,-0.4197404682636261
1772721620585950200,3.3649501953125,-0.5071704983711243,0.16134466230869293,-0.17600540816783905
1772721620604545800,3.3835458984375,-0.35353797674179077,0.6692787408828735,0.28000515699386597
1772721620623141000,3.40214111328125,-0.14401137828826904,1.1824051141738892,0.6703477501869202
1772721620641736700,3.42073681640625,0.11102467030286789,1.4991384744644165,0.9116393327713013
1772721620660332000,3.43933203125,0.388662725687027,1.180572509765625,1.0081559419631958
1772721620678927600,3.457927734375,0.6452259421348572,0.6060542464256287,0.9015600681304932
1772721620697523200,3.476523193359375,0.827874481678009,0.24869832396507263,0.6303361058235168
1772721620716118800,3.495118896484375,0.984866738319397,0.16378812491893768,0.3285689055919647
1772721620734714000,3.513714111328125,1.0563379526138306,0.13568833470344543,0.1303432732820511
1772721620753309700,3.532309814453125,0.8718567490577698,0.17631085216999054,0.16974404454231262
1772721620771905300,3.5509052734375,0.480903297662735,0.31039565801620483,0.3664425015449524
1772721620790500900,3.5695009765625,0.16294817626476288,0.5559632778167725,0.344451367855072
1772721620809096200,3.58809619140625,0.09269873052835464,0.8250492215156555,0.0191658828407526
1772721620827691800,3.60669189453125,0.19990549981594086,0.8180242776870728,-0.41302093863487244
1772721620846287400,3.625287353515625,0.3462076187133789,0.579787015914917,-0.6002510190010071
1772721620864882700,3.643882568359375,0.383470356464386,0.0553596206009388,-0.2969566285610199
1772721620883478300,3.662478271484375,0.3565923273563385,-1.0912336111068726,0.38354671001434326
1772721620902073900,3.681073974609375,0.46227192878723145,-1.9522475004196167,0.483423113822937
1772721620920669400,3.69966943359375,0.2493855506181717,-2.0738096237182617,-0.3797288239002228
1772721620939264800,3.7182646484375,-0.26251915097236633,-0.881706953048706,-1.2569305896759033
1772721620957860400,3.7368603515625,-0.7603739500045776,0.11003202199935913,-1.6173408031463623
1772721620976455700,3.75545556640625,-0.9216422438621521,0.5028180480003357,-1.6252820491790771
1772721620995051300,3.77405126953125,-0.7588467597961426,0.203799769282341,-1.4634029865264893
1772721621013646800,3.792646728515625,-0.4442514181137085,-0.6312524080276489,-1.0999383926391602
1772721621032242400,3.811242431640625,0.07834340631961823,-1.0726021528244019,-0.4139372408390045
1772721621050837800,3.829837646484375,0.42073312401771545,-0.8105412125587463,0.30138540267944336
1772721621069433300,3.848433349609375,0.3611738085746765,-0.0576503649353981,0.6654608249664307
1772721621088029000,3.86702880859375,0.17302745580673218,0.8839976787567139,0.65935218334198
1772721621106624300,3.885624267578125,0.036804601550102234,1.2074506282806396,0.622394859790802
1772721621125219800,3.9042197265625,-0.009621120058000088,0.9108757376670837,0.6721803545951843
1772721621143815400,3.9228154296875,0.026419902220368385,0.5648208260536194,0.7638100385665894
1772721621162411000,3.941410888671875,0.10308343172073364,0.41179922223091125,0.8114575147628784
1772721621181006300,3.96000634765625,0.16997312009334564,0.4408152997493744,0.7906880974769592
1772721621199602000,3.978601806640625,0.22128576040267944,0.5877282619476318,0.7460949420928955
1772721621218197200,3.997197265625,0.1467602699995041,0.5758163928985596,0.6498837471008301
1772721621236792800,4.015792724609375,-0.08323032408952713,0.42798712849617004,0.43547022342681885
1772721621255388400,4.034388427734375,-0.3575085997581482,0.3684278130531311,-0.0345902182161808
1772721621273984000,4.05298388671875,-0.5099193453788757,0.4759400188922882,-0.6289616227149963
1772721621292579300,4.071579345703125,-0.5960513353347778,0.7080686092376709,-1.0556507110595703
1772721621311175000,4.0901748046875,-0.6198750138282776,0.7077631950378418,-1.0260237455368042
1772721621329770500,4.1087705078125,-0.827874481678009,-0.06711876392364502,-0.2651916742324829
1772721621348365800,4.12736572265625,-1.0428988933563232,-1.2717441320419312,0.5558105707168579
1772721621366961400,4.14596142578125,-0.5554288029670715,-1.5667917728424072,0.3285689055919647
1772721621385557000,4.164556884765625,0.1718057245016098,-0.6349175572395325,0.04604393243789673
1772721621404152300,4.18315234375,-0.033139415085315704,-0.06620246917009354,0.5164098143577576
1772721621422748000,4.201747802734375,-0.5386300086975098,0.26366451382637024,0.696309506893158
1772721621441343500,4.220343505859375,-0.7707586288452148,0.7129555344581604,0.17249293625354767
1772721621459938800,4.238938720703125,-0.502894401550293,0.9551634192466736,-0.2975675165653229
1772721621478534400,4.257534423828125,-0.03527744114398956,0.2450331300497055,-0.22579088807106018
1772721621497130000,4.2761298828125,0.366060733795166,-0.7665589451789856,0.08758273720741272
1772721621515725300,4.294725341796875,0.8333722949028015,-0.6162862181663513,0.3652207851409912
1772721621534321000,4.31332080078125,1.0202969312667847,-0.5212967395782471,0.6788998246192932
1772721621552916500,4.33191650390625,0.901789128780365,-0.8279508352279663,0.835586667060852
1772721621571511800,4.35051171875,0.6742420196533203,-0.464486300945282,0.5329031348228455
1772721621590107400,4.369107421875,0.39538222551345825,0.25755587220191956,0.247629314661026
1772721621608703000,4.387702880859375,0.2548833191394806,0.6427060961723328,0.21097742021083832
1772721621627298300,4.40629833984375,0.2848156988620758,0.560850203037262,0.4027889668941498
1772721621645894000,4.424893798828125,0.2906189262866974,0.14424043893814087,0.7170788645744324
1772721621664489200,4.4434892578125,0.29856017231941223,-0.1660788655281067,0.7213549613952637
1772721621683084800,4.462084716796875,0.20112723112106323,-0.23846633732318878,0.3362047076225281
1772721621701680400,4.480680419921875,-0.06856957077980042,-0.23357942700386047,-0.3284161686897278
1772721621720276000,4.49927587890625,-0.40088000893592834,-0.23021966218948364,-1.0217477083206177
1772721621738871300,4.517871337890625,-0.6198750138282776,0.06971494108438492,-1.5199079513549805
1772721621757467000,4.536466796875,-0.6763800382614136,0.636292040348053,-1.6930880546569824
1772721621776062500,4.5550625,-0.6629409790039062,1.1353685855865479,-1.4548507928848267
1772721621794657800,4.57365771484375,-0.5988001823425293,1.2303580045700073,-0.9490547776222229
1772721621813253400,4.59225341796875,-0.34193155169487,0.7190641760826111,-0.5419133901596069
1772721621831848700,4.6108486328125,0.20570871233940125,0.3937787115573883,-0.3415497839450836
1772721621850444300,4.6294443359375,0.7090612649917603,0.23709189891815186,-0.28321218490600586
1772721621869039900,4.648039794921875,1.1113157272338867,-0.4779253304004669,-0.3183369040489197
1772721621887635200,4.66663525390625,1.7136284112930298,-1.1260528564453125,-0.041004300117492676
1772721621906230800,4.685230712890625,1.8669555187225342,-1.7631847858428955,0.575663685798645
1772721621924826400,4.703826416015625,1.5370885133743286,-1.9672136306762695,0.8954514265060425
1772721621943422000,4.722421875,1.167820692062378,-1.5356377363204956,0.5985711216926575
1772721621962017300,4.741017333984375,0.5887209177017212,-0.7638100385665894,0.2723693251609802
1772721621980612900,4.75961279296875,-0.09575305134057999,-0.6657662391662598,-0.24197880923748016
1772721621999208200,4.778208251953125,-0.7124210596084595,-0.8765146136283875,-0.6576722860336304
1772721622017803800,4.7968037109375,-0.8657481074333191,-0.500832736492157,-0.5538252592086792
1772721622036399400,4.8153994140625,-0.5258018374443054,-0.017944153398275375,-0.3778962194919586
1772721622054994700,4.83399462890625,-0.1360701322555542,0.20807582139968872,-0.14118611812591553
1772721622073590300,4.85259033203125,0.012980876490473747,0.2545015513896942,0.3853793144226074
1772721622092185600,4.871185546875,-0.008093958720564842,0.3934732675552368,0.9357684850692749
1772721622110781200,4.88978125,-0.03558287397027016,0.8708640933036804,1.334357738494873
1772721622129376800,4.908376708984375,-0.07742711156606674,1.4194207191467285,1.5710678100585938
1772721622147972400,4.926972412109375,-0.049632761627435684,1.7013347148895264,1.640401005744934
1772721622166567700,4.945567626953125,0.06337722390890121,1.774333119392395,1.4965423345565796
1772721622185163300,4.964163330078125,0.2582430839538574,1.821675181388855,1.064355492591858
1772721622203758600,4.982758544921875,0.3929387629032135,1.6549090147018433,0.27511823177337646
1772721622222354200,5.001354248046875,0.3214675784111023,1.2007310390472412,-0.49548768997192383
1772721622240949800,5.01994970703125,0.05940660089254379,0.7251728773117065,-0.9392809271812439
1772721622259545000,5.038545166015625,-0.29703301191329956,0.3320813775062561,-1.1481966972351074
1772721622278140700,5.057140625,-0.7185297012329102,-0.08086322247982025,-1.2300525903701782
1772721622296736000,5.075736083984375,-1.1039854288101196,-0.35330891609191895,-1.0794744491577148
1772721622315331600,5.09433154296875,-1.2982404232025146,-0.3618610203266144,-0.7627410292625427
1772721622333927200,5.11292724609375,-1.0413717031478882,-0.17432554066181183,-0.5345830321311951
1772721622352522500,5.1315224609375,-0.35811948776245117,0.09995274990797043,-0.17508912086486816
1772721622371118000,5.1501181640625,0.2603811025619507,0.14485131204128265,0.2018144577741623
1772721622389713400,5.16871337890625,0.6736311316490173,0.1268308013677597,0.3850739002227783
1772721622408309000,5.18730908203125,0.984255850315094,-0.3850739002227783,0.12209659814834595
1772721622426904600,5.205904541015625,0.7631227970123291,-1.406745195388794,-0.11827868968248367
1772721622445500000,5.2245,0.44669488072395325,-1.7845650911331177,-0.06207913160324097
1772721622464095500,5.243095458984375,0.46227192878723145,-1.3652064800262451,-0.4411207437515259
1772721622482691000,5.261691162109375,0.40026915073394775,-1.0438915491104126,-0.8690314888954163
1772721622501286400,5.280286376953125,0.30863943696022034,-0.7922152876853943,-0.6051379442214966
1772721622519882000,5.298882080078125,0.2185368686914444,-0.7555633783340454,-0.06604975461959839
1772721622538477600,5.3174775390625,0.0691804364323616,-0.5435932874679565,0.32154396176338196
1772721622557073000,5.336072998046875,-0.03802633285522461,0.019624030217528343,0.3108538091182709
1772721622575668500,5.35466845703125,-0.03405570983886719,0.6051379442214966,0.2592357397079468
1772721622594263800,5.373263916015625,0.09422589093446732,0.6772199869155884,0.5069414377212524
1772721622612859400,5.391859375,0.32268932461738586,-0.0023671009112149477,0.9091958403587341
1772721622631455000,5.410455078125,0.5471821427345276,-0.6627119183540344,1.1529308557510376
1772721622650050300,5.42905029296875,0.6644681692123413,-0.734183132648468,1.1364375352859497
1772721622668646000,5.44764599609375,0.6339249014854431,-0.5356520414352417,0.8557451963424683
1772721622687241200,5.4662412109375,0.4915934205055237,-0.31146466732025146,0.33162322640419006
1772721622705836800,5.4848369140625,0.2680169343948364,-0.1813504844903946,-0.4084394574165344
1772721622724432400,5.503432373046875,-0.013286309316754341,-0.3362047076225281,-1.1665226221084595
1772721622743027700,5.52202783203125,-0.32268932461738586,-0.4217257797718048,-1.7321834564208984
1772721622761623300,5.540623291015625,-0.5832231640815735,-0.10499238222837448,-1.8766529560089111
1772721622780218600,5.559218505859375,-0.6739365458488464,0.36567893624305725,-1.6484949588775635
1772721622798814200,5.577814208984375,-0.6125446557998657,0.6515636444091797,-1.172325849533081
1772721622817409500,5.596409423828125,-0.49800750613212585,0.7047088742256165,-0.6665298342704773
1772721622836005000,5.615005126953125,-0.34468045830726624,0.36537349224090576,-0.41302093863487244
1772721622854600700,5.6336005859375,0.02916879393160343,0.3568213880062103,-0.2963457703590393
1772721622873196000,5.652196044921875,0.4396699368953705,0.886441171169281,-0.10972658544778824
1772721622891791600,5.67079150390625,0.4637990891933441,1.0950515270233154,0.07994692772626877
1772721622910387000,5.689386962890625,-0.018784092739224434,0.6662244200706482,0.3194059133529663
1772721622928982500,5.707982421875,-0.4555523991584778,-0.07536543905735016,0.2369391769170761
1772721622947578000,5.726578125,-0.3715584874153137,-0.7176897525787354,0.18257221579551697
1772721622966173400,5.74517333984375,-0.11468986421823502,-0.899727463722229,0.3285689055919647
1772721622984769000,5.76376904296875,0.05299251899123192,-1.3755911588668823,0.5365683436393738
1772721623003364400,5.7823642578125,0.4757109582424164,-1.7586033344268799,0.3099375069141388
1772721623021960000,5.8009599609375,0.9546289443969727,-2.12176251411438,0.4531853199005127
1772721623040555300,5.81955517578125,1.2328778505325317,-2.1733806133270264,0.8835395574569702
1772721623059150800,5.83815087890625,0.9366084337234497,-1.8829143047332764,1.075656533241272
1772721623077746400,5.856746337890625,0.1314886510372162,-0.7479275465011597,0.7882446646690369
1772721623096341800,5.875341796875,-0.6528617143630981,0.7938951253890991,0.24426954984664917
1772721623114937300,5.893937255859375,-1.003192663192749,1.985386848449707,-0.08284853398799896
1772721623133532700,5.91253271484375,-0.6580541133880615,2.3354125022888184,-0.09170607477426529
1772721623152128300,5.931128173828125,0.07376192510128021,1.976834774017334,0.06559160351753235
1772721623170723800,5.949723876953125,0.7649554014205933,1.4985276460647583,0.16852232813835144
1772721623189319200,5.968319091796875,1.2521201372146606,1.1378120183944702,0.19020801782608032
1772721623207914800,5.986914794921875,1.4659227132797241,0.8174134492874146,0.15874847769737244
1772721623226510000,6.005510009765625,1.4017819166183472,0.44386962056159973,0.15111267566680908
1772721623245105700,6.024105712890625,0.9870047569274902,-0.11323905736207962,0.25098907947540283
1772721623263701000,6.042700927734375,0.48792824149131775,-0.6260600686073303,0.06589704006910324
1772721623282296600,6.061296630859375,0.03191768378019333,-0.5551997423171997,-0.4707476794719696
1772721623300892200,6.07989208984375,-0.3162752389907837,-0.16363540291786194,-1.1124610900878906
1772721623319487500,6.098487548828125,-0.5884155035018921,0.44906195998191833,-1.41270112991333
1772721623338083000,6.1170830078125,-0.7426588535308838,0.8510109782218933,-1.1680498123168945
1772721623356678400,6.135678466796875,-0.5438223481178284,0.9847903847694397,-0.5214494466781616
1772721623375274000,6.15427392578125,-0.04810560122132301,1.035492181777954,-0.029703300446271896
1772721623393869300,6.172869384765625,0.8391754627227783,1.0464876890182495,0.12179116904735565
1772721623412465000,6.19146484375,1.550527572631836,0.5852848291397095,0.26687154173851013
1772721623431060200,6.210060302734375,1.5502220392227173,-0.7396808862686157,0.4235583543777466
1772721623449655800,6.22865576171875,1.244789719581604,-1.2790744304656982,0.5500074028968811
1772721623468251100,6.247251220703125,1.0261001586914062,-0.8276454210281372,0.17340923845767975
1772721623486846700,6.2658466796875,0.9088140726089478,-0.145614892244339,-0.5083158612251282
1772721623505442000,6.284442138671875,0.5933024287223816,-0.28550294041633606,-1.1955387592315674
1772721623524037600,6.30303759765625,0.09178243577480316,-0.8701004981994629,-1.3372594118118286
1772721623542633200,6.32163330078125,-0.04474584385752678,-0.6834813356399536,-1.208672285079956
1772721623561228500,6.340228515625,-0.020922118797898293,-0.06223184987902641,-0.9731839299201965
1772721623579824000,6.35882421875,0.04535670951008797,0.4249328076839447,-0.5413025617599487
1772721623598419500,6.37741943359375,0.17516547441482544,0.7770963311195374,-0.09506583213806152
1772721623617015000,6.39601513671875,0.3828594982624054,1.043433427810669,0.22288928925991058
1772721623635610400,6.4146103515625,0.6256782412528992,1.3638319969177246,0.4128682315349579
1772721623654206000,6.4332060546875,0.911562979221344,1.7703624963760376,0.5521454215049744
1772721623672801500,6.451801513671875,1.1892009973526,1.8531346321105957,0.7442623972892761
1772721623691396900,6.47039697265625,1.2029454708099365,1.1646900177001953,1.166675329208374
1772721623709992400,6.488992431640625,0.984255850315094,0.12591449916362762,1.6465096473693848
1772721623728587800,6.507587890625,0.9231693744659424,-0.4840339720249176,1.703014612197876
1772721623747183000,6.52618310546875,0.9729548692703247,-0.3820195496082306,1.2008837461471558
1772721623765778700,6.54477880859375,1.0001384019851685,-0.07933606207370758,0.3710239827632904
1772721623784374000,6.5633740234375,0.8807142972946167,0.05994110554456711,-0.32963791489601135
1772721623802969600,6.581969482421875,0.633619487285614,-0.13675735890865326,-0.7160098552703857
1772721623821565200,6.600565185546875,0.4234820008277893,-0.3664425015449524,-0.876056432723999
1772721623840160500,6.619160400390625,0.32299473881721497,-0.093691386282444,-0.8659771680831909
1772721623858756000,6.637756103515625,0.4036289155483246,0.10881029069423676,-0.8662826418876648
1772721623877351400,6.656351318359375,0.8281798958778381,0.005268708802759647,-0.7865647673606873
1772721623895947000,6.674947021484375,1.2585341930389404,-0.5796343088150024,-0.5975021123886108
1772721623914542300,6.693542236328125,1.5783218145370483,-1.2195152044296265,-0.48846274614334106
1772721623933138000,6.712137939453125,1.7279837131500244,-2.5450916290283203,-0.6885209679603577
1772721623951733200,6.730733154296875,1.6079487800598145,-3.233841896057129,-0.4716639816761017
1772721623970328800,6.749328857421875,1.404225468635559,-2.9195518493652344,0.07536543905735016
1772721623988924200,6.767924072265625,1.2457059621810913,-1.5634320974349976,0.31726789474487305
1772721624007519700,6.786519775390625,1.0975712537765503,0.06818778067827225,-0.017486004158854485
1772721624026115000,6.805114990234375,0.8907935619354248,0.8311578631401062,-0.45944666862487793
1772721624044710700,6.823710693359375,0.8428406715393066,0.49396052956581116,-0.3534616231918335
1772721624063306200,6.84230615234375,1.0471749305725098,-0.49166980385780334,0.150196373462677
1772721624081901600,6.860901611328125,1.2860230207443237,-1.0912336111068726,0.5200750231742859
1772721624100497000,6.879496826171875,1.1998910903930664,-0.7693078517913818,0.4681515097618103
1772721624119092500,6.898092529296875,0.8990402221679688,-0.14775292575359344,0.320933073759079
1772721624137687800,6.916687744140625,0.614682674407959,0.22548545897006989,0.24518585205078125
1772721624156283400,6.935283447265625,0.3822486400604248,0.5382482409477234,0.2781725525856018
1772721624174878700,6.953878662109375,0.162031888961792,0.921260416507721,0.25954118371009827
1772721624193474300,6.972474365234375,-0.024281874299049377,1.4282782077789307,0.11720968037843704
1772721624212069600,6.991069580078125,-0.12324196845293045,1.9059745073318481,-0.10881029069423676
1772721624230665200,7.009665283203125,-0.11377356201410294,2.144822597503662,-0.3009272515773773
1772721624249260500,7.028260498046875,-0.01908952370285988,2.09167742729187,-0.40721774101257324
1772721624267856100,7.046856201171875,0.09422589093446732,1.8247294425964355,-0.40569058060646057
1772721624286451500,7.065451416015625,0.20906847715377808,1.3623048067092896,-0.409050315618515
1772721624305047000,7.084047119140625,0.25121814012527466,0.867504358291626,-0.48479756712913513
1772721624323642400,7.102642333984375,0.3559814393520355,0.5745946764945984,-0.5654317140579224
1772721624342238000,7.121238037109375,0.5648971796035767,0.764879047870636,-0.34552037715911865
1772721624360833300,7.139833251953125,0.7805324792861938,0.9765437245368958,0.0011453714687377214
1772721624379428900,7.158428955078125,0.8831577301025391,0.8910226225852966,0.30718863010406494
1772721624398024200,7.177024169921875,0.9582940936088562,0.38095054030418396,0.298331081867218
1772721624416619800,7.195619873046875,1.012966513633728,-0.6410261988639832,0.1398116797208786
1772721624435215000,7.214215087890625,0.7475457787513733,-1.5704569816589355,0.23571744561195374
1772721624453810700,7.232810791015625,0.14920371770858765,-1.546633243560791,0.4159225523471832
1772721624472406000,7.251406005859375,-0.2444986253976822,-0.6718748807907104,-0.07887791097164154
1772721624491001600,7.270001708984375,-0.6042979955673218,0.2709949016571045,-0.8247438073158264
1772721624509597000,7.288596923828125,-0.9799798130989075,0.5507709383964539,-1.2783108949661255
1772721624528192300,7.307192138671875,-1.0102176666259766,0.33483025431632996,-1.1921789646148682
1772721624546787800,7.325787841796875,-0.7142536640167236,-0.3807978332042694,-0.7514400482177734
1772721624565383400,7.344383544921875,-0.5377137064933777,-1.2641083002090454,-0.08223766833543777
1772721624583978800,7.362978759765625,-0.45310893654823303,-1.705458164215088,0.4076758921146393
1772721624602574300,7.38157421875,-0.3358229100704193,-1.5670971870422363,0.6288089156150818
1772721624621169700,7.400169677734375,-0.4326449930667877,-1.1016182899475098,0.917137086391449
1772721624639765000,7.418764892578125,-0.5105302333831787,-0.65935218334198,1.207297921180725
1772721624658360600,7.437360595703125,-0.3162752389907837,-0.19814926385879517,1.334052324295044
1772721624676956000,7.455955810546875,0.009315688163042068,0.1576794683933258,1.3117557764053345
1772721624695551500,7.474551513671875,0.14401137828826904,0.28382304310798645,1.2500584125518799
1772721624714146800,7.493146728515625,0.1611155867576599,0.33941173553466797,1.031063437461853
1772721624732742400,7.511742431640625,0.08200860023498535,0.27404922246932983,0.6492729187011719
1772721624751337700,7.530337646484375,-0.16997312009334564,0.059024810791015625,0.2424369603395462
1772721624769933300,7.548933349609375,-0.4634936451911926,-0.10651954263448715,-0.22823435068130493
1772721624788528600,7.567528564453125,-0.7512109875679016,-0.08147408813238144,-0.7019599676132202
1772721624807124200,7.586124267578125,-1.0257946252822876,0.081015944480896,-1.0608429908752441
1772721624825719600,7.604719482421875,-1.1843141317367554,0.35132360458374023,-1.2331069707870483
1772721624844315000,7.62331494140625,-1.162628412246704,0.6582831740379333,-1.1628574132919312
1772721624862910500,7.641910400390625,-0.9967786073684692,0.7703768610954285,-0.9511927962303162
1772721624881505800,7.660505859375,-0.7441860437393188,0.3986656367778778,-0.4881573021411896
1772721624900101400,7.679101318359375,-0.6015490889549255,-0.4889208972454071,0.12362375855445862
1772721624918696700,7.69769677734375,-0.734106719493866,-1.2103521823883057,0.19295690953731537
1772721624937292000,7.7162919921875,-1.067638874053955,-1.3972768783569336,-0.10911571979522705
1772721624955887600,7.7348876953125,-1.2789981365203857,-0.45532333850860596,0.04909825697541237
1772721624974483200,7.753483154296875,-1.328478217124939,0.30856308341026306,0.12240202724933624
1772721624993078500,7.77207861328125,-1.4824161529541016,0.2086866796016693,-0.1625663936138153
1772721625011673900,7.790673828125,-1.7707443237304688,-0.13706278800964355,-0.4035525321960449
1772721625030269400,7.80926953125,-1.9036073684692383,-0.08239039033651352,-0.26946771144866943
1772721625048864800,7.82786474609375,-1.6723949909210205,0.16103923320770264,0.01030834298580885
1772721625067460400,7.84646044921875,-1.2701406478881836,-0.09430225193500519,0.4180605709552765
1772721625086055700,7.8650556640625,-1.1669044494628906,-0.8426116108894348,0.76991868019104
1772721625104651000,7.883651123046875,-1.1577414274215698,-1.2754093408584595,0.6068177819252014
1772721625123246600,7.90224658203125,-1.1027636528015137,-1.039310097694397,0.3707185685634613
1772721625141842200,7.92084228515625,-1.0502293109893799,0.2951240539550781,0.6953932046890259
1772721625160437500,7.9394375,-0.901178240776062,1.164995551109314,1.3694825172424316
1772721625179032800,7.95803271484375,-0.6357575058937073,0.7172316312789917,1.9904265403747559
1772721625197628400,7.97662841796875,-0.30741769075393677,-0.3245982825756073,2.1874303817749023
1772721625216223700,7.9952236328125,-0.30833399295806885,-0.6929497122764587,1.842902660369873
1772721625234819300,8.0138193359375,-0.6458367705345154,-0.17768529057502747,1.057636022567749
1772721625253414700,8.03241455078125,-1.0850485563278198,0.5266417860984802,0.14805835485458374
1772721625272010000,8.051010009765625,-1.4637846946716309,0.884913980960846,-0.4597521126270294
1772721625290605600,8.06960546875,-1.632994294166565,0.8473458290100098,-0.6869937777519226
1772721625309201000,8.088200927734375,-1.788459300994873,0.7358629703521729,-0.5113701820373535
1772721625327796500,8.10679638671875,-1.6635375022888184,0.8497892618179321,-0.37056586146354675
1772721625346391800,8.125391845703126,-1.226463794708252,1.0067814588546753,-0.49426597356796265
1772721625364987100,8.143987060546875,-0.6827940940856934,0.7709876894950867,-0.6982948184013367
1772721625383582700,8.162582763671875,-0.26679518818855286,-0.00022907429956831038,-0.4857138693332672
1772721625402178000,8.181177978515626,0.07101303339004517,-1.0686315298080444,-0.04955640435218811
1772721625420773600,8.199773681640625,0.13454297184944153,-2.230801820755005,-0.03581194952130318
1772721625439369000,8.218368896484375,-0.19898919761180878,-2.4751477241516113,-0.26213735342025757
1772721625457964500,8.236964599609376,-0.30253079533576965,-1.4064397811889648,-0.6778308153152466
1772721625476560000,8.255559814453125,-0.3156643807888031,-1.0887900590896606,-1.3241257667541504
1772721625495155200,8.2741552734375,-0.633008599281311,-0.6074286699295044,-1.3390918970108032
1772721625513750800,8.292750732421876,-0.2707658112049103,0.007406735327094793,-0.9579123258590698
1772721625532346000,8.31134619140625,0.21212279796600342,-0.07903063297271729,-0.2905425727367401
1772721625550941400,8.32994140625,0.43631017208099365,-0.7308233380317688,0.26473352313041687
1772721625569537000,8.348537109375,0.268627792596817,-1.289153814315796,0.3924042582511902
1772721625588132400,8.36713232421875,-0.2994764447212219,-1.2268455028533936,0.12392919510602951
1772721625606728000,8.38572802734375,-0.7979421019554138,-0.5463421940803528,-0.23403756320476532
1772721625625323300,8.4043232421875,-1.0633628368377686,0.23648102581501007,-0.33941173553466797
1772721625643918600,8.422918701171875,-1.111926555633545,0.5507709383964539,0.013668099418282509
1772721625662514200,8.44151416015625,-1.1357502937316895,0.29420775175094604,0.8019890785217285
1772721625681109500,8.460109619140624,-1.0914626121520996,0.03581194952130318,1.5084542036056519
1772721625699705000,8.478705078125,-0.9078977704048157,0.23831361532211304,1.6654465198516846
1772721625718300400,8.497300537109375,-0.6403390169143677,0.7639627456665039,1.3551270961761475
1772721625736895700,8.515895751953124,-0.3972148299217224,1.051680088043213,0.751592755317688
1772721625755491300,8.5344912109375,-0.29886558651924133,0.6588940024375916,0.12209659814834595
1772721625774086700,8.553086669921875,-0.44211336970329285,-0.0836121141910553,-0.31039565801620483
1772721625792682200,8.57168212890625,-0.6192641854286194,-0.5167152285575867,-0.7047088742256165
1772721625811277600,8.590277587890625,-0.7316632866859436,-0.3753000497817993,-1.0202205181121826
1772721625829873000,8.608872802734375,-0.8031344413757324,-0.022220205515623093,-1.0306051969528198
1772721625848468500,8.627468505859374,-0.819322407245636,0.26366451382637024,-0.606970489025116
1772721625867063800,8.646063720703125,-0.790611743927002,0.0962875634431839,0.017027854919433594
1772721625885659100,8.6646591796875,-0.7567087411880493,-0.13095413148403168,0.40034550428390503
1772721625904254700,8.683254638671874,-0.6553052067756653,0.03917170315980911,0.24396412074565887
1772721625922850000,8.70185009765625,-0.6479747891426086,0.00679587060585618,-0.14454588294029236
1772721625941445400,8.7204453125,-1.1479676961898804,-0.5167152285575867,-0.26732969284057617
1772721625960041000,8.739041015625,-1.853821873664856,-0.6581304669380188,-0.22762349247932434
1772721625978636300,8.75763623046875,-2.1412336826324463,-0.21616977453231812,-0.5400808453559875
1772721625997231600,8.776231689453125,-1.9087997674942017,0.6949350237846375,-0.8726966977119446
1772721626015827200,8.7948271484375,-1.5071561336517334,0.7981712222099304,-0.8656717538833618
1772721626034422800,8.8134228515625,-1.077107310295105,0.07796161621809006,-0.3830885887145996
1772721626053018000,8.83201806640625,-0.5465712547302246,-0.5051088333129883,0.3459785282611847
1772721626071613400,8.850613525390624,-0.08139773458242416,-0.6425533890724182,0.8288671374320984
1772721626090209000,8.869208984375,-0.03283398225903511,-0.5542834401130676,0.9061415195465088
1772721626108804400,8.887804443359375,-0.3529271185398102,-0.19509494304656982,0.7409026026725769
1772721626127399700,8.906399658203124,-0.6837103962898254,0.4707476794719696,0.5616137981414795
1772721626145995300,8.924995361328126,-0.780837893486023,0.8980475664138794,0.53931725025177
1772721626164590600,8.943590576171875,-0.578336238861084,0.8833868503570557,0.6016254425048828
1772721626183186000,8.96218603515625,-0.25243985652923584,0.6081922650337219,0.7225766777992249
1772721626201781500,8.980781494140626,-0.08933897316455841,0.18028147518634796,0.7729730010032654
1772721626220376800,8.999376953125,-0.19501857459545135,0.005268708802759647,0.630946934223175
1772721626238972200,9.01797216796875,-0.3572031855583191,0.20166173577308655,0.19998185336589813
1772721626257567700,9.036567626953126,-0.38957902789115906,0.47868892550468445,-0.32933247089385986
1772721626276163000,9.0551630859375,-0.2707658112049103,0.6659189462661743,-0.6262127757072449
1772721626294758400,9.07375830078125,-0.1366809904575348,0.45822495222091675,-0.6222421526908875
1772721626313354000,9.09235400390625,0.03436114266514778,0.2349538654088974,-0.2709949016571045
1772721626331949300,9.11094921875,0.1931859850883484,0.11247547715902328,0.09705114364624023
1772721626350544600,9.129544677734375,0.2292270064353943,-0.15905392169952393,0.23052509129047394
1772721626369140200,9.14814013671875,0.33948808908462524,-0.35727953910827637,0.05673406645655632
1772721626387735600,9.166735595703125,0.5743656158447266,-0.3960694372653961,-0.06604975461959839
1772721626406331100,9.1853310546875,0.5367974042892456,-0.2586248815059662,0.335288405418396
1772721626424926500,9.203926513671876,0.23625195026397705,0.0654388889670372,0.7824414372444153
1772721626443521800,9.222521728515625,0.07681624591350555,0.7554106712341309,0.7830522656440735
1772721626462117400,9.241117431640625,0.07131846249103546,0.4811323583126068,0.38263043761253357
1772721626480712700,9.259712646484376,0.08353576064109802,-0.9030871987342834,0.18929173052310944
1772721626499308000,9.27830810546875,0.06154462695121765,-1.6798018217086792,0.22411102056503296
1772721626517903600,9.296903564453125,0.01695149764418602,-0.7751110196113586,0.1196531355381012
1772721626536499000,9.3154990234375,-0.050549060106277466,0.4863247275352478,-0.13904809951782227
1772721626555094300,9.33409423828125,-0.22983787953853607,0.8522327542304993,-0.18455752730369568
1772721626573689900,9.35268994140625,-0.439364492893219,0.4918225109577179,-0.1476002037525177
1772721626592285200,9.37128515625,-0.45738500356674194,0.08498656004667282,-0.36201372742652893
1772721626610880500,9.389880615234375,-0.2747364342212677,0.10178534686565399,-0.664391815662384
1772721626629476000,9.40847607421875,-0.06368265300989151,0.33055421710014343,-0.7358629703521729
1772721626648071400,9.427071533203126,0.09544762223958969,0.5672643184661865,-0.5565741658210754
1772721626666666800,9.445666748046875,0.2130390852689743,0.4047742784023285,-0.3229183852672577
1772721626685262000,9.464261962890625,0.33429574966430664,-0.053374309092760086,-0.1014799103140831
1772721626703857700,9.482857666015626,0.3474293351173401,-0.48067423701286316,-0.05108356848359108
1772721626722453000,9.501452880859375,0.25243985652923584,-0.42019861936569214,-0.21723878383636475
1772721626741048300,9.52004833984375,0.14370593428611755,-0.12209659814834595,-0.5303069949150085
1772721626759644000,9.538643798828126,0.052076224237680435,0.04130972921848297,-0.7483857274055481
1772721626778239200,9.5572392578125,0.06337722390890121,0.0651334598660469,-0.6863829493522644
1772721626796834600,9.57583447265625,0.20937390625476837,0.2917642891407013,-0.2645808160305023
1772721626815430100,9.59443017578125,0.3770562708377838,0.3381900191307068,0.34781113266944885
1772721626834025500,9.613025390625,0.4326449930667877,0.34490951895713806,0.7247146964073181
1772721626852620800,9.631620849609375,0.3966039717197418,0.2303723841905594,0.4073704481124878
1772721626871216400,9.65021630859375,0.2390008419752121,0.046807512640953064,-0.11064288020133972
1772721626889811700,9.668811767578125,0.28267768025398254,-0.2277761995792389,-0.06666062027215958
1772721626908407000,9.687406982421875,0.4082103967666626,-0.18318307399749756,0.7045561671257019
1772721626927002400,9.70600244140625,0.25671592354774475,0.4930442273616791,1.077183723449707
1772721626945598000,9.724597900390625,0.07345648854970932,0.7251728773117065,0.3554469347000122
1772721626964193300,9.743193359375,0.06368265300989151,0.312228262424469,-0.28382304310798645
1772721626982788600,9.76178857421875,0.1718057245016098,0.008017600513994694,-0.15004366636276245
1772721627001384200,9.78038427734375,0.39446592330932617,0.2871828079223633,0.3096320927143097
1772721627019979500,9.7989794921875,0.7026472091674805,0.48937904834747314,0.5591703653335571
1772721627038574800,9.817574951171874,0.7603739500045776,0.11430807411670685,0.7677806615829468
1772721627057170400,9.83617041015625,0.34437501430511475,-0.29558220505714417,0.7659480571746826
1772721627075765800,9.854765869140625,-0.258853942155838,-0.000839939049910754,0.12728895246982574
1772721627094361000,9.873361083984374,-0.5923861265182495,0.6396517753601074,-0.764879047870636
1772721627112956400,9.891956298828125,-0.38408124446868896,0.9774600267410278,-1.060232162475586
1772721627131552000,9.910552001953125,0.3043633699417114,0.5272526741027832,-0.4457022249698639
1772721627150147300,9.929147216796874,0.9228639602661133,-0.4223366379737854,0.5698604583740234
1772721627168742700,9.94774267578125,1.1406372785568237,-1.1419353485107422,1.0942878723144531
1772721627187338200,9.966338134765625,0.9967786073684692,-1.0127373933792114,0.8343649506568909
1772721627205933600,9.98493359375,0.5438223481178284,-0.2067013680934906,0.09980003535747528
1772721627224529000,10.00352880859375,0.02306014485657215,0.4701367914676666,-0.4811323583126068
1772721627243124200,10.022124267578125,-0.18096868693828583,0.7053197622299194,-0.7273108959197998
1772721627261719800,10.0407197265625,-0.1052214577794075,0.5749000906944275,-0.6317105293273926
1772721627280315100,10.059315185546875,0.04474584385752678,0.17050762474536896,-0.25816673040390015
1772721627298910700,10.07791064453125,0.0798705667257309,-0.09430225193500519,0.19876012206077576
1772721627317505800,10.096505859375,0.10644318908452988,-0.05917752534151077,0.33773186802864075
1772721627336101400,10.115101318359375,0.3617846667766571,-0.09155336022377014,0.19478951394557953
1772721627354696700,10.13369677734375,0.6339249014854431,-0.4950295388698578,0.1963166743516922
1772721627373292000,10.1522919921875,0.6265945434570312,-1.1871393918991089,0.42019861936569214
1772721627391887600,10.1708876953125,0.5926915407180786,-1.5670971870422363,0.9263001084327698
1772721627410483000,10.18948291015625,0.504421591758728,-0.69722580909729,1.0948987007141113
1772721627429078300,10.208078369140624,0.19685117900371552,0.451200008392334,0.19814926385879517
1772721627447673600,10.226673583984375,-0.16386447846889496,0.5275580883026123,-1.032743215560913
1772721627466269200,10.245269287109375,-0.3831649422645569,-0.08758273720741272,-1.4200315475463867
1772721627484864500,10.263864501953124,-0.29825472831726074,-0.05948295816779137,-1.1759910583496094
1772721627503459800,10.2824599609375,0.1415679156780243,0.4970148503780365,-0.7303652167320251
1772721627522055200,10.30105517578125,0.41462448239326477,0.5409971475601196,-0.06788235157728195
1772721627540650800,10.319650634765624,0.41126471757888794,-0.08239039033651352,0.6596575975418091
1772721627559246000,10.33824609375,0.29733842611312866,-0.37804892659187317,0.9281326532363892
1772721627577841400,10.35684130859375,-0.05451968312263489,0.26213735342025757,0.5506182312965393
1772721627596436700,10.375436767578124,-0.351705402135849,0.9963968396186829,-0.04894553869962692
1772721627615032300,10.3940322265625,-0.5438223481178284,1.1420880556106567,-0.35651594400405884
1772721627633627600,10.412627685546875,-0.5569559335708618,0.73830646276474,-0.3281107544898987
1772721627652223000,10.431222900390624,-0.3828594982624054,0.36628979444503784,-0.08804088830947876
1772721627670818300,10.449818359375,-0.20051635801792145,0.0965929925441742,0.1608865112066269
1772721627689414000,10.468413818359375,-0.10094540566205978,-0.11323905736207962,0.2317468225955963
1772721627708009200,10.48700927734375,-0.15347976982593536,-0.25557056069374084,0.06406444311141968
1772721627726604500,10.5056044921875,-0.28328853845596313,-0.34353506565093994,-0.30337071418762207
1772721627745199900,10.524199951171875,-0.40118545293807983,-0.4214203357696533,-0.6650026440620422
1772721627763795500,10.54279541015625,-0.3678933084011078,-0.35880669951438904,-0.8226057887077332
1772721627782390800,10.561390869140626,-0.29886558651924133,-0.12392919510602951,-0.7770963311195374
1772721627800986000,10.579986083984375,-0.2390008419752121,0.1066722646355629,-0.5196168422698975
1772721627819581400,10.59858154296875,-0.16447533667087555,-0.023747367784380913,-0.09964732080698013
1772721627838177000,10.617177001953126,0.05940660089254379,-0.5417606830596924,0.26687154173851013
1772721627856772400,10.6357724609375,0.2594648003578186,-1.1865284442901611,0.14592032134532928
1772721627875367700,10.65436767578125,0.383470356464386,-1.5796200037002563,-0.018402300775051117
1772721627893963000,10.672962890625,0.39110618829727173,-1.270216941833496,0.19387321174144745
1772721627912558600,10.69155859375,-0.2793179154396057,-0.9708932042121887,0.2583194375038147
1772721627931154000,10.71015380859375,-1.5004366636276245,-1.2207368612289429,0.29100072383880615
1772721627949749200,10.728749267578126,-1.5450297594070435,-1.7839542627334595,0.40553784370422363
1772721627968344600,10.747344482421875,-1.4479022026062012,-1.6080251932144165,0.5692496299743652
1772721627986940200,10.765940185546874,-1.1268928050994873,-0.9907463192939758,0.5817723274230957
1772721628005535500,10.784535400390626,-0.388662725687027,-0.14897464215755463,0.00847574882209301
1772721628024130800,10.803130859375,0.45799586176872253,0.7373901605606079,-0.5727620720863342
1772721628042726100,10.82172607421875,1.0636682510375977,1.2749511003494263,-1.050458312034607
1772721628061321700,10.84032177734375,1.2111921310424805,1.2428807020187378,-1.2031745910644531
1772721628079917000,10.8589169921875,0.8660535216331482,0.701349139213562,-0.9117920398712158
1772721628098512400,10.877512451171874,0.49739664793014526,0.2404516488313675,-0.34093889594078064
1772721628117107700,10.896107666015626,0.3116937577724457,0.3436878025531769,0.3050506114959717
1772721628135703000,10.914703125,0.16416990756988525,0.41179922223091125,0.6706531643867493
1772721628154298600,10.933298583984374,0.15806126594543457,0.7969494462013245,0.50144362449646
1772721628172894000,10.95189404296875,0.33276858925819397,1.4353032112121582,0.09277509152889252
1772721628191489300,10.9704892578125,0.45616328716278076,1.739513874053955,-0.2911534309387207
1772721628210084600,10.989084716796874,0.4488328993320465,1.2318851947784424,-0.45394888520240784
1772721628228680200,11.00768017578125,0.37949973344802856,0.9105703234672546,-0.2929860055446625
1772721628247275300,11.026275146484375,0.2887863218784332,0.8632283210754395,-0.004352411720901728
1772721628265870800,11.044870849609374,0.19960007071495056,0.7037925720214844,0.3902662396430969
1772721628284466200,11.063466064453126,0.08689551800489426,0.0553596206009388,0.6566032767295837
1772721628303061500,11.0820615234375,-0.11468986421823502,-0.6624065041542053,0.6083449721336365
1772721628321656800,11.10065673828125,-0.28787001967430115,-0.9354630708694458,0.27023130655288696
1772721628340252400,11.11925244140625,-0.45646870136260986,-0.7308233380317688,-0.20166173577308655
1772721628358847700,11.13784765625,-0.4790706932544708,-0.29069527983665466,-0.4563923478126526
1772721628377443000,11.156443115234374,-0.33429574966430664,0.2569449841976166,-0.36690065264701843
1772721628396038400,11.175038330078126,-0.21029019355773926,0.7529671788215637,-0.05199986323714256
1772721628414633700,11.1936337890625,-0.1259908676147461,0.9090431332588196,0.2720639109611511
1772721628433229300,11.212229248046874,-0.1363755613565445,0.7373901605606079,0.69722580909729
1772721628451824600,11.23082470703125,-0.14798198640346527,0.12835796177387238,0.7241038084030151
1772721628470420000,11.249419921875,-0.002290742937475443,-0.0475710928440094,0.4061487317085266
1772721628489015300,11.268015380859374,0.06520981341600418,0.0009926552884280682,-0.17447824776172638
1772721628507609900,11.28660986328125,0.18555018305778503,0.01107192412018776,-0.617355227470398
