time,seconds_elapsed,z,y,x
1772556159001715200,0.069715087890625,-0.20084756651520727,0.24670184745639562,-0.03639291737377643
1772556159011707100,0.07970703125,-0.1679471674323082,0.2701598799332976,-0.05763400445356965
1772556159021700000,0.0897001953125,-0.10826222179830074,0.2974412700906396,-0.09244644770286976
1772556159031692300,0.0996923828125,-0.04328793758451938,0.3043053106412291,-0.08280863159000873
1772556159041685000,0.10968505859375,-0.014444704937934875,0.31162966217994686,-0.08904971793666482
1772556159051677200,0.11967724609375,0.02339899576604366,0.32553631471842526,-0.10719788050241767
1772556159061670100,0.129670166015625,0.07740881837308407,0.34003713375777006,-0.08265461007207632
1772556159071662000,0.139662109375,0.08096855668127537,0.34610300966799257,-0.10923333185277878
1772556159081654000,0.149654052734375,0.08580547531843184,0.3440300027862191,-0.1206578852519393
1772556159091647200,0.159647216796875,0.09693184948861598,0.36242724474221466,-0.15815452608391642
1772556159101639200,0.16963916015625,0.08815466879308223,0.35764819377213714,-0.21232545753680168
1772556159111632100,0.179632080078125,0.11203238798677921,0.3719596277192235,-0.21604491645134985
1772556159121624300,0.189624267578125,0.1422837338656187,0.3545382450580597,-0.20026194864697752
1772556159131617000,0.199616943359375,0.1785644230365753,0.3424456562042236,-0.18109817929789424
1772556159141609200,0.209609130859375,0.19243863461017607,0.350654681622982,-0.18577267391495406
1772556159151602200,0.219602294921875,0.18099895670711993,0.32689328228533265,-0.157735716149956
1772556159161594000,0.229593994140625,0.17432196316123008,0.3515373096764087,-0.12798026402927934
1772556159171586300,0.23958642578125,0.16411504192352294,0.3448389810815453,-0.13181465456038713
1772556159181579000,0.2495791015625,0.14340017067492009,0.36992870641350745,-0.12675620212703942
1772556159191571200,0.2595712890625,0.15106383717060087,0.3603106909796595,-0.13251213530525566
1772556159201564200,0.269564208984375,0.12888064693510531,0.34818946055322886,-0.1436319336041808
1772556159211556000,0.27955615234375,0.09481880285739898,0.3233227303221822,-0.13965528505817054
1772556159221549300,0.28954931640625,0.08881985470354556,0.31008944700062274,-0.1245585459522903
1772556159231541200,0.299541259765625,0.06189034672379493,0.29592881970107554,-0.11909838085025548
1772556159241534200,0.3095341796875,0.03407879521250724,0.29990766020417214,-0.1468608325228095
1772556159251526100,0.319526123046875,0.005180617508292198,0.2853375753208995,-0.18223733939565717
1772556159261518300,0.329518310546875,-0.037703999972343444,0.26153511332049967,-0.17933036590777338
1772556159271511000,0.339510986328125,-0.08300386190116404,0.24043986445218324,-0.1871623016424477
1772556159281503200,0.349503173828125,-0.11002513981759547,0.21434695342704652,-0.19321597565822302
1772556159291496200,0.35949609375,-0.10864859076738356,0.20804127741158007,-0.20910693388171492
1772556159301488000,0.369488037109375,-0.09058920246362685,0.22427841872423887,-0.2500906131118536
1772556159311481300,0.3794814453125,-0.08522913673520088,0.2155086906827986,-0.2186389515325427
1772556159321473000,0.38947314453125,-0.08667407484650612,0.1992391084052622,-0.13986454389467834
1772556159331465200,0.39946533203125,-0.06742343093156815,0.1869011664882302,-0.07256357029899954
1772556159341458200,0.409458251953125,-0.0687584789276123,0.19166954993382096,-0.05371325081326067
1772556159351450000,0.4194501953125,-0.06221124924123287,0.17819588198512792,-0.025057649693265557
1772556159361443300,0.429443359375,-0.059926937696337695,0.20761837582439183,-0.026285291792079803
1772556159371435300,0.439435302734375,-0.08140344096720219,0.21004633362367747,-0.045538346859812735
1772556159381428200,0.44942822265625,-0.1085427923053503,0.2038761205561459,-0.0063582099203020334
1772556159391420200,0.459420166015625,-0.13369301565289496,0.19360519417151809,0.03107669078707695
1772556159401413000,0.4694130859375,-0.15561375555992127,0.21606340195611118,0.02874627507813275
1772556159411405000,0.479405029296875,-0.1934352444320917,0.24934914709478614,0.05467288962565362
1772556159421397200,0.489397216796875,-0.2475754154205322,0.26842180409431454,0.06531710630208254
1772556159431390000,0.499389892578125,-0.3034954555630684,0.2859868330098688,0.12317001420333981
1772556159441382100,0.509382080078125,-0.3710147480845451,0.29027547011449933,0.1578363269802183
1772556159451375400,0.519375244140625,-0.40470951241552827,0.2964725711889565,0.1317578828718513
1772556159461367000,0.529366943359375,-0.399292163541913,0.3016654636569321,0.13820041007474065
1772556159471360300,0.5393603515625,-0.3715951783210039,0.32232962763160466,0.13269509065672755
1772556159481352200,0.549352294921875,-0.33285832816958427,0.32586817702129484,0.12393442270457744
1772556159491345200,0.55934521484375,-0.2597539289921522,0.3130814684234559,0.12989165060855448
1772556159501337000,0.569337158203125,-0.18219605753719806,0.3139651193901896,0.10755502337701618
1772556159511329300,0.579329345703125,-0.11375205138623713,0.3151706957876682,0.14397088323496282
1772556159521322200,0.589322265625,-0.058927405264973635,0.30590324735715985,0.13440752059780062
1772556159531314200,0.599314208984375,-0.0194715931892395,0.3066083268865943,0.11749839830771087
1772556159541307100,0.60930712890625,0.03443243095576763,0.3034524932041764,0.11933233573660254
1772556159551299000,0.619299072265625,0.03825754220187664,0.2846028313055634,0.12203363058455288
1772556159561292300,0.629292236328125,0.05704992095530033,0.2869822737880051,0.07053104155808687
1772556159571284000,0.639283935546875,0.10562836616337298,0.2732929172620177,0.05791881274431943
1772556159581277400,0.64927734375,0.15366729766726492,0.2721986922845244,0.04475932531133294
1772556159591269400,0.659269287109375,0.1488590206027031,0.2670956700570881,0.0288823225479573
1772556159601261300,0.66926123046875,0.12814005770087242,0.2784210739307105,0.060364452330768106
1772556159611254500,0.679254638671875,0.10251637162268161,0.315406988761574,0.08875424212142824
1772556159621246500,0.68924658203125,0.10001286436915396,0.3100324561163783,0.19892748517282305
1772556159631239400,0.699239501953125,0.10762041676342486,0.34859453422278164,0.2510609925139695
1772556159641231400,0.7092314453125,0.151302322101593,0.41656770799160003,0.2644628373354673
1772556159651224300,0.719224365234375,0.2248322532147169,0.44479456230551,0.3103349461942911
1772556159661216300,0.72921630859375,0.21659575526714323,0.4068178828716278,0.3185095578867942
1772556159671209200,0.739209228515625,0.21202537861168383,0.36729718886613844,0.2837088050752878
1772556159681201400,0.749201416015625,0.19959376706182955,0.3343944516956806,0.2796430900063366
1772556159691193300,0.759193359375,0.21706161921322345,0.33241204570680855,0.30422917666509747
1772556159701186300,0.769186279296875,0.22629764959216117,0.3431280855104327,0.303232274582237
1772556159711178200,0.77917822265625,0.22267010674476623,0.33030922820866104,0.30922479299530387
1772556159721171500,0.78917138671875,0.16096739154756068,0.3203971982643008,0.28226927379146216
1772556159731163100,0.7991630859375,0.11631927152574062,0.30896482688486576,0.2062638924755156
1772556159741156400,0.80915625,0.06917407399117946,0.2958727055996656,0.1356361125446856
1772556159751148500,0.8191484375,0.01754676260650158,0.33527912557572126,0.06853088071681558
1772556159761140200,0.82914013671875,-0.0469821159273386,0.3468196335047483,0.06340864233225584
1772556159771133400,0.839133544921875,-0.11923603575527668,0.34225217945873737,0.061585372427850955
1772556159781125400,0.84912548828125,-0.20838205367326734,0.35168460919260974,0.04255516633056104
1772556159791118300,0.859118408203125,-0.2829337290495634,0.347172684726119,-0.019707374706491827
1772556159801110300,0.8691103515625,-0.3436146999835968,0.3388110990941524,-0.05527377812825143
1772556159811103200,0.879103271484375,-0.4098766859203577,0.32075200305134055,-0.1136937453277409
1772556159821095400,0.889095458984375,-0.4264367755770683,0.30081571495980025,-0.10182729337997734
1772556159831088400,0.89908837890625,-0.4214461276829242,0.28481150562018154,-0.05554258513227105
1772556159841080300,0.909080322265625,-0.4147340628236532,0.2805667076572776,-0.07123670560941099
1772556159851072300,0.919072265625,-0.4330985715538263,0.265035961048305,-0.16635894839279353
1772556159861065500,0.9290654296875,-0.3655944766014814,0.26204671610444785,-0.283759804610163
1772556159871057200,0.93905712890625,-0.3121650842308998,0.2536222943693399,-0.32366474869288503
1772556159881050400,0.94905029296875,-0.25341362005472184,0.23385990153998135,-0.30808592515848576
1772556159891042600,0.95904248046875,-0.20666355931758879,0.2511038818076253,-0.25052893146388233
1772556159901035300,0.96903515625,-0.1467453894495964,0.22753011399656534,-0.152082804954797
1772556159911027500,0.97902734375,-0.0038122517645359038,0.25554449460357426,-0.0631613895729184
1772556159921020200,0.989020263671875,0.08380991758704184,0.24598668492436407,0.05826806457340717
1772556159931012400,0.999012451171875,0.15631635087132453,0.2290887416154146,0.10632233977690339
1772556159941004300,1.00900439453125,0.23131401644945143,0.210885560926795,0.0650212651606649
1772556159950997200,1.018997314453125,0.2821908017277717,0.17276625815182922,0.05202062155120075
1772556159960989400,1.028989501953125,0.3069289371430874,0.15383300962299107,-0.013395415080711244
1772556159970982400,1.038982421875,0.2706114230930805,0.10593056398034095,-0.11419482671767472
1772556159980974300,1.048974365234375,0.2458504913240671,0.03680149817466736,-0.2160094067465514
1772556159990967300,1.05896728515625,0.11959084054231643,-0.03306728008240461,-0.2880270336005837
1772556160000959500,1.06895947265625,0.0178290866792202,-0.047074470385909076,-0.3481182219479233
1772556160010952400,1.078952392578125,-0.04408639448583126,-0.01471592309474945,-0.3029727468632161
1772556160020944400,1.0889443359375,-0.08459259239733219,0.045288171491026874,-0.2527406161639839
1772556160030936600,1.0989365234375,-0.08325754440128803,0.09718056355267762,-0.1886670071169734
1772556160040929300,1.10892919921875,-0.09731997202336788,0.15179098240137098,-0.13133845188338308
1772556160050921500,1.11892138671875,-0.11318623419702052,0.18087971424162386,-0.0676256389727816
1772556160060914200,1.1289140625,-0.18122282859086988,0.20588497616052626,-0.05055643075015396
1772556160070906400,1.13890625,-0.2012386116594076,0.21107962219417095,-0.0062550418067723506
1772556160080899600,1.148899658203125,-0.20996026277542112,0.20324673661142587,-0.02997658405806869
1772556160090891300,1.158891357421875,-0.1996218241125345,0.23069179289788005,-0.04606434349529445
1772556160100884500,1.168884521484375,-0.16745792261064052,0.21456571074426173,-0.07886822340115904
1772556160110876400,1.17887646484375,-0.132344523653388,0.19841157153993844,-0.11152041987664997
1772556160120868400,1.188868408203125,-0.1055757591933012,0.18625176266878843,-0.17588497469425202
1772556160130861300,1.198861328125,-0.03546235852539539,0.15041092621982097,-0.17290665300320832
1772556160140853500,1.208853515625,0.0352396556854248,0.09832710323929786,-0.1637514327755198
1772556160150846500,1.218846435546875,0.07951017456650733,0.06665916856080294,-0.19865886083189396
1772556160160838400,1.22883837890625,0.1251870531141758,0.019273148007690904,-0.20631748582627624
1772556160170831400,1.238831298828125,0.1713186896920204,0.018883564168214798,-0.18917528543267398
1772556160180823300,1.2488232421875,0.17476327718794346,0.025972937907278535,-0.19118618686366826
1772556160190815500,1.2588154296875,0.15971709922552108,0.026836568999290464,-0.16445052095558493
1772556160200808200,1.26880810546875,0.16091887623071668,0.02320610354244709,-0.09910868207104503
1772556160210800400,1.27880029296875,0.17008476398289202,0.05408142653852701,-0.008014087368547916
1772556160220793600,1.288793701171875,0.20624445712268352,0.10598112512379884,0.07791421061195433
1772556160230785300,1.298785400390625,0.18796178145706652,0.14146511095911263,0.13646887357439846
1772556160240778500,1.308778564453125,0.1383621765077114,0.12648118457794189,0.15939031495656816
1772556160250770400,1.3187705078125,0.10204816958904266,0.1291863518834114,0.2075884556101635
1772556160260763400,1.328763427734375,0.0922907456845045,0.13069617192447186,0.21430125112179665
1772556160270755300,1.33875537109375,0.02722936770915985,0.12402268550992011,0.21977065897621212
1772556160280747500,1.34874755859375,-0.032520459854602814,0.10902969903945922,0.2276600970517844
1772556160290740500,1.358740478515625,-0.0966606313318014,0.0892770969517529,0.2581924152964726
1772556160300732400,1.368732421875,-0.17225041758418083,0.08637202316001057,0.28620668630562723
1772556160310725400,1.378725341796875,-0.20274784717857836,0.12921966963112352,0.29941907296963033
1772556160320717300,1.38871728515625,-0.2470353171944618,0.16059738919138908,0.3236560173971578
1772556160330710500,1.39871044921875,-0.303964242118597,0.145858377481997,0.337600371597521
1772556160340702200,1.4087021484375,-0.3228700181186199,0.14779986693859098,0.3560222365381196
1772556160350694400,1.4186943359375,-0.33863924965858455,0.1525559754244983,0.35503081434797495
1772556160360687400,1.428687255859375,-0.35780747598707674,0.18580153468325733,0.3575567891616374
1772556160370679300,1.43867919921875,-0.3652291504204273,0.16143296323269604,0.3554487840317189
1772556160380672500,1.448672607421875,-0.3549707912564277,0.1628692796461284,0.3387072003282606
1772556160390664400,1.45866455078125,-0.3090934217005968,0.1659023637317121,0.32729901354201135
1772556160400657400,1.468657470703125,-0.27803485109210013,0.14179390452206134,0.3297718699289486
1772556160410649300,1.4786494140625,-0.22723522270321844,0.1291822602301836,0.3055506345272064
1772556160420642300,1.488642333984375,-0.1668260544478893,0.0853285054564476,0.3166613727368414
1772556160430634200,1.49863427734375,-0.094124975374341,0.08074439253658056,0.3238169801125303
1772556160440626400,1.50862646484375,-0.04130231672525406,0.05998612053766846,0.2977296951105818
1772556160450619400,1.518619384765625,-0.0013806407034397125,0.058618923837691544,0.3081661142552271
1772556160460611300,1.528611328125,0.027950083199143407,0.021004063453525304,0.3293740297177806
1772556160470604500,1.5386044921875,0.04789455459713936,0.022083675383776424,0.36194289529137313
1772556160480596200,1.54859619140625,0.0479144283413887,0.0020842589281499383,0.3621486835291609
1772556160490589400,1.55858935546875,0.046537879291176795,0.025782676032185554,0.3428171929303557
1772556160500581400,1.568581298828125,0.0524064790636301,0.04115691690519452,0.2875522556956857
1772556160510573300,1.5785732421875,0.020040917509794233,0.031609774750471116,0.2611429356651381
1772556160520566500,1.58856640625,-0.007351531806588173,0.04462196266725659,0.27324443847779184
1772556160530558500,1.598558349609375,-0.013474398601055145,0.055437371192127466,0.3089048768585548
1772556160540551400,1.608551513671875,0.000026888006925582884,0.07734612840041517,0.3352258975511417
1772556160550543400,1.61854345703125,-0.005516717594861984,0.10552402900606393,0.35438546564914286
1772556160560536300,1.628536376953125,-0.005737082347273826,0.1539418768249452,0.3952880789997056
1772556160570528300,1.6385283203125,0.010201076018810271,0.1779432223983109,0.42395343432873484
1772556160580521500,1.648521484375,0.02239770976901054,0.19151538228541612,0.42858909477274865
1772556160590513200,1.65851318359375,0.021765841606259346,0.19369477215111255,0.44977761141508815
1772556160600505300,1.66850537109375,0.02969721912741661,0.17771905825361609,0.3985298373999074
1772556160610498300,1.678498291015625,0.009272270736098289,0.14580752407759426,0.3460101072201505
1772556160620490200,1.688490234375,0.006823708540201187,0.12001081952005624,0.26630926891975104
1772556160630483500,1.6984833984375,0.03542319555878639,0.09927212900444865,0.20055585355963557
1772556160640475400,1.708475341796875,0.03842179285287857,0.059732584168016904,0.18802523861471562
1772556160650468400,1.71846826171875,0.04248948068320751,0.04051657317504286,0.17026267783306537
1772556160660460300,1.728460205078125,0.04944003047347068,0.045720425428450104,0.17159030970763414
1772556160670452500,1.738452392578125,0.019438275441527365,0.061127691788226364,0.15950541096990928
1772556160680445200,1.748445068359375,-0.04779401683211326,0.07222659342959523,0.1461094661662355
1772556160690437400,1.758437255859375,-0.13232172729969024,0.08823767090141772,0.10784321093494072
1772556160700430300,1.768430419921875,-0.18659575380086899,0.12545797901004552,0.061160205818340176
1772556160710422300,1.77842236328125,-0.2378898877084255,0.1633221379801631,0.017447412151563913
1772556160720415200,1.788415283203125,-0.27131927910149095,0.2082736248627305,-0.0008899711096659302
1772556160730407200,1.7984072265625,-0.26261983981728554,0.2356803949654102,-0.028146299890987575
1772556160740400400,1.808400390625,-0.2586123577415943,0.2492800273813307,-0.043632659368962046
1772556160750392300,1.818392333984375,-0.24720307497680186,0.24343948465958237,-0.029966391457617283
1772556160760384300,1.82838427734375,-0.21750176419615744,0.24049320207461714,-0.061323397023417055
1772556160770377500,1.83837744140625,-0.19048282436728475,0.23018033624440432,-0.10342924868389963
1772556160780369400,1.848369384765625,-0.11845043833553791,0.21676000591814518,-0.11303150029303505
1772556160790362400,1.8583623046875,-0.05282791934609413,0.2037317436493933,-0.15246659837430343
1772556160800354300,1.868354248046875,-0.009473930788040161,0.1810775749012828,-0.21309773881724103
1772556160810347300,1.87834716796875,0.050632455128431314,0.14208075863942504,-0.24672827880559486
1772556160820339200,1.888339111328125,0.11541560068428516,0.11591463624760508,-0.224456606569048
1772556160830331400,1.898331298828125,0.15351649101972578,0.08533712715432047,-0.19687537494860588
1772556160840324400,1.908324462890625,0.14586451496183872,0.06854395939409733,-0.1698649654860608
1772556160850316300,1.91831640625,0.15905951209962368,0.0970358943849802,-0.14427936466224492
1772556160860309200,1.928309326171875,0.15377192708551882,0.08621990133821963,-0.12369005602207034
1772556160870301200,1.93830126953125,0.11849077034592628,0.10379472099542617,-0.10640115890046581
1772556160880294400,1.94829443359375,0.09031623074114323,0.1306317283861339,-0.12637743194252252
1772556160890286000,1.9582861328125,0.052931379720568654,0.1580734236717224,-0.06558951176898553
1772556160900279300,1.968279296875,0.006993804410099983,0.1867882076330483,-0.05910270703295246
1772556160910271500,1.978271484375,-0.05970715746581554,0.18903525590747594,-0.06185540327457711
1772556160920263200,1.98826318359375,-0.10333294870257377,0.20908800998553634,-0.07329561090059578
1772556160930256400,1.99825634765625,-0.12781915518343448,0.21193375480547547,-0.07884819439328275
1772556160940248300,2.008248291015625,-0.13667992250919342,0.2002807264126837,-0.0983241714966949
1772556160950241300,2.0182412109375,-0.14710487041175366,0.18242489785701035,-0.12047432711226864
1772556160960233200,2.028233154296875,-0.12639642890393732,0.16863763391450046,-0.0932668241750449
1772556160970226200,2.03822607421875,-0.09404957205057143,0.16279373019188642,-0.06036270789825357
1772556160980218000,2.048218017578125,-0.027411738538742063,0.15442030799165368,-0.04839300563856959
1772556160990210300,2.058210205078125,0.010718962413072585,0.1612711967997253,-0.022822191391931847
1772556161000203300,2.068203369140625,0.05037818810641765,0.15221139977052806,-0.01773242137171328
1772556161010195200,2.0781953125,0.03551730358302593,0.1456909119606018,0.02309280676054768
1772556161020188400,2.0881884765625,0.01172784719467163,0.13662863071337342,0.08318585827141069
1772556161030180000,2.09818017578125,-0.02916822681725025,0.14470219318419694,0.1316176524172537
1772556161040173300,2.10817333984375,-0.06734978117346763,0.1807327069863677,0.15363545949058607
1772556161050165200,2.118165283203125,-0.1208031389415264,0.19342136203721164,0.1616818599598482
1772556161060157200,2.1281572265625,-0.1584083547145128,0.1949487177349627,0.1850172341714613
1772556161070150400,2.138150390625,-0.1897498339176178,0.20391382221803067,0.19594191175708547
1772556161080142300,2.148142333984375,-0.19925766697525976,0.22487594622597096,0.1698699521884322
1772556161090135300,2.15813525390625,-0.19640110850036144,0.23271102376580238,0.15208446718892082
1772556161100127200,2.168127197265625,-0.1801940700650215,0.21992431516796349,0.17578098459681496
1772556161110120200,2.1781201171875,-0.1545616161584854,0.21921324428915975,0.21101201858436688
1772556161120112000,2.188112060546875,-0.12526713261306285,0.21220687265843152,0.22466334465490653
1772556161130105300,2.198105224609375,-0.08968611614406108,0.20342574644014239,0.2009063474977389
1772556161140097300,2.20809716796875,-0.04322422469854355,0.20057064926996826,0.20574269987931473
1772556161150089200,2.218089111328125,0.04138414978981018,0.18782471107393503,0.21709270847123116
1772556161160082400,2.22808251953125,0.09556874444186687,0.14975406974628566,0.22434070683810858
1772556161170074000,2.23807421875,0.13796060996949672,0.13358210262432693,0.21923127313619478
1772556161180067300,2.2480673828125,0.1581914970934391,0.09061609047055244,0.1892874771028757
1772556161190059300,2.258059326171875,0.17906418925225734,0.07883169078305363,0.21403817973881958
1772556161200052200,2.26805224609375,0.23175708404183387,0.09367080186605453,0.23006770618278533
1772556161210044400,2.27804443359375,0.23423370328843593,0.0960968599691987,0.24747896930873392
1772556161220036400,2.288036376953125,0.23259002773463724,0.07850421239435672,0.2751230552986264
1772556161230029300,2.298029296875,0.22072657146155833,0.07947992555871605,0.30904519864469765
1772556161240021200,2.308021240234375,0.22271628397405147,0.07019537986293435,0.28986531841102986
1772556161250014200,2.31801416015625,0.21824702960550785,0.08009718067422508,0.2976088817425072
1772556161260006100,2.328006103515625,0.25224808340668675,0.08751593249812721,0.25920203073043374
1772556161269999400,2.337999267578125,0.2500426823168993,0.07570873645693063,0.23061752208527175
1772556161279991300,2.3479912109375,0.2384294014126062,0.039533699617534876,0.21171021171528845
1772556161289983200,2.357983154296875,0.22361878577172756,0.004569499872624874,0.18787706231568008
1772556161299976400,2.3679765625,0.1823860271513462,-0.021369243504107,0.17644553118646145
1772556161309968100,2.377968017578125,0.14016075036227701,-0.041984015379101035,0.1285696264908649
1772556161319961300,2.38796142578125,0.10272621498107909,-0.02001651372089982,0.09133859605882316
1772556161329953300,2.397953369140625,0.058491351935267444,-0.018563100042194126,0.08016465641986578
1772556161339946200,2.4079462890625,0.030042087042331692,-0.006737491561472415,0.06720587919075041
1772556161349938400,2.4179384765625,-0.03538870876729488,0.010587591118365526,0.08121067660776898
1772556161359930400,2.427930419921875,-0.09982172571122645,0.029133301634341476,0.08007699640272185
1772556161369923300,2.43792333984375,-0.1422971778690815,0.051125791603326795,0.05336619094125926
1772556161379915300,2.447915283203125,-0.1869119801431894,0.05951821076497435,0.039800296398159116
1772556161389908200,2.457908203125,-0.20051205095052718,0.07987345492094755,-0.004669873240869492
1772556161399900200,2.467900146484375,-0.224287478813529,0.10051993710845708,-0.028614812451880422
1772556161409893400,2.477893310546875,-0.23957740240395067,0.10798559681400656,-0.015928952146321534
1772556161419885300,2.48788525390625,-0.2504693832963705,0.13303411335274576,0.011138101140595972
1772556161429877200,2.497877197265625,-0.21645313192605972,0.16058657553642988,-0.01869191405363381
1772556161439870500,2.507870361328125,-0.19368658884465692,0.1640546900384128,-0.059223173341155046
1772556161449862100,2.517862060546875,-0.15013386284410954,0.15847177533954382,-0.09277162453662603
1772556161459855400,2.52785546875,-0.12887071006298065,0.16156579583212732,-0.11227302834223955
1772556161469847300,2.537847412109375,-0.0859293939590454,0.1499769187167287,-0.09537216242384165
1772556161479840300,2.54784033203125,-0.050856911534070966,0.14770064434781668,-0.07685418016500771
1772556161489832400,2.55783251953125,-0.026578210324048994,0.12343144161850213,-0.05780954368356615
1772556161499825200,2.5678251953125,-0.01595861663222313,0.12044906480684876,-0.07370864868089556
1772556161509817300,2.5778173828125,-0.016202362260222435,0.1194482172012329,-0.12150292124133556
1772556161519809300,2.587809326171875,-0.0012245733588933945,0.13791004882603883,-0.13539678736347704
1772556161529802200,2.59780224609375,-0.013600655329227447,0.12165537185668944,-0.11630454888064413
1772556161539794200,2.607794189453125,-0.007931377521157265,0.09660831662267445,-0.13986648012343794
1772556161549787400,2.617787353515625,0.007663081973791122,0.06775982327908277,-0.1967606625277549
1772556161559779300,2.627779296875,0.02546469612419605,0.04854819620028138,-0.23367216041553765
1772556161569772300,2.637772216796875,0.019426000481843946,0.04098521360009908,-0.22236882224325089
1772556161579763700,2.647763671875,0.027315292426943777,0.02191211820915341,-0.18932883202657103
1772556161589755600,2.657755615234375,0.05469137513041496,0.01916954150274396,-0.17241755431201308
1772556161599748600,2.66774853515625,0.1021335097849369,0.010370587366819381,-0.15831362563576548
1772556161609740800,2.67774072265625,0.12899170609414576,0.01347834412381053,-0.17370021453369408
1772556161619733500,2.6877333984375,0.14059212751686573,0.009884265154600143,-0.14858217642270027
1772556161629725700,2.6977255859375,0.17273732431828975,-0.0058140931062400335,-0.14682064664289354
1772556161639718700,2.70771875,0.18527181172072887,-0.005952770924568176,-0.0958382820982486
1772556161649710600,2.717710693359375,0.16188450639247892,-0.019443828399479387,-0.04269187138751149
1772556161659702500,2.72770263671875,0.15202011498212814,-0.021054478466510772,-0.02487688629887998
1772556161669695500,2.737695556640625,0.12075579266846179,-0.017372575083374975,0.013531754811480641
1772556161679687700,2.747687744140625,0.07887363022863865,-0.010734306112676858,0.027940146327018738
1772556161689680600,2.7576806640625,0.06320435193181037,0.0030468203499913215,0.05038724819570779
1772556161699672600,2.767672607421875,0.02657879484593868,0.03290376008376479,0.05865227811802178
1772556161709665500,2.77766552734375,-0.024455226820707318,0.033010581459105015,0.07181479775831102
1772556161719657700,2.78765771484375,-0.09410860876142978,0.0312977861918509,0.11011479086242615
1772556161729649700,2.797649658203125,-0.17378361850082874,0.02737228331118822,0.16270104693975299
1772556161739642600,2.807642578125,-0.21341946331858633,0.03767930392250418,0.1596476507185027
1772556161749634600,2.817634521484375,-0.2321259173542261,0.06314078517630696,0.20468330875318497
1772556161759627500,2.82762744140625,-0.2550660634368658,0.07373729025349021,0.2108368994794786
1772556161769619700,2.83761962890625,-0.27607845632731914,0.08015987064689398,0.1870387483280152
1772556161779612400,2.8476123046875,-0.3069868048101663,0.09027546033933759,0.22795023910477757
1772556161789604600,2.8576044921875,-0.31608138089179993,0.09568594108074903,0.2638171598430723
1772556161799596500,2.867596435546875,-0.31179858900606633,0.11384922815039754,0.2644401688459329
1772556161809589500,2.877589599609375,-0.280690918558836,0.12694354139268396,0.27892962624104695
1772556161819581400,2.88758154296875,-0.244966694226861,0.14301117135733366,0.29294713700916614
1772556161829574700,2.89757470703125,-0.20084756651520727,0.13651859446763992,0.27724739050883795
1772556161839566600,2.907566650390625,-0.17749474797844886,0.13525851140394807,0.28678079639915377
1772556161849559600,2.9175595703125,-0.13989479290246962,0.1257569619566202,0.285682260572724
1772556161859551700,2.9275517578125,-0.11886311078965663,0.1087548276208341,0.2822036794756539
1772556161869543700,2.937543701171875,-0.07045885310471058,0.09918123585060239,0.25013520117225124
1772556161879536600,2.94753662109375,-0.03608896599113941,0.07924158675819636,0.22219753906326367
1772556161889528600,2.957528564453125,-0.024360534274578093,0.0671484133824706,0.1807618234829977
1772556161899521500,2.967521484375,0.02354337267279625,0.02781184377223253,0.140570043549221
1772556161909513700,2.977513671875,0.037006665357947346,0.025598113245517015,0.16973684559436514
1772556161919506400,2.98750634765625,0.08593991535305977,0.04812880174443125,0.17186331796273588
1772556161929498600,2.99749853515625,0.12955869232714176,0.04760170913040638,0.1707331266227178
1772556161939490600,3.007490478515625,0.15324410381913184,0.04003331970274448,0.21969565751124173
1772556161949483500,3.0174833984375,0.1615758788347244,0.04853036828264594,0.2587863443353213
1772556161959475500,3.027475341796875,0.18824059839844703,0.06912059023827313,0.2604833209789358
1772556161969468700,3.03746875,0.21142858176231383,0.07336714176684618,0.233944693746604
1772556161979460600,3.047460693359375,0.19135551554858685,0.05619257347360253,0.21118653490105643
1772556161989453600,3.05745361328125,0.1489016907006502,0.05718757586032152,0.15343199107404798
1772556161999445800,3.06744580078125,0.12235738264620304,0.07405819277092814,0.1313485348859802
1772556162009437400,3.0774375,0.07903262018263339,0.08531140819117426,0.18552301000282168
1772556162019430700,3.0874306640625,0.09110884242355823,0.12073957218602299,0.23082583107370883
1772556162029422600,3.097422607421875,0.09406476961970328,0.15942542280256747,0.25482768810372797
1772556162039415600,3.10741552734375,0.11813596555888652,0.17951660919487475,0.2692377235870808
1772556162049407700,3.11740771484375,0.09552315173447132,0.21600436524525282,0.2789894118705764
1772556162059400400,3.127400390625,0.08320493743121624,0.24493746813237666,0.284030840103887
1772556162069392600,3.137392578125,0.051399347847700116,0.2677059109099209,0.2629482680540532
1772556162079384600,3.147384521484375,0.03401742041409016,0.2601150173895061,0.28675014553256334
1772556162089377500,3.15737744140625,-0.005749941828846931,0.2766967343561351,0.27047117437217383
1772556162099369500,3.167369384765625,-0.019501988327503203,0.25490078987255693,0.23961053748857228
1772556162109362700,3.17736279296875,-0.04887362876236438,0.2739801688738167,0.19149211100768296
1772556162119354600,3.187354736328125,-0.07392389886677264,0.2943149547636509,0.17044084741156548
1772556162129347600,3.19734765625,-0.037518122011423106,0.3135338883660734,0.13768266981095076
1772556162139339800,3.20733984375,0.02459726563990116,0.33112142137438055,0.13584471379406748
1772556162149331500,3.21733154296875,0.12169804195463657,0.3724985569015145,0.11044570331722497
1772556162159324700,3.22732470703125,0.2327367427289486,0.4036164564818144,0.09553316167183219
1772556162169316600,3.237316650390625,0.3188742264807224,0.38560777545198793,0.10714929212033748
1772556162179309600,3.2473095703125,0.3648281684041023,0.3542189499758184,0.12039945351146161
1772556162189301800,3.2573017578125,0.40230888101458545,0.3154709939084947,0.10616035414822399
1772556162199294500,3.26729443359375,0.42957916525602335,0.2786599972531199,0.10843768796306102
1772556162209286700,3.27728662109375,0.44845454611778257,0.26122663189321754,0.08659089007508008
1772556162219278600,3.287278564453125,0.44536593245267864,0.24520634820163248,0.035628362742066384
1772556162229271600,3.297271484375,0.44461949799954886,0.2370548981890082,-0.01963131379559636
1772556162239263500,3.307263427734375,0.4103466415196657,0.22442834858894348,-0.0659716612206772
1772556162249256700,3.317256591796875,0.36537352732717987,0.22506533131822942,-0.08019764537401497
1772556162259248600,3.32724853515625,0.34708909809589383,0.20008388866633176,-0.07329893536884337
1772556162269241600,3.33724169921875,0.27286300141215325,0.18866817616075277,-0.057097559489309786
1772556162279233800,3.34723388671875,0.20940321341454982,0.19250863110646604,0.005657843098603189
1772556162289225500,3.3572255859375,0.1418389127075672,0.18126316060125827,0.01205930763874203
1772556162299218700,3.36721875,0.07338087803125382,0.19014234036654232,0.005534874306060374
1772556162309210600,3.377210693359375,0.03273147225677967,0.2193457846276462,0.010946706754341722
1772556162319203600,3.38720361328125,-0.013760229805111884,0.22675854510217905,-0.015534217207692562
1772556162329195800,3.39719580078125,-0.07499649653434753,0.25415713189840317,-0.01332483406253159
1772556162339187700,3.407187744140625,-0.1310778647184372,0.2357309561088681,0.032354857496730983
1772556162349180700,3.4171806640625,-0.1461743115633726,0.22726576397195458,0.056644116633385415
1772556162359172600,3.427172607421875,-0.16057167022824287,0.22615488012060522,0.07542506067734212
1772556162369165600,3.43716552734375,-0.16833645901083946,0.2087961143668741,0.04422434165179729
1772556162379157500,3.447157470703125,-0.18352526031434535,0.1808556757789105,0.014057166925072669
1772556162389150700,3.457150634765625,-0.2004588594585657,0.17219744528792796,-0.0496156427687034
1772556162399142400,3.467142333984375,-0.22461948724687097,0.13868914343975483,-0.0763391067823395
1772556162409134600,3.477134521484375,-0.2471399466127157,0.09877871946431696,-0.08648728357013315
1772556162419127800,3.4871279296875,-0.23772563705742358,0.05770290497131645,-0.1323848191311583
1772556162429119500,3.497119384765625,-0.21784429402351377,0.022942264974489805,-0.14111001391112804
1772556162439112700,3.50711279296875,-0.1994569889396429,-0.030500425269082188,-0.15581830168869346
1772556162449104600,3.517104736328125,-0.20922376519441604,-0.057584247027710075,-0.16117635812312364
1772556162459097600,3.52709765625,-0.2495405780136585,-0.09091280839480459,-0.19782018151804803
1772556162469089500,3.537089599609375,-0.25188860244452954,-0.10048355062082409,-0.2292040385581553
1772556162479081700,3.547081787109375,-0.29109774628281593,-0.12800327957868576,-0.18458401211965828
1772556162489074700,3.55707470703125,-0.3092711163550615,-0.14055596022494135,-0.19052326597552746
1772556162499066600,3.567066650390625,-0.34845512575209137,-0.13275456575900316,-0.17660791867394
1772556162509059600,3.5770595703125,-0.3863964416116476,-0.1253809682510793,-0.15779709094837308
1772556162519051500,3.587051513671875,-0.42975043016970155,-0.09528780860863625,-0.18462368654292075
1772556162529044700,3.597044677734375,-0.4459346722513437,-0.08812763465568423,-0.18124427323769776
1772556162539036400,3.607036376953125,-0.4603308618724346,-0.0455428769044578,-0.1868518474537879
1772556162549028600,3.617028564453125,-0.47775662844777106,-0.024741496416181324,-0.22827329704668373
1772556162559021800,3.627021728515625,-0.44358372521102424,0.0004952361710369587,-0.2636816238299012
1772556162569013500,3.637013427734375,-0.4206394874751568,0.03449278284087777,-0.28392518777232617
1772556162579007500,3.647007568359375,-0.3892074073791504,0.029210385458543896,-0.24136969264820216
1772556162588999200,3.656999267578125,-0.34183775343894957,0.05800663715824485,-0.23145634752959013
1772556162598992400,3.666992431640625,-0.29377134940624233,0.06028517654947936,-0.22356866301968692
1772556162608984600,3.676984619140625,-0.25035247891843315,0.05775127415768802,-0.221631009487994
1772556162618976300,3.686976318359375,-0.20153730234503744,0.056709363889321684,-0.23826354332640765
1772556162628969500,3.696969482421875,-0.1463181039482355,0.09778956229649484,-0.194612654181011
1772556162638961400,3.70696142578125,-0.09361585680842399,0.1109879935003817,-0.15351144951842724
1772556162648954400,3.716954345703125,-0.05440963557958602,0.16054785096123814,-0.1467711084127426
1772556162658946300,3.7269462890625,-0.005275894576311111,0.1878623396705836,-0.12353848218955099
1772556162668939300,3.736939208984375,0.012486556607484817,0.24114077926315367,-0.08856164215877652
1772556162678931500,3.746931396484375,0.04529927740693092,0.25573811747953296,-0.0668222501680255
1772556162688923400,3.75692333984375,0.05433540129959583,0.2658235312294215,-0.03938778834082186
1772556162698916400,3.766916259765625,0.08562018187940121,0.2955396742530167,-0.019302995156683028
1772556162708908300,3.776908203125,0.12943185107707977,0.30329613359868524,-0.0005580722741782665
1772556162718901500,3.786901611328125,0.15108780256807802,0.30054267017208036,0.004204940876550972
1772556162728893200,3.79689306640625,0.1670838286012411,0.2713080270551145,0.027248437735810874
1772556162738886400,3.806886474609375,0.15653905371129512,0.2557439626984298,0.046755686760321255
1772556162748878600,3.816878662109375,0.13650748855173586,0.236794201426208,0.0885217120071873
1772556162758870300,3.826870361328125,0.1334475164592266,0.24152269125282763,0.12367781759500503
1772556162768863500,3.836863525390625,0.1478951440066099,0.2525851333413273,0.15837277194447816
1772556162778855400,3.84685546875,0.1353121412873268,0.259012901366502,0.18715331461839377
1772556162788848400,3.856848388671875,0.13716273759007452,0.2607274501994252,0.19531656466666608
1772556162798840300,3.86684033203125,0.1309293961584568,0.23396920713335273,0.20420995562039315
1772556162808833300,3.876833251953125,0.13796470162272453,0.21222842690311372,0.1813788594027981
1772556162818825500,3.886825439453125,0.14301906240284443,0.18532653758265077,0.1606042573235929
1772556162828817400,3.8968173828125,0.20231822358965873,0.12144618608541786,0.14910831918865441
1772556162838810400,3.906810302734375,0.268805250453949,0.06760974728390574,0.13019881686158477
1772556162848802300,3.91680224609375,0.2960650133013725,0.019214330492541194,0.10542210300154983
1772556162858795500,3.92679541015625,0.3243704858094454,-0.02413724691271782,0.04160999443493783
1772556162868787200,3.936787109375,0.31108254969120025,-0.06259542625322938,0.013324614866822957
1772556162878780400,3.946780517578125,0.311946473044157,-0.09543554651625454,0.01635828347429633
1772556162888772600,3.956772705078125,0.3048328416466713,-0.10704312833212315,0.02262925350256264
1772556162898764300,3.966764404296875,0.2330272501081228,-0.10051080395393074,0.05305734418779611
1772556162908757500,3.976757568359375,0.18082418466210365,-0.1079609007641673,0.06484678537659347
1772556162918749400,3.98674951171875,0.10335632957816124,-0.11459105949364602,0.08501403267979621
1772556162928742400,3.996742431640625,0.03140753017663955,-0.07711860325485467,0.09085026455260813
1772556162938734300,4.006734375,-0.047665422016382214,-0.06933218716233969,0.07310125737227499
1772556162948726500,4.0167265625,-0.1448193898230791,-0.05309840685054659,0.09857362534627317
1772556162958719200,4.02671923828125,-0.2276420499384403,-0.04365640557073056,0.1327130647048354
1772556162968711400,4.03671142578125,-0.2934685670673847,-0.03710698392726481,0.1344141695342958
1772556162978704400,4.046704345703125,-0.3525315814107656,-0.021777312848344443,0.14223828728869556
1772556162988696300,4.0566962890625,-0.3758592655062675,0.005965995732322335,0.0934444457642734
1772556162998689500,4.066689453125,-0.4023649951159954,-0.007192395722121,0.06384535324908792
1772556163008681200,4.07668115234375,-0.4245516924828291,-0.0279378813046962,0.02837641885243356
1772556163018673400,4.08667333984375,-0.43111762686967847,-0.06726546389088034,-0.03566547988206148
1772556163028666400,4.096666259765625,-0.41681963692605495,-0.09590206804946064,-0.07680997569710016
1772556163038658300,4.106658203125,-0.4132558069646358,-0.12885711992904544,-0.09167714383080601
1772556163048651500,4.116651611328125,-0.43646424859464167,-0.1707658050496131,-0.1138509817160666
1772556163058643500,4.1266435546875,-0.40970717457234856,-0.15817651872001587,-0.09667349081337451
1772556163068636400,4.136636474609375,-0.33129882376790043,-0.1413979640070349,-0.05491057083904743
1772556163078628400,4.14662841796875,-0.2876888146221638,-0.1420270556908101,-0.03518624499775469
1772556163088620500,4.15662060546875,-0.25175007075667377,-0.15341127707958221,0.006535246987640857
1772556163098613200,4.16661328125,-0.20289222408533095,-0.1529878640357405,0.018118278884142636
1772556163108605400,4.17660546875,-0.12552490676641465,-0.15817717630714176,0.009088073275610804
1772556163118598400,4.186598388671875,-0.027545009529590606,-0.17132716525942085,0.04457921950407326
1772556163128590300,4.19659033203125,0.06485095009505748,-0.1829478257525712,0.17669022666253148
1772556163138582500,4.20658251953125,0.16530571301281452,-0.15201324684992432,0.3009706132605672
1772556163148575200,4.2165751953125,0.23996143328547476,-0.16138532469868658,0.3236388835992664
1772556163158567400,4.2265673828125,0.24773615894019602,-0.14919007918797433,0.30072343356646597
1772556163168560400,4.236560302734375,0.22534780152142048,-0.13740166091248393,0.2523867612250149
1772556163178552300,4.24655224609375,0.17633739463686943,-0.14688472485505044,0.2538286671290174
1772556163188545500,4.256545654296875,0.12990297572016715,-0.12418518259525298,0.22639555700868366
1772556163198537500,4.266537353515625,0.05718260742425918,-0.05597856539674103,0.19195647711642086
1772556163208529400,4.276529296875,-0.0065115738511085505,0.004026004113070666,0.17600538620352743
1772556163218522400,4.2865224609375,-0.06709142249822617,0.07309785983879119,0.20597466373797504
1772556163228514600,4.2965146484375,-0.09550093990266323,0.17013938024695963,0.2233315297955647
1772556163238507300,4.30650732421875,-0.11449673227369785,0.2399340338218957,0.2158036915739998
1772556163248499500,4.31649951171875,-0.1531973420679569,0.2508973629174754,0.20172570105660706
1772556163258492400,4.326492431640625,-0.22332184865176677,0.22133319558519868,0.16301212218292058
1772556163268484400,4.336484375,-0.2188280443638563,0.2045492340447381,0.1745463465016335
1772556163278476500,4.3464765625,-0.1635766972631216,0.20898571865484117,0.1708595477476716
1772556163288469200,4.35646923828125,-0.1292903967797756,0.18432660329248754,0.12615440030898897
1772556163298461400,4.36646142578125,-0.10119009145498276,0.1438727931553498,0.128930440893583
1772556163308454400,4.376454345703125,-0.06844517519474029,0.11000201467033476,0.15426705365870147
1772556163318446300,4.3864462890625,-0.03193827605247497,0.12265263926573097,0.16192034489084034
1772556163328439600,4.396439453125,0.0022030630022287366,0.11297580631673336,0.15322499725986272
1772556163338431200,4.40643115234375,0.02737783626914024,0.13102445403076707,0.1085772425642237
1772556163348423400,4.41642333984375,0.04795300678610801,0.13205730420984327,0.12096015613414346
1772556163358416400,4.42641650390625,0.06307926424741744,0.11621193869374692,0.14056049026958645
1772556163368408300,4.436408203125,0.07308686352074145,0.13245580200813709,0.15375303972195833
1772556163378401300,4.4464013671875,0.10704407818019389,0.08782543683871627,0.17103402753174304
1772556163388393500,4.4563935546875,0.12359832261800766,0.08174918566495179,0.19375702373236417
1772556163398385400,4.466385498046875,0.12282792276740073,0.08405052140988409,0.19939192434679714
1772556163408378400,4.47637841796875,0.08994973551630973,0.04055164448842406,0.209337783495523
1772556163418370600,4.48637060546875,0.07686404397189617,0.0437720678396523,0.20140202206019311
1772556163428363300,4.49636328125,0.06651216130554675,0.02387998421601951,0.18193620102461427
1772556163438355500,4.50635546875,0.045403322303295135,-0.0011303192041814327,0.16582995608262716
1772556163448348200,4.51634814453125,0.009938041168451308,-0.016832696053013206,0.14126535060331225
1772556163458340400,4.52634033203125,-0.040917701321840284,-0.017671558029949665,0.11957348754871636
1772556163468332300,4.536332275390625,-0.08750643401741981,0.030510727467387914,0.11610497118793427
1772556163478325200,4.5463251953125,-0.08856032698452472,0.03603745499961078,0.09950144424829631
1772556163488317400,4.5563173828125,-0.10698562599122524,0.03153700177520513,0.12478124879226088
1772556163498310400,4.566310302734375,-0.17725392495989797,0.04351641257815063,0.11495890642534941
1772556163508302300,4.57630224609375,-0.2659194658845663,0.046703079790249465,0.07611399278957397
1772556163518295300,4.58629541015625,-0.32506957398951053,0.08649674551822245,0.07975983847863971
1772556163528287500,4.59628759765625,-0.35091830099523064,0.12807459124922752,0.09339147346802056
1772556163538279200,4.606279052734375,-0.3238222042769193,0.15821560862138867,0.11412694911323487
1772556163548272400,4.6162724609375,-0.27047055331766606,0.1943972943972796,0.08760149188973008
1772556163558264300,4.626264404296875,-0.1983463973492384,0.19954057556986807,0.11262662755288183
1772556163568257300,4.63625732421875,-0.14243044885993003,0.18968699781447648,0.12996778458468616
1772556163578249200,4.646249267578125,-0.08185001569092273,0.1400944801930338,0.13053831448163836
1772556163588242200,4.6562421875,-0.011909048980474471,0.11763751451745628,0.13577778603769838
1772556163598234000,4.666234130859375,0.04293722445070743,0.07624635046496987,0.1377302718123421
1772556163608226000,4.67622607421875,0.11433657327592373,0.08608611889071761,0.11249178565945475
1772556163618219300,4.68621923828125,0.17690204278230667,0.07331307349205017,0.11247074287142604
1772556163628211000,4.6962109375,0.2291542080670595,0.05134893283471465,0.1221924378754571
1772556163638204200,4.7062041015625,0.23582594091594217,0.021577552492544054,0.08770929964575916
1772556163648196000,4.716196044921875,0.24010522567033765,-0.021008520432934163,0.03742788644470274
1772556163658188000,4.72618798828125,0.25205869831442834,-0.07104534775577485,0.0013781199527904391
1772556163668181200,4.73618115234375,0.2570066761106253,-0.10777568039037287,-0.06852474323697388
1772556163678173200,4.746173095703125,0.2701063961803913,-0.14793781410455703,-0.12132336342334747
1772556163688166100,4.756166259765625,0.27209961582422254,-0.16304361329972744,-0.1305459497988224
1772556163698158000,4.766157958984375,0.24117665429413318,-0.1838571226172149,-0.12554193096645175
1772556163708151000,4.776151123046875,0.24012743750214574,-0.1861982058506459,-0.16556304877474903
1772556163718143200,4.786143310546875,0.24193419466316698,-0.170077822785452,-0.19387904267683623
1772556163728135200,4.79613525390625,0.25360300514698025,-0.1510572612993419,-0.19677954989131538
1772556163738128100,4.806128173828125,0.24775486364066598,-0.12499766802191734,-0.1863441901925951
1772556163748120000,4.8161201171875,0.24833704744279383,-0.0945252998035401,-0.11895502685680985
1772556163758113000,4.826113037109375,0.2267185053527355,-0.05859130517840385,-0.03655698536168784
1772556163768105000,4.83610498046875,0.2310585803836584,0.009084346948564052,-0.01689538602568209
1772556163778098200,4.84609814453125,0.1868254709035158,0.04994527658186853,0.012466134873963891
1772556163788090000,4.856090087890625,0.10926993753612041,0.08615662684366107,0.00024232085589319467
1772556163798082000,4.86608203125,0.0116594581335783,0.09740312026217579,-0.006906783713772893
1772556163808075300,4.8760751953125,-0.06439034684598445,0.13177227672338485,-0.0013267916243523358
1772556163818067200,4.886067138671875,-0.11490765116214752,0.17098748497627675,0.010256203739531337
1772556163828060200,4.89606005859375,-0.17037176423072814,0.20806056663393974,0.029071999901160595
1772556163838052000,4.906052001953125,-0.19382102887928485,0.234355722232908,0.003033668607473373
1772556163848045000,4.916045166015625,-0.25887597711384297,0.23047157427594064,0.020498269355855882
1772556163858037200,4.926037353515625,-0.28129706775844093,0.22026816016957163,0.03337053734529763
1772556163868029200,4.936029296875,-0.2652998726814985,0.2435538317542523,0.05542158910110592
1772556163878022100,4.946022216796875,-0.2722159356802702,0.2282394313097,0.05329813067372888
1772556163888014000,4.95601416015625,-0.23364333617985247,0.21957016796804962,0.02689250043760985
1772556163898007000,4.966007080078125,-0.22375673293769358,0.18014592007435856,0.03548760256450623
1772556163907999000,4.9759990234375,-0.18963760571479796,0.12368329748772083,0.030179011294990777
1772556163917991200,4.9859912109375,-0.1811351503074169,0.09152502200901508,-0.013449812149070203
1772556163927984000,4.995984130859375,-0.2032826847076416,0.0495744705080986,-0.03624437574855983
1772556163937976000,5.00597607421875,-0.20667291166782378,0.05954992107748985,-0.04658595621660352
1772556163947969300,5.01596923828125,-0.19326222595274448,0.07002747595012188,-0.05416315000522882
1772556163957961000,5.0259609375,-0.18833996711969375,0.10329064393080771,-0.039285350879654284
1772556163967954200,5.0359541015625,-0.20151216790378093,0.1245187984637916,-0.015899908714927732
1772556163977946000,5.045946044921875,-0.22219079879522322,0.16421178029626607,0.013016206504777073
1772556163987938000,5.05593798828125,-0.22515081764459607,0.1707872862290591,0.031985512727685274
1772556163997931000,5.065930908203125,-0.22138941928446293,0.22308424050360917,0.03499762709047645
1772556164007923200,5.075923095703125,-0.19872166040241718,0.24282427537068724,0.03361508669089526
1772556164017915100,5.0859150390625,-0.15319149684906005,0.2336422402013093,0.07739314587991684
1772556164027908000,5.095908203125,-0.1418394972294569,0.2393001198325306,0.09299531375728547
1772556164037900300,5.105900390625,-0.07055705278217791,0.2666088363882154,0.12516560846734792
1772556164047893000,5.11589306640625,-0.001931260323524475,0.26305085164569314,0.15230773628447203
1772556164057885200,5.12588525390625,0.06808101805746555,0.23646759982034563,0.15026110595297068
1772556164067878000,5.1358779296875,0.13127718668282032,0.21616167469881473,0.12737491854727268
1772556164077870000,5.1458701171875,0.192660752928257,0.18739640265926719,0.08407335429619997
1772556164087862000,5.155862060546875,0.284135506054759,0.17403006754256783,0.029971944415569305
1772556164097855000,5.16585498046875,0.3372615315645933,0.1252317690387368,-0.018775683346949516
1772556164107847200,5.17584716796875,0.3934142114192247,0.11036372412219643,0.001479497968032956
1772556164117840100,5.185840087890625,0.451079633924365,0.11305924681648612,0.0017439941231161356
1772556164127832000,5.19583203125,0.49128363401889796,0.12679551122412086,-0.022564627301134167
1772556164137825000,5.205824951171875,0.5272708932012319,0.13778189240172506,-0.0054669601690024135
1772556164147817200,5.215817138671875,0.5507990683048963,0.14106551718227564,-0.007943835143931209
1772556164157809000,5.225808837890625,0.5728536637246608,0.14972849691361187,-0.03877279824763536
1772556164167802000,5.235802001953125,0.5584533824503422,0.13038652145341037,-0.028398046162351965
1772556164177794300,5.245794189453125,0.5194926604151725,0.09838584768921137,-0.01467007465902716
1772556164187787000,5.255787109375,0.5068570507258177,0.08137085387185215,-0.0013224077101796864
1772556164197779200,5.265779296875,0.48024493813216684,0.07539572498500346,-0.026587672272138298
1772556164207772000,5.27577197265625,0.4422445855617523,0.0226364138957113,-0.01709211417417973
1772556164217764000,5.28576416015625,0.37473581443428994,-0.006280395443737506,-0.005250102547928691
1772556164227756000,5.295756103515625,0.33995091677904127,-0.03908032982684671,-0.031234292501583695
1772556164237749000,5.3057490234375,0.3312438787102699,-0.04837378948144615,-0.0933613705907017
1772556164247741200,5.3157412109375,0.30127777951359747,-0.03707162035293877,-0.12389281205255538
1772556164257734100,5.325734130859375,0.2708393866300583,-0.0364656172838062,-0.10589392176438123
1772556164267726000,5.33572607421875,0.21741350139081478,-0.005965045884251594,-0.08320793310590088
1772556164277718000,5.345718017578125,0.21716157245635986,0.03582373918369412,-0.08593085526376962
1772556164287711200,5.355711181640625,0.20141396822631358,0.05500066027529538,-0.10296075438931583
1772556164297703000,5.365702880859375,0.138937346047163,0.054832902492955325,-0.13545958693400026
1772556164307696000,5.375696044921875,0.0882826790869236,0.05551920425668359,-0.1629577251145616
1772556164317688300,5.385688232421875,0.03986965357363224,0.07162804301455616,-0.16557806368079037
1772556164327681000,5.395680908203125,-0.044569794088602066,0.08006561649218201,-0.18860278277434409
1772556164337673200,5.405673095703125,-0.12026947045624256,0.07158873391747474,-0.18030118370130657
1772556164347665200,5.4156650390625,-0.20212007066905496,0.07906783762648702,-0.14910634642727671
1772556164357658000,5.425658203125,-0.3000157967537641,0.09721110482141375,-0.13385273625925181
1772556164367650000,5.435650146484375,-0.41712884900569913,0.12750723969005048,-0.17710388549733905
1772556164377643000,5.44564306640625,-0.5337345362573862,0.17107450567260385,-0.16720102524012326
1772556164387635200,5.45563525390625,-0.5942670386314391,0.2072617444064468,-0.15859651596406474
1772556164397628200,5.465628173828125,-0.6338572907418012,0.23501630503349005,-0.14304207795225082
1772556164407620000,5.4756201171875,-0.6193459503084421,0.25296923728808757,-0.12334657634664326
1772556164417612000,5.485612060546875,-0.572506457722187,0.250912816214934,-0.08107439167592674
1772556164427605200,5.495605224609375,-0.48748716434538364,0.22299020554460583,-0.042967254262790085
1772556164437597000,5.505596923828125,-0.397483068293333,0.16248400665558874,-0.028997327229753136
1772556164447590100,5.515590087890625,-0.3082534637451172,0.07278115857243538,-0.017532441820204258
1772556164457582300,5.525582275390625,-0.23033318871855735,0.019900047734379766,-0.050155010342411696
1772556164467574000,5.535573974609375,-0.16841127781271933,-0.055447454194724556,-0.09994714218918234
1772556164477567200,5.545567138671875,-0.1294821199595928,-0.12993870462067425,-0.08737889864761382
1772556164487559200,5.55555908203125,-0.10149579640328883,-0.18206373639442025,-0.05583024296723306
1772556164497552100,5.56555224609375,-0.053930327630043025,-0.19653014170750974,-0.05841258761063218
1772556164507544000,5.5755439453125,-0.011674655702710151,-0.195999980353564,-0.08333678364995867
1772556164517537000,5.585537109375,0.008835048362612724,-0.19253566524386403,-0.07335362469814717
1772556164527529200,5.595529296875,-0.00007072714865207672,-0.19887663176842033,-0.0419054702501744
1772556164537521200,5.605521240234375,-0.003218377524614334,-0.16899455759339033,-0.03594784048739821
1772556164547514000,5.61551416015625,0.034684944412112236,-0.141810417265445,-0.037053244446031745
1772556164557506000,5.625506103515625,0.10386135649085045,-0.12302066886052489,-0.029407259737513958
1772556164567499300,5.635499267578125,0.1292161624997854,-0.11253156968057156,-0.011141133347898721
1772556164577491000,5.645490966796875,0.16496376770734786,-0.10790179098807275,-0.0032332463001832363
1772556164587483100,5.655483154296875,0.20115560955107212,-0.06494045500941574,0.05589625740814954
1772556164597476000,5.66547607421875,0.19430384396016598,-0.03307853212878108,0.07783413111306726
1772556164607468000,5.675468017578125,0.17399053924977778,0.0018260463833808898,0.10387282773293555
1772556164617461200,5.685461181640625,0.12900865722894667,0.06324614524692297,0.14219006423279643
1772556164627453200,5.695453125,0.07178747135996819,0.13625124876834452,0.16900153532344847
1772556164637446100,5.705446044921875,-0.004912906482815742,0.19269640876352787,0.18862002617008983
1772556164647438000,5.71543798828125,-0.08440846800208092,0.2262210772246122,0.2110821064122021
1772556164657430300,5.72543017578125,-0.18370821566581724,0.31117804595492776,0.2042313637346029
1772556164667423000,5.735423095703125,-0.2546118899285793,0.3602821224723011,0.2123898645425215
1772556164677415200,5.745415283203125,-0.33591362408697606,0.3823628021813929,0.1959296550637111
1772556164687408000,5.755408203125,-0.368183908572793,0.4326171447124332,0.16956735251266508
1772556164697400000,5.765400146484375,-0.36275662282705307,0.4268208064585924,0.15808394506573675
1772556164707393300,5.775393310546875,-0.31685119622051716,0.40169096831195056,0.12163155258968472
1772556164717385000,5.785385009765625,-0.25635434968173504,0.3600917144667357,0.0815567683653906
1772556164727377200,5.795377197265625,-0.1738286266863346,0.3051842123676091,0.07222491292916237
1772556164737370000,5.8053701171875,-0.06513911938667297,0.24630196141861377,0.08963372836969792
1772556164747362000,5.815362060546875,0.04803951602578163,0.18110446290820836,0.09525748653560877
1772556164757355300,5.825355224609375,0.17318156095445156,0.11640548850446938,0.03793039260674268
1772556164767347200,5.83534716796875,0.22835516664385794,0.04864478844255209,0.013580343193560837
1772556164777339100,5.845339111328125,0.2703980726033449,0.018718290603905913,0.005306581975519657
1772556164787332000,5.85533203125,0.31625673745870586,-0.0021060323685407637,0.03938519452493638
1772556164797324300,5.86532421875,0.34035715949237344,0.01302570498548448,0.10128065581526606
1772556164807317000,5.87531689453125,0.3493301550209522,0.04733341358304023,0.1284651980020106
1772556164817309200,5.88530908203125,0.33797347922623155,0.07452946354448794,0.15856336261313408
1772556164827302100,5.89530224609375,0.2881868272721767,0.09019019320867955,0.1713416321761906
1772556164837294000,5.905294189453125,0.2316419332295656,0.1020890130560845,0.17521215346660465
1772556164847286300,5.915286376953125,0.17242694319486618,0.08509608494006096,0.1814066241925582
1772556164857279000,5.925279052734375,0.10771569383144378,0.08056669788211583,0.12147815212626009
1772556164867271200,5.935271240234375,0.06250818636119365,0.1238288434382528,0.07252528411522507
1772556164877264100,5.94526416015625,0.028470892202854155,0.12400449226610362,0.030167065128870307
1772556164887256000,5.955256103515625,-0.02195288861095905,0.10921754976175725,-0.013833404639177024
1772556164897248000,5.965248046875,-0.016162614771723746,0.09945808003060519,-0.06603464345429093
1772556164907241200,5.9752412109375,-0.035519641670584676,0.09604819852188229,-0.11357373567726463
1772556164917233200,5.985233154296875,-0.03476853104233742,0.06934424292631447,-0.10826572892963886
1772556164927226000,5.99522607421875,-0.02129062530994415,0.05563866591788828,-0.10111300763078034
1772556164937218300,6.00521826171875,-0.02116436858177185,0.08951324379518627,-0.11117398105915635
1772556164947211000,6.0152109375,-0.02772738035917282,0.11644209418781101,-0.07783953794054686
1772556164957203200,6.025203125,-0.06102350076138973,0.13928805918097495,-0.02392751315217465
1772556164967195100,6.035195068359375,-0.053153498038649556,0.1755650220248848,-0.011388605302944778
1772556164977188000,6.04518798828125,-0.05983458323776722,0.21558665128983556,-0.02680595466531813
1772556164987180300,6.05518017578125,-0.09955343016386031,0.21424773083627222,-0.04083321964247152
1772556164997173000,6.065173095703125,-0.14188392089307308,0.19528883640952407,-0.03234064630828798
1772556165007165200,6.075165283203125,-0.15663900695443153,0.19946349174566566,-0.03691326971976086
1772556165017158100,6.085158203125,-0.23435762192904946,0.17981858781613408,-0.04117288165930658
1772556165027150000,6.095150146484375,-0.2795908483624458,0.18738675804808735,-0.008056154678296297
1772556165037142000,6.10514208984375,-0.297781754091382,0.18956483273953198,0.059151185817178334
1772556165047135200,6.11513525390625,-0.29114918420910835,0.19803988868333397,0.08095118542136624
1772556165057127200,6.125127197265625,-0.2621241652548313,0.2111307678595185,0.10630549823995679
1772556165067120000,6.1351201171875,-0.22210662764310835,0.2225155007049441,0.09597211934467777
1772556165077112300,6.1451123046875,-0.12026596332490444,0.21486206334233282,0.0567510293402709
1772556165087104000,6.15510400390625,-0.01838496699631214,0.17142222313173114,0.04638471628976985
1772556165097097200,6.16509716796875,0.1133311956256628,0.14693192499764263,0.0563962428195402
1772556165107089200,6.175089111328125,0.2664081261843443,0.09519304299727081,0.06378478216826915
1772556165117082000,6.18508203125,0.3996498909384012,0.04266176851019263,0.07576499668881297
1772556165127074000,6.195073974609375,0.5042126736968755,-0.03347936801463365,0.06633943508714438
1772556165137067000,6.20506689453125,0.5786392613887786,-0.09585209142789244,0.0521823514515534
1772556165147059200,6.21505908203125,0.6255997500061988,-0.14931019843630491,0.043560543980821965
1772556165157051100,6.225051025390625,0.6209235748887062,-0.19992051479816436,0.02299472581408918
1772556165167044000,6.235044189453125,0.5388268909603356,-0.2061626971233636,0.023320706365443766
1772556165177036000,6.2450361328125,0.4460229350566864,-0.1896736268762499,0.0549913444576785
1772556165187029200,6.255029296875,0.3464817798525095,-0.13670973312556742,0.12028919807001948
1772556165197021000,6.26502099609375,0.24651333914697168,-0.04114201159700751,0.16941055451575665
1772556165207013000,6.27501318359375,0.1613333022505045,0.02273191015943885,0.18719773828200995
1772556165217006000,6.285006103515625,0.044995326024293895,0.05119987975284457,0.22770503217205404
1772556165226998000,6.294998046875,-0.08542144443690776,0.05057612183131277,0.23974910570904612
1772556165236991200,6.3049912109375,-0.2242868942916393,0.016611819843947887,0.19037048656661062
1772556165246983200,6.314983154296875,-0.32260522970259187,-0.011811726085841655,0.11664594619683921
1772556165256976100,6.32497607421875,-0.36454175267815586,-0.017661986484006045,0.1439316837357357
1772556165266968000,6.334968017578125,-0.4006657899826765,-0.012080460024625062,0.1382898784564808
1772556165276960300,6.344960205078125,-0.43090602994561195,-0.0034836043320596215,0.08572570634679869
1772556165286953200,6.354953125,-0.45521571081578727,-0.00032426351830363274,0.06619476591944694
1772556165296945200,6.364945068359375,-0.4871475571274757,-0.00800035110414028,0.06185447169281542
1772556165306938000,6.374938232421875,-0.49075814884006974,-0.010780191081017255,0.047214828704670066
1772556165316930000,6.384929931640625,-0.4745382509231567,0.003927840968221426,0.04980619690474122
1772556165326922200,6.394922119140625,-0.4418921188622713,0.007734612840041517,0.07093025174243375
1772556165336915000,6.4049150390625,-0.38781040006279943,0.005119023514166474,0.0437207395112142
1772556165346907100,6.4149072265625,-0.38978374596238136,-0.02246332235112786,0.03229868859639391
1772556165356900000,6.424900146484375,-0.38539515561461446,-0.05684541135914623,0.016680208905041218
1772556165366892000,6.43489208984375,-0.3709492816329002,-0.07527524041049181,0.01910454997513443
1772556165376885200,6.44488525390625,-0.363693026894331,-0.07879793464392423,0.00638593817744404
1772556165386877200,6.454877197265625,-0.3198129686355591,-0.06422872654348612,0.02636363599160686
1772556165396869000,6.464869140625,-0.2810819637030363,-0.04254983256831765,0.038297764614410694
1772556165406862000,6.474862060546875,-0.24242227044105527,0.010760682662948965,-0.0007891776163130998
1772556165416854000,6.48485400390625,-0.2504869189530611,0.022195611325651406,0.029259339166805145
1772556165426847200,6.49484716796875,-0.248137140956521,0.01872413582280278,0.03557619416341185
1772556165436839200,6.504839111328125,-0.22915303902328013,0.019810981211438775,0.03205536309350282
1772556165446831000,6.5148310546875,-0.1652764869183302,0.04592603100314736,0.004308730044588446
1772556165456824000,6.524823974609375,-0.13311550802588462,0.05565729755312204,-0.00652081660348922
1772556165466816300,6.534816162109375,-0.10253975249826908,0.05805595619268715,0.013014599069580435
1772556165476809000,6.54480908203125,-0.06989245139360427,0.0703476478151977,0.053132345652766526
1772556165486801200,6.55480126953125,0.005401566782593727,0.078183382942155,0.06197645410466939
1772556165496794000,6.564794189453125,0.03737257606089115,0.07390234462209046,0.0733011638585478
1772556165506786000,6.5747861328125,0.07965630503892898,0.08645962837822735,0.08555025844834745
1772556165516778200,6.5847783203125,0.1032663132071495,0.0958679465841502,0.11430212301705032
1772556165526771000,6.59477099609375,0.11955109305381774,0.09024331163540482,0.11583258398734032
1772556165536763100,6.60476318359375,0.12562836714088915,0.11001344937980174,0.09035206923950463
1772556165546756000,6.614756103515625,0.10291501555144786,0.127518857062608,0.0831979962337762
1772556165556748000,6.624748046875,0.07184767711460589,0.1441646522413939,0.09994732485227287
1772556165566740000,6.634739990234375,0.04525368469953537,0.13897292881719767,0.14589129337090997
1772556165576733200,6.644733154296875,0.03339607364535332,0.1477790433462709,0.14805760455932468
1772556165586726000,6.654725830078125,0.04536006768345833,0.18633746819086372,0.14582502320166676
1772556165596719000,6.664718994140625,0.05195581268668174,0.21450703935958443,0.16740816518478094
1772556165606710800,6.674710693359375,0.06322890185117722,0.2073864667646587,0.19160181845985352
1772556165616704000,6.6847041015625,0.0774421361207962,0.19337810741737485,0.18211411487478762
1772556165626696200,6.6946962890625,0.10302782827615738,0.16550854210853574,0.19076270075459031
1772556165636688000,6.70468798828125,0.13701134642064572,0.13821648442670703,0.1969429602921009
1772556165646681000,6.71468115234375,0.15754910753667353,0.13205986149311064,0.14493377345036715
1772556165656673000,6.724673095703125,0.21810791339576244,0.1690517676733434,0.1606779070816934
1772556165666666000,6.734666015625,0.19532909535467624,0.12080489250719546,0.16316731274463236
1772556165676658000,6.744657958984375,0.2067290257692337,0.10073343372866511,0.1375088841466233
1772556165686650000,6.754650146484375,0.19050854333043096,0.0953286520756781,0.09337470499631016
1772556165696643000,6.76464306640625,0.1854880848199129,0.10257153587602079,0.07127254410777241
1772556165706635000,6.774635009765625,0.15303075332939625,0.09241320302039384,0.015951931163109837
1772556165716628000,6.7846279296875,0.10076455951929092,0.09829057062119245,-0.025950506879761814
1772556165726620000,6.794619873046875,0.007377835291624069,0.07028488477729261,-0.017779986840486525
1772556165736613000,6.804613037109375,0.009423077383637428,0.10147029663585126,-0.03227696995493024
1772556165746604800,6.814604736328125,0.015368834045529365,0.12940014076456427,0.012622311816364525
1772556165756597000,6.824596923828125,0.07108604509234429,0.1268027446825057,0.059004964013211425
1772556165766590000,6.83458984375,0.12628653878867627,0.135612001016736,0.08136654302291571
1772556165776582000,6.844581787109375,0.04689560668766498,0.16361008807606994,0.03926690190751105
1772556165786575000,6.8545751953125,0.004874912559986114,0.08830576770156622,-0.016234036040119824
1772556165796567000,6.864567138671875,0.029113866281509398,0.03750402042083442,-0.0960111909797415
1772556165806559000,6.87455908203125,0.08563947110176086,0.018198431448265908,-0.114418808199279
1772556165816552000,6.884552001953125,0.1914753425359726,-0.06954692589156329,-0.016558153427951038
1772556165826544000,6.894544189453125,0.34313130038082595,-0.13957505942881107,0.0021305457552894948
1772556165836536800,6.904536865234375,0.46283612269163127,-0.13393398480191826,-0.09076919867303222
1772556165846529000,6.914529052734375,0.47266719635426996,-0.14609671628251672,-0.16273736036214975
1772556165856522000,6.92452197265625,0.3921919761478901,-0.15661021925136445,-0.17544106685165314
1772556165866514000,6.934513916015625,0.24339549938738345,-0.1570566478446126,-0.13629695107359438
1772556165876506000,6.944506103515625,0.04910802204012871,-0.09862477101162076,-0.17121895564459264
1772556165886498800,6.954498779296875,-0.12944237247109414,-0.04612053066194057,-0.17715247387941926
1772556165896491000,6.964490966796875,-0.2683890708684921,0.04514883608557284,-0.11608791045527904
