time,seconds_elapsed,z,y,x
1772556159001715200,0.069715087890625,0.17565304040908813,0.040734026581048965,0.05646004527807236
1772556159011707100,0.07970703125,0.184534952044487,0.031113356351852417,0.05636949837207794
1772556159021700000,0.0897001953125,0.18875107169151306,0.02334141731262207,0.05378524586558342
1772556159031692300,0.0996923828125,0.19412186741828918,0.015291746705770493,0.052973516285419464
1772556159041685000,0.10968505859375,0.20551186800003052,0.006127549801021814,0.05304087698459625
1772556159051677200,0.11967724609375,0.2161938101053238,-0.0045788902789354324,0.04664849117398262
1772556159061670100,0.129670166015625,0.2318388670682907,-0.015978999435901642,0.037751756608486176
1772556159071662000,0.139662109375,0.2474961280822754,-0.017814982682466507,0.023778682574629784
1772556159081654000,0.149654052734375,0.25373363494873047,-0.011694286949932575,0.007795019540935755
1772556159091647200,0.159647216796875,0.2536359131336212,0.0026308568194508553,-0.0064638108015060425
1772556159101639200,0.16963916015625,0.2453477680683136,0.02195843867957592,-0.02069937437772751
1772556159111632100,0.179632080078125,0.23776201903820038,0.039912138134241104,-0.03399307280778885
1772556159121624300,0.189624267578125,0.2343773990869522,0.05074111372232437,-0.04943787679076195
1772556159131617000,0.199616943359375,0.2318442016839981,0.05758969858288765,-0.06472282111644745
1772556159141609200,0.209609130859375,0.22822122275829315,0.06045772135257721,-0.08074586093425751
1772556159151602200,0.219602294921875,0.22781962156295776,0.056807324290275574,-0.09600071609020233
1772556159161594000,0.229593994140625,0.22478820383548737,0.04920106381177902,-0.11082731932401657
1772556159171586300,0.23958642578125,0.22402387857437134,0.038668788969516754,-0.11920642107725143
1772556159181579000,0.2495791015625,0.22074247896671295,0.03358636796474457,-0.12991489470005035
1772556159191571200,0.2595712890625,0.21405555307865143,0.028818510472774506,-0.1334047019481659
1772556159201564200,0.269564208984375,0.21335992217063904,0.024187568575143814,-0.13856729865074158
1772556159211556000,0.27955615234375,0.20882615447044373,0.02326212078332901,-0.1364370435476303
1772556159221549300,0.28954931640625,0.20269443094730377,0.015486201271414757,-0.13669425249099731
1772556159231541200,0.299541259765625,0.19543279707431793,-0.00025494489818811417,-0.13200709223747253
1772556159241534200,0.3095341796875,0.1765780746936798,-0.020283475518226624,-0.1250845491886139
1772556159251526100,0.319526123046875,0.16178500652313232,-0.03678867965936661,-0.12259688973426819
1772556159261518300,0.329518310546875,0.14240126311779022,-0.05614457651972771,-0.11069274693727493
1772556159271511000,0.339510986328125,0.1247306615114212,-0.0615750290453434,-0.09191639721393585
1772556159281503200,0.349503173828125,0.09829773008823395,-0.046091172844171524,-0.0742901936173439
1772556159291496200,0.35949609375,0.07018007338047028,-0.03425794839859009,-0.062348850071430206
1772556159301488000,0.369488037109375,0.04271400347352028,-0.01945573277771473,-0.0516362302005291
1772556159311481300,0.3794814453125,0.015896504744887352,-0.02313781902194023,-0.04392131790518761
1772556159321473000,0.38947314453125,-0.004820294678211212,-0.030521424487233162,-0.042799610644578934
1772556159331465200,0.39946533203125,-0.013258254155516624,-0.04596216231584549,-0.03995801508426666
1772556159341458200,0.409458251953125,-0.02162921242415905,-0.05888416990637779,-0.040247876197099686
1772556159351450000,0.4194501953125,-0.031890638172626495,-0.07192540168762207,-0.04429907351732254
1772556159361443300,0.429443359375,-0.04422306641936302,-0.08207498490810394,-0.051645372062921524
1772556159371435300,0.439435302734375,-0.05786697193980217,-0.09339742362499237,-0.06476942449808121
1772556159381428200,0.44942822265625,-0.0670277327299118,-0.09506822377443314,-0.0766989216208458
1772556159391420200,0.459420166015625,-0.06761123239994049,-0.09669701009988785,-0.09425528347492218
1772556159401413000,0.4694130859375,-0.06864993274211884,-0.09091448783874512,-0.10750185698270798
1772556159411405000,0.479405029296875,-0.060287073254585266,-0.0817665234208107,-0.12283900380134583
1772556159421397200,0.489397216796875,-0.0457935594022274,-0.07941839843988419,-0.1245884820818901
1772556159431390000,0.499389892578125,-0.03851674124598503,-0.0748678520321846,-0.1161678284406662
1772556159441382100,0.509382080078125,-0.027663085609674454,-0.06735190004110336,-0.09766706824302673
1772556159451375400,0.519375244140625,-0.018220050260424614,-0.04614275321364403,-0.07040402293205261
1772556159461367000,0.529366943359375,-0.00845774170011282,-0.0170025285333395,-0.04060307517647743
1772556159471360300,0.5393603515625,0.006450367160141468,0.015837708488106728,-0.010274462401866913
1772556159481352200,0.549352294921875,0.016436731442809105,0.047621823847293854,0.01108470931649208
1772556159491345200,0.55934521484375,0.035212017595767975,0.06899342685937881,0.0327436663210392
1772556159501337000,0.569337158203125,0.051738012582063675,0.07655540108680725,0.04509420692920685
1772556159511329300,0.579329345703125,0.06895987689495087,0.07103653252124786,0.05420221760869026
1772556159521322200,0.589322265625,0.08748134970664978,0.052383020520210266,0.06396923214197159
1772556159531314200,0.599314208984375,0.10524356365203857,0.025724779814481735,0.06492210924625397
1772556159541307100,0.60930712890625,0.11815744638442993,0.01074074488133192,0.07915887981653214
1772556159551299000,0.619299072265625,0.12605690956115723,0.026132751256227493,0.08705461770296097
1772556159561292300,0.629292236328125,0.13075590133666992,0.05832193046808243,0.09523782134056091
1772556159571284000,0.639283935546875,0.13271279633045197,0.11590959131717682,0.09658032655715942
1772556159581277400,0.64927734375,0.13720783591270447,0.1707621067762375,0.09482172876596451
1772556159591269400,0.659269287109375,0.15320810675621033,0.19792021811008453,0.09755785763263702
1772556159601261300,0.66926123046875,0.17282624542713165,0.19674800336360931,0.104756198823452
1772556159611254500,0.679254638671875,0.1959427446126938,0.17810827493667603,0.11069824546575546
1772556159621246500,0.68924658203125,0.23087014257907867,0.15532588958740234,0.12842656672000885
1772556159631239400,0.699239501953125,0.2680896818637848,0.12573391199111938,0.1537282019853592
1772556159641231400,0.7092314453125,0.3022589683532715,0.11472707986831665,0.17228932678699493
1772556159651224300,0.719224365234375,0.33202165365219116,0.10793202370405197,0.1873609572649002
1772556159661216300,0.72921630859375,0.3526574373245239,0.10094785690307617,0.20369844138622284
1772556159671209200,0.739209228515625,0.3598290681838989,0.0911753848195076,0.20564629137516022
1772556159681201400,0.749201416015625,0.3641507625579834,0.07051509618759155,0.20140871405601501
1772556159691193300,0.759193359375,0.36926138401031494,0.04634876921772957,0.18549978733062744
1772556159701186300,0.769186279296875,0.38302746415138245,0.02545977011322975,0.162785604596138
1772556159711178200,0.77917822265625,0.4003017842769623,0.019456472247838974,0.13391321897506714
1772556159721171500,0.78917138671875,0.4055143892765045,0.043085869401693344,0.10364378243684769
1772556159731163100,0.7991630859375,0.40319424867630005,0.07833413779735565,0.08053846657276154
1772556159741156400,0.80915625,0.39480018615722656,0.09673428535461426,0.05956854298710823
1772556159751148500,0.8191484375,0.3786696791648865,0.0938548743724823,0.04312112554907799
1772556159761140200,0.82914013671875,0.3676980435848236,0.07041606307029724,0.032893914729356766
1772556159771133400,0.839133544921875,0.3619077801704407,0.04747612029314041,0.031203342601656914
1772556159781125400,0.84912548828125,0.35216933488845825,0.04160971939563751,0.038633812218904495
1772556159791118300,0.859118408203125,0.33890974521636963,0.05176834762096405,0.043874114751815796
1772556159801110300,0.8691103515625,0.3207007646560669,0.043300312012434006,0.041374173015356064
1772556159811103200,0.879103271484375,0.3003707230091095,0.03218561038374901,0.041977912187576294
1772556159821095400,0.889095458984375,0.28438812494277954,0.02617277204990387,0.03490206226706505
1772556159831088400,0.89908837890625,0.2710624635219574,0.037451524287462234,0.023854738101363182
1772556159841080300,0.909080322265625,0.24896323680877686,0.05519191920757294,0.01263802032917738
1772556159851072300,0.919072265625,0.21292614936828613,0.09549087285995483,-0.01308358833193779
1772556159861065500,0.9290654296875,0.177736297249794,0.13650953769683838,-0.04049070551991463
1772556159871057200,0.93905712890625,0.14667931199073792,0.15977251529693604,-0.0642373114824295
1772556159881050400,0.94905029296875,0.11495175957679749,0.16381534934043884,-0.077320396900177
1772556159891042600,0.95904248046875,0.08962909877300262,0.1613846868276596,-0.07384070754051208
1772556159901035300,0.96903515625,0.06624041497707367,0.17454814910888672,-0.05722018703818321
1772556159911027500,0.97902734375,0.055572062730789185,0.15385060012340546,-0.03019815869629383
1772556159921020200,0.989020263671875,0.05523514002561569,0.09107896685600281,-0.017092503607273102
1772556159931012400,0.999012451171875,0.06100967153906822,0.018367215991020203,-0.018189460039138794
1772556159941004300,1.00900439453125,0.06899485737085342,-0.0498359389603138,-0.027422893792390823
1772556159950997200,1.018997314453125,0.07066652178764343,-0.11055201292037964,-0.04895614832639694
1772556159960989400,1.028989501953125,0.0561562217772007,-0.14596007764339447,-0.07150301337242126
1772556159970982400,1.038982421875,0.03691861033439636,-0.14573556184768677,-0.08983249217271805
1772556159980974300,1.048974365234375,0.009098390117287636,-0.13931423425674438,-0.10076352953910828
1772556159990967300,1.05896728515625,-0.027488116174936295,-0.1416780650615692,-0.11609028279781342
1772556160000959500,1.06895947265625,-0.05839454382658005,-0.15710210800170898,-0.12877477705478668
1772556160010952400,1.078952392578125,-0.08349058032035828,-0.18098533153533936,-0.13387180864810944
1772556160020944400,1.0889443359375,-0.1044941172003746,-0.20406542718410492,-0.13178078830242157
1772556160030936600,1.0989365234375,-0.11583518981933594,-0.2211245596408844,-0.12459052354097366
1772556160040929300,1.10892919921875,-0.11376143246889114,-0.236545130610466,-0.11693648248910904
1772556160050921500,1.11892138671875,-0.10860342532396317,-0.26037031412124634,-0.10792088508605957
1772556160060914200,1.1289140625,-0.09417495876550674,-0.2829269468784332,-0.09110920876264572
1772556160070906400,1.13890625,-0.07688704878091812,-0.2896064221858978,-0.07229024916887283
1772556160080899600,1.148899658203125,-0.05468776822090149,-0.2781693637371063,-0.05585644394159317
1772556160090891300,1.158891357421875,-0.03777137026190758,-0.245299831032753,-0.042161937803030014
1772556160100884500,1.168884521484375,-0.02700464241206646,-0.19969654083251953,-0.028459662571549416
1772556160110876400,1.17887646484375,-0.02718733623623848,-0.1641758233308792,-0.017702888697385788
1772556160120868400,1.188868408203125,-0.03087765909731388,-0.1402878761291504,-0.0065126921981573105
1772556160130861300,1.198861328125,-0.04613517224788666,-0.11604326218366623,0.0002591940574347973
1772556160140853500,1.208853515625,-0.06123509258031845,-0.11301899701356888,0.009437027387320995
1772556160150846500,1.218846435546875,-0.08593537658452988,-0.11319183558225632,0.021026305854320526
1772556160160838400,1.22883837890625,-0.11940605193376541,-0.10935341566801071,0.026528114452958107
1772556160170831400,1.238831298828125,-0.15619762241840363,-0.10650249570608139,0.02799338474869728
1772556160180823300,1.2488232421875,-0.19651968777179718,-0.10850327461957932,0.02945002354681492
1772556160190815500,1.2588154296875,-0.23519012331962585,-0.10442144423723221,0.024087747558951378
1772556160200808200,1.26880810546875,-0.26524388790130615,-0.09325245022773743,0.018588915467262268
1772556160210800400,1.27880029296875,-0.27865129709243774,-0.07823222130537033,0.007092316634953022
1772556160220793600,1.288793701171875,-0.2846117913722992,-0.07094424217939377,-0.016704045236110687
1772556160230785300,1.298785400390625,-0.28596359491348267,-0.07673128694295883,-0.03880774974822998
1772556160240778500,1.308778564453125,-0.28698140382766724,-0.07523003965616226,-0.05342668667435646
1772556160250770400,1.3187705078125,-0.28590574860572815,-0.05968117713928223,-0.061749331653118134
1772556160260763400,1.328763427734375,-0.29104161262512207,-0.050820205360651016,-0.07358699291944504
1772556160270755300,1.33875537109375,-0.29719698429107666,-0.06195914372801781,-0.08145104348659515
1772556160280747500,1.34874755859375,-0.3040897846221924,-0.08324142545461655,-0.08881064504384995
1772556160290740500,1.358740478515625,-0.3079330027103424,-0.09915247559547424,-0.09234412759542465
1772556160300732400,1.368732421875,-0.30440542101860046,-0.0973835438489914,-0.09586628526449203
1772556160310725400,1.378725341796875,-0.2935759425163269,-0.08486881852149963,-0.09888497740030289
1772556160320717300,1.38871728515625,-0.2829095125198364,-0.07465452700853348,-0.0983278676867485
1772556160330710500,1.39871044921875,-0.2743189334869385,-0.06346631795167923,-0.09429264813661575
1772556160340702200,1.4087021484375,-0.2623263895511627,-0.05266484618186951,-0.09282676130533218
1772556160350694400,1.4186943359375,-0.2453593760728836,-0.0329369455575943,-0.08660082519054413
1772556160360687400,1.428687255859375,-0.22540554404258728,-0.02020109072327614,-0.07719602435827255
1772556160370679300,1.43867919921875,-0.2065061628818512,-0.008893575519323349,-0.06940069049596786
1772556160380672500,1.448672607421875,-0.18797838687896729,0.008743390440940857,-0.06058892980217934
1772556160390664400,1.45866455078125,-0.16959591209888458,0.041482165455818176,-0.05159729719161987
1772556160400657400,1.468657470703125,-0.15048907697200775,0.06117493659257889,-0.044788457453250885
1772556160410649300,1.4786494140625,-0.137708842754364,0.07273145765066147,-0.030477428808808327
1772556160420642300,1.488642333984375,-0.12291929870843887,0.07939013838768005,-0.022941168397665024
1772556160430634200,1.49863427734375,-0.11231698840856552,0.0727735161781311,-0.021674035117030144
1772556160440626400,1.50862646484375,-0.10220164805650711,0.054363131523132324,-0.020647749304771423
1772556160450619400,1.518619384765625,-0.09490618854761124,0.027590107172727585,-0.02484089508652687
1772556160460611300,1.528611328125,-0.09299181401729584,0.0068970052525401115,-0.028675172477960587
1772556160470604500,1.5386044921875,-0.08417248725891113,-0.01804216578602791,-0.03308217227458954
1772556160480596200,1.54859619140625,-0.07683051377534866,-0.030031375586986542,-0.03367193788290024
1772556160490589400,1.55858935546875,-0.07089193165302277,-0.04586254060268402,-0.037206221371889114
1772556160500581400,1.568581298828125,-0.0648629367351532,-0.06085718423128128,-0.04151071608066559
1772556160510573300,1.5785732421875,-0.062424544245004654,-0.07118598371744156,-0.05164484307169914
1772556160520566500,1.58856640625,-0.05753243714570999,-0.07736563682556152,-0.05805737525224686
1772556160530558500,1.598558349609375,-0.04789924994111061,-0.07418262958526611,-0.06489051133394241
1772556160540551400,1.608551513671875,-0.03604387491941452,-0.07095295190811157,-0.07410462945699692
1772556160550543400,1.61854345703125,-0.015011826530098915,-0.07200676202774048,-0.0789683610200882
1772556160560536300,1.628536376953125,0.008592449128627777,-0.07587426155805588,-0.0821978747844696
1772556160570528300,1.6385283203125,0.037098128348588943,-0.07923463732004166,-0.0774446651339531
1772556160580521500,1.648521484375,0.06962035596370697,-0.08475126326084137,-0.06628967821598053
1772556160590513200,1.65851318359375,0.09465886652469635,-0.08462982624769211,-0.05448894202709198
1772556160600505300,1.66850537109375,0.11244821548461914,-0.08365151286125183,-0.03379195183515549
1772556160610498300,1.678498291015625,0.12116473913192749,-0.08156225830316544,-0.021939553320407867
1772556160620490200,1.688490234375,0.11961875110864639,-0.0673171803355217,-0.011822925880551338
1772556160630483500,1.6984833984375,0.11495182663202286,-0.058023542165756226,-0.006468641106039286
1772556160640475400,1.708475341796875,0.11259222030639648,-0.05467015132308006,-0.011601774021983147
1772556160650468400,1.71846826171875,0.11086995154619217,-0.07326062023639679,-0.02136092819273472
1772556160660460300,1.728460205078125,0.10940578579902649,-0.10132171213626862,-0.03617813065648079
1772556160670452500,1.738452392578125,0.10791654139757156,-0.13380083441734314,-0.05256509408354759
1772556160680445200,1.748445068359375,0.10939313471317291,-0.15423208475112915,-0.06180143356323242
1772556160690437400,1.758437255859375,0.1078367829322815,-0.1555338352918625,-0.07013607025146484
1772556160700430300,1.768430419921875,0.11000077426433563,-0.14383602142333984,-0.07046075165271759
1772556160710422300,1.77842236328125,0.11380483210086823,-0.11148980259895325,-0.0639067068696022
1772556160720415200,1.788415283203125,0.11660227924585342,-0.08717275410890579,-0.0558684766292572
1772556160730407200,1.7984072265625,0.12634147703647614,-0.06212678551673889,-0.03769133612513542
1772556160740400400,1.808400390625,0.13473978638648987,-0.04447956010699272,-0.024872321635484695
1772556160750392300,1.818392333984375,0.1443103849887848,-0.034269798547029495,-0.008779903873801231
1772556160760384300,1.82838427734375,0.1508053094148636,-0.01939627341926098,0.01017161924391985
1772556160770377500,1.83837744140625,0.1546727418899536,-0.0016473704017698765,0.02903452329337597
1772556160780369400,1.848369384765625,0.15546171367168427,0.02673787996172905,0.0373532697558403
1772556160790362400,1.8583623046875,0.14891433715820312,0.040728263556957245,0.045723315328359604
1772556160800354300,1.868354248046875,0.14131216704845428,0.05212841182947159,0.04715164750814438
1772556160810347300,1.87834716796875,0.13079561293125153,0.05250179022550583,0.045938313007354736
1772556160820339200,1.888339111328125,0.11720925569534302,0.0506451278924942,0.04331093281507492
1772556160830331400,1.898331298828125,0.10370436310768127,0.02655657008290291,0.03824107348918915
1772556160840324400,1.908324462890625,0.0919356718659401,-0.006500227376818657,0.032757434993982315
1772556160850316300,1.91831640625,0.07654979079961777,-0.028808195143938065,0.02339296042919159
1772556160860309200,1.928309326171875,0.06729044020175934,-0.0411122590303421,0.017248233780264854
1772556160870301200,1.93830126953125,0.06274602562189102,-0.05064450949430466,0.0047353715635836124
1772556160880294400,1.94829443359375,0.062044914811849594,-0.05818615481257439,-0.004228886216878891
1772556160890286000,1.9582861328125,0.06036924943327904,-0.06556923687458038,-0.011282801628112793
1772556160900279300,1.968279296875,0.0646897479891777,-0.07336744666099548,-0.015901634469628334
1772556160910271500,1.978271484375,0.07096415758132935,-0.07666204869747162,-0.013837152160704136
1772556160920263200,1.98826318359375,0.0721498429775238,-0.062846839427948,-0.007830236107110977
1772556160930256400,1.99825634765625,0.07959338277578354,-0.049637291580438614,0.00025405475753359497
1772556160940248300,2.008248291015625,0.07547058910131454,-0.03477466106414795,0.012019524350762367
1772556160950241300,2.0182412109375,0.06902653723955154,-0.018627382814884186,0.016275789588689804
1772556160960233200,2.028233154296875,0.060560308396816254,0.004177967086434364,0.021708542481064796
1772556160970226200,2.03822607421875,0.05320039764046669,0.03231825679540634,0.014501763507723808
1772556160980218000,2.048218017578125,0.04609425738453865,0.053488630801439285,0.006487591192126274
1772556160990210300,2.058210205078125,0.030843663960695267,0.05858485773205757,-0.019578896462917328
1772556161000203300,2.068203369140625,0.024603810161352158,0.0569254532456398,-0.05026758462190628
1772556161010195200,2.0781953125,0.01782260090112686,0.05574993044137955,-0.08307346701622009
1772556161020188400,2.0881884765625,0.018977979198098183,0.058582887053489685,-0.10903055965900421
1772556161030180000,2.09818017578125,0.022298941388726234,0.06475422531366348,-0.13391408324241638
1772556161040173300,2.10817333984375,0.023046420887112617,0.0725003033876419,-0.1434846967458725
1772556161050165200,2.118165283203125,0.024591853842139244,0.07459541410207748,-0.14829222857952118
1772556161060157200,2.1281572265625,0.02747729979455471,0.08221080154180527,-0.1431921422481537
1772556161070150400,2.138150390625,0.03230214864015579,0.09806167334318161,-0.13871803879737854
1772556161080142300,2.148142333984375,0.03678823634982109,0.11729292571544647,-0.1321432888507843
1772556161090135300,2.15813525390625,0.040551282465457916,0.13417470455169678,-0.12493465095758438
1772556161100127200,2.168127197265625,0.04846988618373871,0.14868563413619995,-0.11450766772031784
1772556161110120200,2.1781201171875,0.056141920387744904,0.15362846851348877,-0.10568834096193314
1772556161120112000,2.188112060546875,0.06456905603408813,0.1555418074131012,-0.0962684229016304
1772556161130105300,2.198105224609375,0.07071083784103394,0.15920685231685638,-0.08010436594486237
1772556161140097300,2.20809716796875,0.07616829127073288,0.16038252413272858,-0.06590285897254944
1772556161150089200,2.218089111328125,0.07961921393871307,0.16014815866947174,-0.0520927719771862
1772556161160082400,2.22808251953125,0.0806044340133667,0.1508343517780304,-0.043724946677684784
1772556161170074000,2.23807421875,0.07483069598674774,0.13486576080322266,-0.041393883526325226
1772556161180067300,2.2480673828125,0.07604876160621643,0.11066082864999771,-0.03881436213850975
1772556161190059300,2.258059326171875,0.07576966285705566,0.09131855517625809,-0.03983275219798088
1772556161200052200,2.26805224609375,0.07028242945671082,0.06384802609682083,-0.04003004729747772
1772556161210044400,2.27804443359375,0.06681445986032486,0.030307641252875328,-0.038975704461336136
1772556161220036400,2.288036376953125,0.06666108220815659,0.0003653853200376034,-0.03391290828585625
1772556161230029300,2.298029296875,0.06520219892263412,-0.02227414771914482,-0.028470205143094063
1772556161240021200,2.308021240234375,0.07083176076412201,-0.028183583170175552,-0.021590398624539375
1772556161250014200,2.31801416015625,0.0695212185382843,-0.020986923947930336,-0.015498150140047073
1772556161260006100,2.328006103515625,0.0673319473862648,-0.0109645901247859,-0.0103825768455863
1772556161269999400,2.337999267578125,0.062483131885528564,-0.004469140432775021,-0.005734561011195183
1772556161279991300,2.3479912109375,0.054479438811540604,-0.010820114053785801,-0.008453432470560074
1772556161289983200,2.357983154296875,0.043583910912275314,-0.029211372137069702,-0.00911682564765215
1772556161299976400,2.3679765625,0.028241833671927452,-0.040625397115945816,-0.014019204303622246
1772556161309968100,2.377968017578125,0.011123834177851677,-0.042897604405879974,-0.013256474398076534
1772556161319961300,2.38796142578125,-0.0071236323565244675,-0.04329913482069969,-0.013430503197014332
1772556161329953300,2.397953369140625,-0.021318813785910606,-0.04177181050181389,-0.02151692658662796
1772556161339946200,2.4079462890625,-0.03915025293827057,-0.042111173272132874,-0.023443331941962242
1772556161349938400,2.4179384765625,-0.05228150635957718,-0.044769540429115295,-0.03329143673181534
1772556161359930400,2.427930419921875,-0.0659455955028534,-0.03780588135123253,-0.036393530666828156
1772556161369923300,2.43792333984375,-0.08115357905626297,-0.017371978610754013,-0.044689010828733444
1772556161379915300,2.447915283203125,-0.09612926095724106,0.005965331569314003,-0.051728859543800354
1772556161389908200,2.457908203125,-0.11177933216094971,0.03379190340638161,-0.05995882675051689
1772556161399900200,2.467900146484375,-0.1283043622970581,0.06250497698783875,-0.07286521047353745
1772556161409893400,2.477893310546875,-0.13540887832641602,0.07927943766117096,-0.08086108416318893
1772556161419885300,2.48788525390625,-0.14169496297836304,0.09911631792783737,-0.08557392656803131
1772556161429877200,2.497877197265625,-0.1485331654548645,0.11737548559904099,-0.08976733684539795
1772556161439870500,2.507870361328125,-0.15238988399505615,0.14682342112064362,-0.09321936964988708
1772556161449862100,2.517862060546875,-0.16300632059574127,0.17694537341594696,-0.10049858689308167
1772556161459855400,2.52785546875,-0.169886976480484,0.19502341747283936,-0.11088541895151138
1772556161469847300,2.537847412109375,-0.16964834928512573,0.20022697746753693,-0.12368590384721756
1772556161479840300,2.54784033203125,-0.16899557411670685,0.18750886619091034,-0.1359766125679016
1772556161489832400,2.55783251953125,-0.16407085955142975,0.1809670776128769,-0.15314148366451263
1772556161499825200,2.5678251953125,-0.16388055682182312,0.16875188052654266,-0.1652807593345642
1772556161509817300,2.5778173828125,-0.16048875451087952,0.14939282834529877,-0.17478637397289276
1772556161519809300,2.587809326171875,-0.1480599194765091,0.13765949010849,-0.1734820157289505
1772556161529802200,2.59780224609375,-0.13337284326553345,0.12012790143489838,-0.1596578061580658
1772556161539794200,2.607794189453125,-0.12426740676164627,0.09338538348674774,-0.14158564805984497
1772556161549787400,2.617787353515625,-0.1302797645330429,0.06032437086105347,-0.12088170647621155
1772556161559779300,2.627779296875,-0.1409861445426941,0.032750293612480164,-0.1049584448337555
1772556161569772300,2.637772216796875,-0.1438937783241272,0.006218284834176302,-0.08432560414075851
1772556161579763700,2.647763671875,-0.14223110675811768,-0.011391839943826199,-0.07405117899179459
1772556161589755600,2.657755615234375,-0.13758894801139832,-0.025844814255833626,-0.06598419696092606
1772556161599748600,2.66774853515625,-0.1319100260734558,-0.041541751474142075,-0.06471866369247437
1772556161609740800,2.67774072265625,-0.13036006689071655,-0.04464193806052208,-0.06852778792381287
1772556161619733500,2.6877333984375,-0.1307869553565979,-0.05130467191338539,-0.0769297257065773
1772556161629725700,2.6977255859375,-0.1337670385837555,-0.06036900728940964,-0.0920085459947586
1772556161639718700,2.70771875,-0.13224829733371735,-0.07662363350391388,-0.10308139026165009
1772556161649710600,2.717710693359375,-0.1252567023038864,-0.11003033071756363,-0.1121867373585701
1772556161659702500,2.72770263671875,-0.12005438655614853,-0.1448904424905777,-0.12146274000406265
1772556161669695500,2.737695556640625,-0.11023557931184769,-0.16553127765655518,-0.13300275802612305
1772556161679687700,2.747687744140625,-0.10591217875480652,-0.17182549834251404,-0.1382995992898941
1772556161689680600,2.7576806640625,-0.0939180999994278,-0.17713531851768494,-0.14072546362876892
1772556161699672600,2.767672607421875,-0.08466000109910965,-0.18139375746250153,-0.14226815104484558
1772556161709665500,2.77766552734375,-0.07980665564537048,-0.18944315612316132,-0.13665473461151123
1772556161719657700,2.78765771484375,-0.0716572031378746,-0.2117995172739029,-0.12940335273742676
1772556161729649700,2.797649658203125,-0.05796749144792557,-0.21743237972259521,-0.11724787950515747
1772556161739642600,2.807642578125,-0.0430847592651844,-0.21503548324108124,-0.11005343496799469
1772556161749634600,2.817634521484375,-0.03471257910132408,-0.2100156992673874,-0.10107432305812836
1772556161759627500,2.82762744140625,-0.028017167001962662,-0.19885262846946716,-0.09584955871105194
1772556161769619700,2.83761962890625,-0.011808103881776333,-0.18176764249801636,-0.09180661290884018
1772556161779612400,2.8476123046875,0.004568265751004219,-0.16914263367652893,-0.08887531608343124
1772556161789604600,2.8576044921875,0.02249853126704693,-0.1521061211824417,-0.07704395800828934
1772556161799596500,2.867596435546875,0.04001240432262421,-0.13867606222629547,-0.06893493235111237
1772556161809589500,2.877589599609375,0.05533090606331825,-0.12075217813253403,-0.05234503746032715
1772556161819581400,2.88758154296875,0.0681074932217598,-0.10073266923427582,-0.03648775815963745
1772556161829574700,2.89757470703125,0.07834681123495102,-0.07776530086994171,-0.024952545762062073
1772556161839566600,2.907566650390625,0.09215157479047775,-0.06365534663200378,-0.010431925766170025
1772556161849559600,2.9175595703125,0.10449718683958054,-0.048073459416627884,0.005721743684262037
1772556161859551700,2.9275517578125,0.11271358281373978,-0.026341833174228668,0.017139045521616936
1772556161869543700,2.937543701171875,0.12011770159006119,-0.003656229004263878,0.020261067897081375
1772556161879536600,2.94753662109375,0.12344098091125488,0.018301047384738922,0.022968892008066177
1772556161889528600,2.957528564453125,0.12284070253372192,0.04817265644669533,0.020774981006979942
1772556161899521500,2.967521484375,0.12761802971363068,0.0685439184308052,0.019678236916661263
1772556161909513700,2.977513671875,0.1255578100681305,0.08241020143032074,0.017159152776002884
1772556161919506400,2.98750634765625,0.11115262657403946,0.09144636243581772,0.01308323722332716
1772556161929498600,2.99749853515625,0.102342888712883,0.09262002259492874,0.008553200401365757
1772556161939490600,3.007490478515625,0.08813498169183731,0.0903150737285614,-0.00425744941458106
1772556161949483500,3.0174833984375,0.08819756656885147,0.08172371983528137,-0.017917068675160408
1772556161959475500,3.027475341796875,0.08812527358531952,0.08189068734645844,-0.034139152616262436
1772556161969468700,3.03746875,0.08883074671030045,0.09797857701778412,-0.05769960582256317
1772556161979460600,3.047460693359375,0.08564919233322144,0.12459369003772736,-0.07780198007822037
1772556161989453600,3.05745361328125,0.08188054710626602,0.15187883377075195,-0.09839539974927902
1772556161999445800,3.06744580078125,0.07528962194919586,0.1593458354473114,-0.11298369616270065
1772556162009437400,3.0774375,0.07088049501180649,0.14630165696144104,-0.11946769058704376
1772556162019430700,3.0874306640625,0.06992955505847931,0.12612789869308472,-0.11679859459400177
1772556162029422600,3.097422607421875,0.06568660587072372,0.10421089828014374,-0.11323608458042145
1772556162039415600,3.10741552734375,0.0621817521750927,0.08769798278808594,-0.11141105741262436
1772556162049407700,3.11740771484375,0.06700500100851059,0.06512955576181412,-0.10512892156839371
1772556162059400400,3.127400390625,0.07535521686077118,0.030774759128689766,-0.09838815778493881
1772556162069392600,3.137392578125,0.08911177515983582,-0.007576889358460903,-0.08388138562440872
1772556162079384600,3.147384521484375,0.10375232994556427,-0.03665633872151375,-0.0664014145731926
1772556162089377500,3.15737744140625,0.11220387369394302,-0.051869116723537445,-0.03990083187818527
1772556162099369500,3.167369384765625,0.11538154631853104,-0.06407993286848068,-0.013957709074020386
1772556162109362700,3.17736279296875,0.11638582497835159,-0.0740918219089508,0.016689416021108627
1772556162119354600,3.187354736328125,0.11612845957279205,-0.06977227330207825,0.050019025802612305
1772556162129347600,3.19734765625,0.11753780394792557,-0.045158278197050095,0.07817503064870834
1772556162139339800,3.20733984375,0.12549182772636414,-0.004579300060868263,0.09881088882684708
1772556162149331500,3.21733154296875,0.13635672628879547,0.04208620637655258,0.10275529325008392
1772556162159324700,3.22732470703125,0.14849330484867096,0.07937543094158173,0.0947563424706459
1772556162169316600,3.237316650390625,0.1581435352563858,0.09486038237810135,0.07596481591463089
1772556162179309600,3.2473095703125,0.16941897571086884,0.09405045956373215,0.0423041470348835
1772556162189301800,3.2573017578125,0.17631150782108307,0.08423164486885071,0.007378654088824987
1772556162199294500,3.26729443359375,0.18322651088237762,0.07546356320381165,-0.0312394630163908
1772556162209286700,3.27728662109375,0.18537116050720215,0.07078119367361069,-0.06534416973590851
1772556162219278600,3.287278564453125,0.18346907198429108,0.07480546087026596,-0.0999593585729599
1772556162229271600,3.297271484375,0.17265397310256958,0.08291053026914597,-0.12480638176202774
1772556162239263500,3.307263427734375,0.15124396979808807,0.09666647762060165,-0.14904344081878662
1772556162249256700,3.317256591796875,0.12866303324699402,0.10242609679698944,-0.1640000194311142
1772556162259248600,3.32724853515625,0.106950543820858,0.10349243134260178,-0.18182241916656494
1772556162269241600,3.33724169921875,0.09156598895788193,0.09614583104848862,-0.19414938986301422
1772556162279233800,3.34723388671875,0.08058988302946091,0.08551140129566193,-0.20250016450881958
1772556162289225500,3.3572255859375,0.06604182720184326,0.08042556047439575,-0.20720863342285156
1772556162299218700,3.36721875,0.05122822895646095,0.07334011048078537,-0.20591816306114197
1772556162309210600,3.377210693359375,0.037031449377536774,0.0645117312669754,-0.206497922539711
1772556162319203600,3.38720361328125,0.031778547912836075,0.04952457547187805,-0.2014382779598236
1772556162329195800,3.39719580078125,0.027927087619900703,0.027784127742052078,-0.19211241602897644
1772556162339187700,3.407187744140625,0.029760219156742096,0.002564474940299988,-0.1750427931547165
1772556162349180700,3.4171806640625,0.02991308644413948,-0.021517425775527954,-0.1554398089647293
1772556162359172600,3.427172607421875,0.03254640847444534,-0.03861994296312332,-0.13144078850746155
1772556162369165600,3.43716552734375,0.02983131632208824,-0.04066737741231918,-0.11082739382982254
1772556162379157500,3.447157470703125,0.019977828487753868,-0.025643983855843544,-0.09801381826400757
1772556162389150700,3.457150634765625,0.01660999469459057,0.000182286836206913,-0.08966187387704849
1772556162399142400,3.467142333984375,0.010304269380867481,0.026278704404830933,-0.08492372930049896
1772556162409134600,3.477134521484375,0.00422160979360342,0.04805244132876396,-0.08295245468616486
1772556162419127800,3.4871279296875,0.0028328022453933954,0.06786438077688217,-0.0872492864727974
1772556162429119500,3.497119384765625,-0.0031747566536068916,0.07603468745946884,-0.0898464024066925
1772556162439112700,3.50711279296875,-0.013904810883104801,0.08146399259567261,-0.09942006319761276
1772556162449104600,3.517104736328125,-0.02902224473655224,0.070684053003788,-0.10986417531967163
1772556162459097600,3.52709765625,-0.039525121450424194,0.06090158969163895,-0.11712656915187836
1772556162469089500,3.537089599609375,-0.04778464883565903,0.052762970328330994,-0.12297407537698746
1772556162479081700,3.547081787109375,-0.058748938143253326,0.03487075865268707,-0.1277727633714676
1772556162489074700,3.55707470703125,-0.0701504722237587,0.007867371663451195,-0.12378788739442825
1772556162499066600,3.567066650390625,-0.0827576294541359,-0.021316267549991608,-0.11747098714113235
1772556162509059600,3.5770595703125,-0.09796800464391708,-0.05579275265336037,-0.10612911731004715
1772556162519051500,3.587051513671875,-0.11103187501430511,-0.07160287350416183,-0.0960645005106926
1772556162529044700,3.597044677734375,-0.11988022923469543,-0.07347241044044495,-0.08490639179944992
1772556162539036400,3.607036376953125,-0.12704011797904968,-0.06374157220125198,-0.07376200705766678
1772556162549028600,3.617028564453125,-0.1337805837392807,-0.04161842167377472,-0.06609316915273666
1772556162559021800,3.627021728515625,-0.14117473363876343,-0.017511162906885147,-0.05851070582866669
1772556162569013500,3.637013427734375,-0.1511184424161911,0.004258314613252878,-0.056033965200185776
1772556162579007500,3.647007568359375,-0.15438924729824066,0.03442757949233055,-0.04717348888516426
1772556162588999200,3.656999267578125,-0.15797971189022064,0.06468214839696884,-0.04056379199028015
1772556162598992400,3.666992431640625,-0.1614122986793518,0.0925656110048294,-0.03995417058467865
1772556162608984600,3.676984619140625,-0.17334459722042084,0.1138480007648468,-0.0353064239025116
1772556162618976300,3.686976318359375,-0.1830824464559555,0.12371154129505157,-0.030317522585392
1772556162628969500,3.696969482421875,-0.18940559029579163,0.127659410238266,-0.03582227975130081
1772556162638961400,3.70696142578125,-0.19294919073581696,0.12574273347854614,-0.042632512748241425
1772556162648954400,3.716954345703125,-0.19487439095973969,0.10650140047073364,-0.052031077444553375
1772556162658946300,3.7269462890625,-0.19425871968269348,0.08258028328418732,-0.06135948747396469
1772556162668939300,3.736939208984375,-0.18290087580680847,0.05966458097100258,-0.0654945820569992
1772556162678931500,3.746931396484375,-0.1783343255519867,0.048595912754535675,-0.0648854523897171
1772556162688923400,3.75692333984375,-0.17291799187660217,0.04457507282495499,-0.0619242861866951
1772556162698916400,3.766916259765625,-0.16946181654930115,0.0444832444190979,-0.05459320917725563
1772556162708908300,3.776908203125,-0.16012558341026306,0.03666979819536209,-0.048667941242456436
1772556162718901500,3.786901611328125,-0.16066166758537292,0.0327506884932518,-0.047631971538066864
1772556162728893200,3.79689306640625,-0.15839825570583344,0.016177834942936897,-0.03932131081819534
1772556162738886400,3.806886474609375,-0.15519391000270844,-0.009204300120472908,-0.041616570204496384
1772556162748878600,3.816878662109375,-0.1468217372894287,-0.026809925213456154,-0.03507744520902634
1772556162758870300,3.826870361328125,-0.13898412883281708,-0.033981502056121826,-0.035133711993694305
1772556162768863500,3.836863525390625,-0.12480147182941437,-0.0367213636636734,-0.029853995889425278
1772556162778855400,3.84685546875,-0.1124710738658905,-0.019144605845212936,-0.023341333493590355
1772556162788848400,3.856848388671875,-0.09990494698286057,0.011499591171741486,-0.013683379627764225
1772556162798840300,3.86684033203125,-0.09299474954605103,0.05627119541168213,-0.0059234099462628365
1772556162808833300,3.876833251953125,-0.08794859051704407,0.10300061851739883,0.0012349007884040475
1772556162818825500,3.886825439453125,-0.08458487689495087,0.13606905937194824,0.007974592968821526
1772556162828817400,3.8968173828125,-0.0863279178738594,0.16455262899398804,0.008139709010720253
1772556162838810400,3.906810302734375,-0.09071541577577591,0.17897449433803558,0.0007291514193639159
1772556162848802300,3.91680224609375,-0.10205835103988647,0.1801004707813263,-0.006366042420268059
1772556162858795500,3.92679541015625,-0.12050099670886993,0.16191130876541138,-0.024359095841646194
1772556162868787200,3.936787109375,-0.14126938581466675,0.13030783832073212,-0.04196205735206604
1772556162878780400,3.946780517578125,-0.16312870383262634,0.09896434843540192,-0.06493855267763138
1772556162888772600,3.956772705078125,-0.1767800748348236,0.06429718434810638,-0.08377322554588318
1772556162898764300,3.966764404296875,-0.18748150765895844,0.03647887706756592,-0.10428836941719055
1772556162908757500,3.976757568359375,-0.19761323928833008,0.018948353826999664,-0.11959914863109589
1772556162918749400,3.98674951171875,-0.1991436928510666,0.009438993409276009,-0.1300824135541916
1772556162928742400,3.996742431640625,-0.20445936918258667,0.0037571387365460396,-0.1354108601808548
1772556162938734300,4.006734375,-0.20201916992664337,-0.0044280756264925,-0.1353893131017685
1772556162948726500,4.0167265625,-0.19005119800567627,-0.013137144967913628,-0.13103850185871124
1772556162958719200,4.02671923828125,-0.17549441754817963,-0.018684539943933487,-0.11880708485841751
1772556162968711400,4.03671142578125,-0.15578995645046234,-0.026689469814300537,-0.10708491504192352
1772556162978704400,4.046704345703125,-0.1369786113500595,-0.021639179438352585,-0.08812886476516724
1772556162988696300,4.0566962890625,-0.11762329190969467,-0.016869990155100822,-0.07230489701032639
1772556162998689500,4.066689453125,-0.09768428653478622,-0.012489842250943184,-0.05050620436668396
1772556163008681200,4.07668115234375,-0.07784266769886017,-0.021228473633527756,-0.024641048163175583
1772556163018673400,4.08667333984375,-0.07494471222162247,-0.026713162660598755,-0.008485652506351471
1772556163028666400,4.096666259765625,-0.07384349405765533,-0.03160299360752106,0.005536956246942282
1772556163038658300,4.106658203125,-0.06736196577548981,-0.02866014651954174,0.02311374433338642
1772556163048651500,4.116651611328125,-0.06120580807328224,-0.023941291496157646,0.03538106381893158
1772556163058643500,4.1266435546875,-0.05470722168684006,-0.01411452516913414,0.05004420876502991
1772556163068636400,4.136636474609375,-0.05369788408279419,-0.009074226953089237,0.05600649490952492
1772556163078628400,4.14662841796875,-0.05571011081337929,-0.00819588452577591,0.062177255749702454
1772556163088620500,4.15662060546875,-0.06501705199480057,-0.010958380997180939,0.06753793358802795
1772556163098613200,4.16661328125,-0.08970104902982712,-0.016711007803678513,0.05377156287431717
1772556163108605400,4.17660546875,-0.11315790563821793,-0.03626526892185211,0.029424410313367844
1772556163118598400,4.186598388671875,-0.12766139209270477,-0.06696787476539612,-0.0021170140244066715
1772556163128590300,4.19659033203125,-0.12312150001525879,-0.11756633967161179,-0.03940579295158386
1772556163138582500,4.20658251953125,-0.10925668478012085,-0.18057085573673248,-0.08876218646764755
1772556163148575200,4.2165751953125,-0.10511280596256256,-0.24826467037200928,-0.14363476634025574
1772556163158567400,4.2265673828125,-0.11588422954082489,-0.3067551553249359,-0.20023493468761444
1772556163168560400,4.236560302734375,-0.1219881922006607,-0.3738558888435364,-0.2447374165058136
1772556163178552300,4.24655224609375,-0.12941974401474,-0.42653483152389526,-0.279588520526886
1772556163188545500,4.256545654296875,-0.13736821711063385,-0.46035271883010864,-0.29433098435401917
1772556163198537500,4.266537353515625,-0.14762453734874725,-0.47056636214256287,-0.29420092701911926
1772556163208529400,4.276529296875,-0.14096903800964355,-0.44393235445022583,-0.2745947539806366
1772556163218522400,4.2865224609375,-0.1198713481426239,-0.37800392508506775,-0.24108333885669708
1772556163228514600,4.2965146484375,-0.09819987416267395,-0.2844121754169464,-0.19640934467315674
1772556163238507300,4.30650732421875,-0.07761532813310623,-0.19141103327274323,-0.14032571017742157
1772556163248499500,4.31649951171875,-0.06260628253221512,-0.1092301458120346,-0.0764942616224289
1772556163258492400,4.326492431640625,-0.04973451793193817,-0.05717509984970093,-0.007804283872246742
1772556163268484400,4.336484375,-0.04387742653489113,-0.01663486286997795,0.0553206242620945
1772556163278476500,4.3464765625,-0.044439420104026794,0.0027068802155554295,0.11162982881069183
1772556163288469200,4.35646923828125,-0.04795905202627182,0.0074182781390845776,0.15209762752056122
1772556163298461400,4.36646142578125,-0.04606814309954643,0.000046644359827041626,0.18125325441360474
1772556163308454400,4.376454345703125,-0.039046455174684525,-0.013390867039561272,0.2054150402545929
1772556163318446300,4.3864462890625,-0.029297422617673874,-0.012619882822036743,0.22233037650585175
1772556163328439600,4.396439453125,-0.020590215921401978,0.001516442745923996,0.22620607912540436
1772556163338431200,4.40643115234375,-0.01067329104989767,0.025626925751566887,0.2268628180027008
1772556163348423400,4.41642333984375,0.0032478508073836565,0.04953385889530182,0.2180914282798767
1772556163358416400,4.42641650390625,0.018917720764875412,0.07050852477550507,0.20666198432445526
1772556163368408300,4.436408203125,0.036266081035137177,0.092544324696064,0.19136372208595276
1772556163378401300,4.4464013671875,0.05491482466459274,0.10069777816534042,0.1752317249774933
1772556163388393500,4.4563935546875,0.06999550014734268,0.09147072583436966,0.15578106045722961
1772556163398385400,4.466385498046875,0.0872863233089447,0.06752046942710876,0.1331762969493866
1772556163408378400,4.47637841796875,0.10421843081712723,0.05118543654680252,0.11531688272953033
1772556163418370600,4.48637060546875,0.11474574357271194,0.03546306490898132,0.09300777316093445
1772556163428363300,4.49636328125,0.1252785474061966,0.025552909821271896,0.07802935689687729
1772556163438355500,4.50635546875,0.1295948624610901,0.018148276954889297,0.06076405197381973
1772556163448348200,4.51634814453125,0.13242900371551514,0.014768192544579506,0.041096873581409454
1772556163458340400,4.52634033203125,0.13753089308738708,-0.0016230796463787556,0.02152831107378006
1772556163468332300,4.536332275390625,0.14881551265716553,-0.025737736374139786,0.005898750852793455
1772556163478325200,4.5463251953125,0.15121062099933624,-0.04105015844106674,-0.008344150148332119
1772556163488317400,4.5563173828125,0.15122181177139282,-0.05142876133322716,-0.01633496582508087
1772556163498310400,4.566310302734375,0.14647148549556732,-0.06126203387975693,-0.018196677789092064
1772556163508302300,4.57630224609375,0.14680226147174835,-0.062080152332782745,-0.01267141755670309
1772556163518295300,4.58629541015625,0.15019339323043823,-0.03923105075955391,-0.004922654014080763
1772556163528287500,4.59628759765625,0.15754930675029755,-0.00593461561948061,0.015609252266585827
1772556163538279200,4.606279052734375,0.16201217472553253,0.040208879858255386,0.04241854324936867
1772556163548272400,4.6162724609375,0.16455203294754028,0.0856378823518753,0.06899689137935638
1772556163558264300,4.626264404296875,0.1658696085214615,0.12209635972976685,0.09419509768486023
1772556163568257300,4.63625732421875,0.16840042173862457,0.14769944548606873,0.12014147639274597
1772556163578249200,4.646249267578125,0.16744676232337952,0.1616940051317215,0.13727769255638123
1772556163588242200,4.6562421875,0.16315481066703796,0.1567663550376892,0.1529112607240677
1772556163598234000,4.666234130859375,0.16324986517429352,0.14248551428318024,0.16834788024425507
1772556163608226000,4.67622607421875,0.16337503492832184,0.12441383302211761,0.17354370653629303
1772556163618219300,4.68621923828125,0.16232119500637054,0.10602056235074997,0.17975763976573944
1772556163628211000,4.6962109375,0.16035231947898865,0.08633527159690857,0.17882099747657776
1772556163638204200,4.7062041015625,0.15563789010047913,0.06580562889575958,0.18231965601444244
1772556163648196000,4.716196044921875,0.1403265744447708,0.05994401127099991,0.17614857852458954
1772556163658188000,4.72618798828125,0.12728942930698395,0.05922884866595268,0.173182412981987
1772556163668181200,4.73618115234375,0.106832355260849,0.06281079351902008,0.1643524467945099
1772556163678173200,4.746173095703125,0.08805190026760101,0.0640656128525734,0.15034988522529602
1772556163688166100,4.756166259765625,0.07139541953802109,0.06280433386564255,0.1361754685640335
1772556163698158000,4.766157958984375,0.05270545184612274,0.057614799588918686,0.11792097985744476
1772556163708151000,4.776151123046875,0.030415592715144157,0.042154617607593536,0.09521380066871643
1772556163718143200,4.786143310546875,0.004801160655915737,0.032265834510326385,0.07065191119909286
1772556163728135200,4.79613525390625,-0.017577914521098137,0.03018190898001194,0.044595807790756226
1772556163738128100,4.806128173828125,-0.03303714841604233,0.02232498675584793,0.018084393814206123
1772556163748120000,4.8161201171875,-0.04110652953386307,0.011805766262114048,-0.00386617798358202
1772556163758113000,4.826113037109375,-0.041293852031230927,-0.0011993679217994213,-0.017174985259771347
1772556163768105000,4.83610498046875,-0.04282303899526596,-0.015065914951264858,-0.031354185193777084
1772556163778098200,4.84609814453125,-0.04567243531346321,-0.03747342526912689,-0.0399932861328125
1772556163788090000,4.856090087890625,-0.04722984880208969,-0.062052272260189056,-0.04486101120710373
1772556163798082000,4.86608203125,-0.04849686846137047,-0.08364244550466537,-0.04348604381084442
1772556163808075300,4.8760751953125,-0.047602578997612,-0.09201809018850327,-0.03993764519691467
1772556163818067200,4.886067138671875,-0.041978053748607635,-0.09131713956594467,-0.030042950063943863
1772556163828060200,4.89606005859375,-0.03876654431223869,-0.08259768038988113,-0.017163904383778572
1772556163838052000,4.906052001953125,-0.032247394323349,-0.06943713873624802,-0.006727241910994053
1772556163848045000,4.916045166015625,-0.02183869481086731,-0.05817782133817673,-0.0007348632207140326
1772556163858037200,4.926037353515625,-0.009766602888703346,-0.03750868886709213,0.007134535349905491
1772556163868029200,4.936029296875,0.00028390088118612766,-0.015691807493567467,0.015287003479897976
1772556163878022100,4.946022216796875,0.018345719203352928,0.002520233392715454,0.025498220697045326
1772556163888014000,4.95601416015625,0.0241245124489069,0.019804414361715317,0.03166317194700241
1772556163898007000,4.966007080078125,0.025090346112847328,0.02569757215678692,0.03385116904973984
1772556163907999000,4.9759990234375,0.021282026544213295,0.022778213024139404,0.030995192006230354
1772556163917991200,4.9859912109375,0.009868079796433449,0.009670554660260677,0.019970564171671867
1772556163927984000,4.995984130859375,-0.0020042925607413054,-0.011620352044701576,0.010973872616887093
1772556163937976000,5.00597607421875,-0.015966298058629036,-0.01795235276222229,-0.006918753031641245
1772556163947969300,5.01596923828125,-0.023904914036393166,-0.015196779742836952,-0.02354380302131176
1772556163957961000,5.0259609375,-0.03033093549311161,-0.011297589167952538,-0.045776475220918655
1772556163967954200,5.0359541015625,-0.03335122764110565,0.00018755951896309853,-0.06428411602973938
1772556163977946000,5.045946044921875,-0.02716325968503952,0.013154307380318642,-0.0785011425614357
1772556163987938000,5.05593798828125,-0.020190570503473282,0.034232161939144135,-0.09493871033191681
1772556163997931000,5.065930908203125,-0.009810852818191051,0.05779774487018585,-0.09812075644731522
1772556164007923200,5.075923095703125,0.001309176441282034,0.08226767182350159,-0.09511937201023102
1772556164017915100,5.0859150390625,0.012822601944208145,0.0995125100016594,-0.08375710248947144
1772556164027908000,5.095908203125,0.027842029929161072,0.10628466308116913,-0.06935445964336395
1772556164037900300,5.105900390625,0.04587305337190628,0.10883161425590515,-0.04768951237201691
1772556164047893000,5.11589306640625,0.060875169932842255,0.10789497941732407,-0.019739905372262
1772556164057885200,5.12588525390625,0.07564778625965118,0.09690281748771667,0.010641924105584621
1772556164067878000,5.1358779296875,0.0825488343834877,0.08617985993623734,0.03509613126516342
1772556164077870000,5.1458701171875,0.0829630047082901,0.08378070592880249,0.05139457806944847
1772556164087862000,5.155862060546875,0.08333984017372131,0.07722799479961395,0.06247812137007713
1772556164097855000,5.16585498046875,0.08041718602180481,0.06842613220214844,0.06815506517887115
1772556164107847200,5.17584716796875,0.08017057180404663,0.0459945946931839,0.06976574659347534
1772556164117840100,5.185840087890625,0.0752270519733429,0.017864268273115158,0.06413727253675461
1772556164127832000,5.19583203125,0.07678713649511337,-0.00673428550362587,0.060151584446430206
1772556164137825000,5.205824951171875,0.08256912976503372,-0.006600372958928347,0.0546407625079155
1772556164147817200,5.215817138671875,0.08556998521089554,0.02011778950691223,0.04967769235372543
1772556164157809000,5.225808837890625,0.08964908123016357,0.04689908027648926,0.048581257462501526
1772556164167802000,5.235802001953125,0.09097586572170258,0.05348427966237068,0.048403628170490265
1772556164177794300,5.245794189453125,0.09276189655065536,0.03306616097688675,0.059375494718551636
1772556164187787000,5.255787109375,0.09570948034524918,0.0037617990747094154,0.07482662051916122
1772556164197779200,5.265779296875,0.09306174516677856,-0.013348909094929695,0.0975545272231102
1772556164207772000,5.27577197265625,0.09013892710208893,-0.02637869119644165,0.12002335488796234
1772556164217764000,5.28576416015625,0.08769088983535767,-0.03416047990322113,0.13786843419075012
1772556164227756000,5.295756103515625,0.0836639255285263,-0.04102291166782379,0.15615716576576233
1772556164237749000,5.3057490234375,0.07281883805990219,-0.052098095417022705,0.16389429569244385
1772556164247741200,5.3157412109375,0.057256389409303665,-0.07592300325632095,0.16785681247711182
1772556164257734100,5.325734130859375,0.046328987926244736,-0.10287264734506607,0.16021494567394257
1772556164267726000,5.33572607421875,0.03971182927489281,-0.12067347764968872,0.1475132554769516
1772556164277718000,5.345718017578125,0.036971285939216614,-0.12379543483257294,0.13016986846923828
1772556164287711200,5.355711181640625,0.036138519644737244,-0.12469212710857391,0.10755537450313568
1772556164297703000,5.365702880859375,0.032361358404159546,-0.12983016669750214,0.08614169806241989
1772556164307696000,5.375696044921875,0.021298319101333618,-0.14999747276306152,0.0675128847360611
1772556164317688300,5.385688232421875,0.0020543066784739494,-0.17788100242614746,0.04355476424098015
1772556164327681000,5.395680908203125,-0.0145494369789958,-0.20881707966327667,0.031565744429826736
1772556164337673200,5.405673095703125,-0.027329985052347183,-0.22849981486797333,0.02043788880109787
1772556164347665200,5.4156650390625,-0.04032061621546745,-0.23281466960906982,0.00780598446726799
1772556164357658000,5.425658203125,-0.051913391798734665,-0.2326611429452896,-0.005039419513195753
1772556164367650000,5.435650146484375,-0.06889689713716507,-0.2300397902727127,-0.019222617149353027
1772556164377643000,5.44564306640625,-0.0715860053896904,-0.2063843309879303,-0.02827274799346924
1772556164387635200,5.45563525390625,-0.06683892011642456,-0.15169605612754822,-0.037047065794467926
1772556164397628200,5.465628173828125,-0.05633925274014473,-0.07380056381225586,-0.040460553020238876
1772556164407620000,5.4756201171875,-0.041872963309288025,0.008355291560292244,-0.03928689658641815
1772556164417612000,5.485612060546875,-0.028912801295518875,0.08570432662963867,-0.03318638354539871
1772556164427605200,5.495605224609375,-0.01932648755609989,0.13702262938022614,-0.02397157996892929
1772556164437597000,5.505596923828125,-0.012261144816875458,0.1570286750793457,-0.0131845623254776
1772556164447590100,5.515590087890625,-0.010509850457310677,0.1432310938835144,-0.00003733445191755891
1772556164457582300,5.525582275390625,-0.026477713137865067,0.11567968875169754,0.008763345889747143
1772556164467574000,5.535573974609375,-0.0420052744448185,0.08458755165338516,0.014699265360832214
1772556164477567200,5.545567138671875,-0.0560079887509346,0.047250617295503616,0.016866737976670265
1772556164487559200,5.55555908203125,-0.066635861992836,0.018971310928463936,0.012711407616734505
1772556164497552100,5.56555224609375,-0.08157266676425934,0.00046898797154426575,0.012996646575629711
1772556164507544000,5.5755439453125,-0.09975806623697281,-0.008816655725240707,0.005902518052607775
1772556164517537000,5.585537109375,-0.11332634836435318,-0.004415471106767654,0.0004267335752956569
1772556164527529200,5.595529296875,-0.12094751745462418,0.00038487697020173073,-0.011141772381961346
1772556164537521200,5.605521240234375,-0.12765507400035858,0.01410248689353466,-0.016769740730524063
1772556164547514000,5.61551416015625,-0.1318815052509308,0.030087577179074287,-0.026642611250281334
1772556164557506000,5.625506103515625,-0.14146718382835388,0.05006379634141922,-0.03409641236066818
1772556164567499300,5.635499267578125,-0.15223699808120728,0.052565570920705795,-0.03740965202450752
1772556164577491000,5.645490966796875,-0.16095417737960815,0.048904456198215485,-0.04366666078567505
1772556164587483100,5.655483154296875,-0.172024667263031,0.02937975339591503,-0.05203564465045929
1772556164597476000,5.66547607421875,-0.1846439242362976,-0.002142196986824274,-0.06476904451847076
1772556164607468000,5.675468017578125,-0.1932544708251953,-0.04844258725643158,-0.07629760354757309
1772556164617461200,5.685461181640625,-0.1972176432609558,-0.09526313841342926,-0.08881204575300217
1772556164627453200,5.695453125,-0.1950431615114212,-0.1308746635913849,-0.10491884499788284
1772556164637446100,5.705446044921875,-0.1851634979248047,-0.15296588838100433,-0.11972112208604813
1772556164647438000,5.71543798828125,-0.1683938354253769,-0.16830675303936005,-0.13252587616443634
1772556164657430300,5.72543017578125,-0.14628775417804718,-0.16748113930225372,-0.141554057598114
1772556164667423000,5.735423095703125,-0.11964468657970428,-0.1508243978023529,-0.13582532107830048
1772556164677415200,5.745415283203125,-0.09323989599943161,-0.12217362225055695,-0.12508392333984375
1772556164687408000,5.755408203125,-0.06721894443035126,-0.07447907328605652,-0.1042926162481308
1772556164697400000,5.765400146484375,-0.04474882781505585,-0.007288454566150904,-0.07426512241363525
1772556164707393300,5.775393310546875,-0.028652414679527283,0.05811158940196037,-0.04546836391091347
1772556164717385000,5.785385009765625,-0.013555695302784443,0.10406100749969482,-0.012027360498905182
1772556164727377200,5.795377197265625,0.00043388945050537586,0.12339768558740616,0.016300151124596596
1772556164737370000,5.8053701171875,0.009799115359783173,0.12356752157211304,0.038130983710289
1772556164747362000,5.815362060546875,0.012815411202609539,0.10193252563476562,0.04828482121229172
1772556164757355300,5.825355224609375,0.0019060266204178333,0.0741555318236351,0.05567529797554016
1772556164767347200,5.83534716796875,-0.012579971924424171,0.04076855257153511,0.0537482351064682
1772556164777339100,5.845339111328125,-0.028011055663228035,0.014553181827068329,0.04471534118056297
1772556164787332000,5.85533203125,-0.0403050072491169,-0.0034399323631078005,0.02645537443459034
1772556164797324300,5.86532421875,-0.041879378259181976,-0.008692318573594093,0.005040231626480818
1772556164807317000,5.87531689453125,-0.042001351714134216,-0.0192703939974308,-0.022881947457790375
1772556164817309200,5.88530908203125,-0.03746053948998451,-0.03089529275894165,-0.04726274311542511
1772556164827302100,5.89530224609375,-0.03365568444132805,-0.05299606919288635,-0.06987990438938141
1772556164837294000,5.905294189453125,-0.03317398577928543,-0.07647821307182312,-0.08265084028244019
1772556164847286300,5.915286376953125,-0.02931373566389084,-0.08890345692634583,-0.09004510939121246
1772556164857279000,5.925279052734375,-0.028038568794727325,-0.08671931177377701,-0.0912763923406601
1772556164867271200,5.935271240234375,-0.025808170437812805,-0.06935044378042221,-0.08329729735851288
1772556164877264100,5.94526416015625,-0.03098776377737522,-0.048384927213191986,-0.06812479346990585
1772556164887256000,5.955256103515625,-0.04415895789861679,-0.036654502153396606,-0.051817722618579865
1772556164897248000,5.965248046875,-0.059856995940208435,-0.027843298390507698,-0.0378601998090744
1772556164907241200,5.9752412109375,-0.07397974282503128,-0.02159552276134491,-0.025439752265810966
1772556164917233200,5.985233154296875,-0.08467159420251846,-0.02530081197619438,-0.018856106325984
1772556164927226000,5.99522607421875,-0.09855838119983673,-0.044046539813280106,-0.01865983195602894
1772556164937218300,6.00521826171875,-0.11405951529741287,-0.06722692400217056,-0.032406046986579895
1772556164947211000,6.0152109375,-0.1209845319390297,-0.08643603324890137,-0.04512583464384079
1772556164957203200,6.025203125,-0.1203818991780281,-0.09712129831314087,-0.059736378490924835
1772556164967195100,6.035195068359375,-0.11488113552331924,-0.09815380722284317,-0.07573478668928146
1772556164977188000,6.04518798828125,-0.11154121905565262,-0.09035278856754303,-0.08724739402532578
1772556164987180300,6.05518017578125,-0.10852519422769547,-0.07473308593034744,-0.09165279567241669
1772556164997173000,6.065173095703125,-0.1091400608420372,-0.05676417052745819,-0.08853854238986969
1772556165007165200,6.075165283203125,-0.1136716902256012,-0.04338818043470383,-0.08121378719806671
1772556165017158100,6.085158203125,-0.11349178850650787,-0.030420472845435143,-0.07290122658014297
1772556165027150000,6.095150146484375,-0.10929358005523682,-0.020036276429891586,-0.060344696044921875
1772556165037142000,6.10514208984375,-0.09738700836896896,-0.005364054813981056,-0.0451091043651104
1772556165047135200,6.11513525390625,-0.08321978896856308,0.00728036742657423,-0.02983640693128109
1772556165057127200,6.125127197265625,-0.06420093774795532,0.03182478994131088,-0.01129219587892294
1772556165067120000,6.1351201171875,-0.04847656935453415,0.0668187290430069,0.004442292265594006
1772556165077112300,6.1451123046875,-0.038929473608732224,0.10099615156650543,0.023191196843981743
1772556165087104000,6.15510400390625,-0.026472270488739014,0.12397923320531845,0.042950790375471115
1772556165097097200,6.16509716796875,-0.021951453760266304,0.14920908212661743,0.05559726804494858
1772556165107089200,6.175089111328125,-0.018520236015319824,0.1576491743326187,0.06331031769514084
1772556165117082000,6.18508203125,-0.018090344965457916,0.14653237164020538,0.07082544267177582
1772556165127074000,6.195073974609375,-0.018961463123559952,0.11429453641176224,0.06067267805337906
1772556165137067000,6.20506689453125,-0.030173080042004585,0.06887928396463394,0.04532838612794876
1772556165147059200,6.21505908203125,-0.0459136925637722,0.021621223539114,0.01781153865158558
1772556165157051100,6.225051025390625,-0.05902676284313202,-0.019162170588970184,-0.01565772481262684
1772556165167044000,6.235044189453125,-0.06980324536561966,-0.061100296676158905,-0.05777188763022423
1772556165177036000,6.2450361328125,-0.07372885942459106,-0.0882563516497612,-0.09661799669265747
1772556165187029200,6.255029296875,-0.06822650134563446,-0.10414024442434311,-0.13803601264953613
1772556165197021000,6.26502099609375,-0.05295410752296448,-0.09807635843753815,-0.168294757604599
1772556165207013000,6.27501318359375,-0.02733183465898037,-0.08060415834188461,-0.18187394738197327
1772556165217006000,6.285006103515625,-0.008355723693966866,-0.0608220249414444,-0.182730570435524
1772556165226998000,6.294998046875,0.0028322162106633186,-0.04668223112821579,-0.16939453780651093
1772556165236991200,6.3049912109375,0.0070466576144099236,-0.041846420615911484,-0.14380374550819397
1772556165246983200,6.314983154296875,0.0116275604814291,-0.03971588984131813,-0.10626408457756042
1772556165256976100,6.32497607421875,0.00936894491314888,-0.04185605049133301,-0.06672034412622452
1772556165266968000,6.334968017578125,0.006715637631714344,-0.054723918437957764,-0.02786189690232277
1772556165276960300,6.344960205078125,-0.0005103062139824033,-0.06944192200899124,0.002975970506668091
1772556165286953200,6.354953125,-0.010012997314333916,-0.0799182578921318,0.02919612266123295
1772556165296945200,6.364945068359375,-0.01417301595211029,-0.07814235240221024,0.040855295956134796
1772556165306938000,6.374938232421875,-0.015834828838706017,-0.056833602488040924,0.04561462998390198
1772556165316930000,6.384929931640625,-0.015621786937117577,-0.023135244846343994,0.04092155024409294
1772556165326922200,6.394922119140625,-0.01673019491136074,0.010503941215574741,0.029251843690872192
1772556165336915000,6.4049150390625,-0.014885191805660725,0.02668890915811062,0.013493281789124012
1772556165346907100,6.4149072265625,-0.01796780154109001,0.032864779233932495,0.0060798404738307
1772556165356900000,6.424900146484375,-0.027597445994615555,0.038437388837337494,-0.0044558169320225716
1772556165366892000,6.43489208984375,-0.04076171666383743,0.040133021771907806,-0.006114699877798557
1772556165376885200,6.44488525390625,-0.046071607619524,0.042067334055900574,-0.0028414828702807426
1772556165386877200,6.454877197265625,-0.056784436106681824,0.0472186803817749,0.002316261176019907
1772556165396869000,6.464869140625,-0.06674578785896301,0.04883359372615814,0.007597087416797876
1772556165406862000,6.474862060546875,-0.07465270906686783,0.044271066784858704,0.014955135062336922
1772556165416854000,6.48485400390625,-0.07836469262838364,0.03655482828617096,0.024431712925434113
1772556165426847200,6.49484716796875,-0.07860197871923447,0.038338348269462585,0.029624877497553825
1772556165436839200,6.504839111328125,-0.0797823891043663,0.05853746086359024,0.04339088872075081
1772556165446831000,6.5148310546875,-0.08740328997373581,0.08523059636354446,0.049444254487752914
1772556165456824000,6.524823974609375,-0.09113368391990662,0.10531418025493622,0.05301010608673096
1772556165466816300,6.534816162109375,-0.0926239863038063,0.11270977556705475,0.053350724279880524
1772556165476809000,6.54480908203125,-0.09468883275985718,0.11715096235275269,0.0523923896253109
1772556165486801200,6.55480126953125,-0.09590429812669754,0.11633417010307312,0.046600013971328735
1772556165496794000,6.564794189453125,-0.09784358739852905,0.11349248886108398,0.03424280136823654
1772556165506786000,6.5747861328125,-0.09329277276992798,0.10049253702163696,0.02039382793009281
1772556165516778200,6.5847783203125,-0.08710235357284546,0.0933535024523735,0.0032985988073050976
1772556165526771000,6.59477099609375,-0.07759886234998703,0.09065411984920502,-0.015129677951335907
1772556165536763100,6.60476318359375,-0.07199892401695251,0.08921507745981216,-0.02494570054113865
1772556165546756000,6.614756103515625,-0.06727074831724167,0.08520542085170746,-0.0317615270614624
1772556165556748000,6.624748046875,-0.055814240127801895,0.08082879334688187,-0.028717761859297752
1772556165566740000,6.634739990234375,-0.046900905668735504,0.08278089016675949,-0.028010426089167595
1772556165576733200,6.644733154296875,-0.032971762120723724,0.08442428708076477,-0.016260037198662758
1772556165586726000,6.654725830078125,-0.019598431885242462,0.08188336342573166,0.0004917785990983248
1772556165596719000,6.664718994140625,-0.0017512808553874493,0.08204164355993271,0.010443429462611675
1772556165606710800,6.674710693359375,0.013775481842458248,0.07941150665283203,0.02597098983824253
1772556165616704000,6.6847041015625,0.02512056939303875,0.061410848051309586,0.035693176090717316
1772556165626696200,6.6946962890625,0.03685898706316948,0.03658592700958252,0.0462331660091877
1772556165636688000,6.70468798828125,0.03913253918290138,0.03453177958726883,0.04796907305717468
1772556165646681000,6.71468115234375,0.0455467626452446,0.03356558457016945,0.04258682578802109
1772556165656673000,6.724673095703125,0.05652051419019699,0.025858676061034203,0.03419012948870659
1772556165666666000,6.734666015625,0.06776650249958038,0.012455783784389496,0.020091623067855835
1772556165676658000,6.744657958984375,0.06978663057088852,-0.0071178399957716465,0.0057173906825482845
1772556165686650000,6.754650146484375,0.0714455097913742,-0.020641904324293137,-0.007632502820342779
1772556165696643000,6.76464306640625,0.06793837249279022,-0.01834537833929062,-0.01896749995648861
1772556165706635000,6.774635009765625,0.06522540748119354,-0.015623094514012337,-0.03287852182984352
1772556165716628000,6.7846279296875,0.0637742131948471,-0.008484029211103916,-0.04275321960449219
1772556165726620000,6.794619873046875,0.06779105216264725,0.0018591559492051601,-0.05012831091880798
1772556165736613000,6.804613037109375,0.06855828315019608,0.02776305191218853,-0.05447177216410637
1772556165746604800,6.814604736328125,0.07449899613857269,0.05821230635046959,-0.053414762020111084
1772556165756597000,6.824596923828125,0.09101607650518417,0.08735356479883194,-0.045426465570926666
1772556165766590000,6.83458984375,0.0938773825764656,0.1605026125907898,0.021334189921617508
1772556165776582000,6.844581787109375,0.07581057399511337,0.20470410585403442,0.11087153851985931
1772556165786575000,6.8545751953125,0.04825697839260101,0.20064784586429596,0.16695503890514374
1772556165796567000,6.864567138671875,0.032345227897167206,0.16051757335662842,0.20133982598781586
1772556165806559000,6.87455908203125,0.021627336740493774,0.08872248977422714,0.20775245130062103
1772556165816552000,6.884552001953125,0.00915461778640747,0.033766038715839386,0.18778859078884125
1772556165826544000,6.894544189453125,-0.007361507508903742,-0.009477839805185795,0.12643654644489288
1772556165836536800,6.904536865234375,-0.025500493124127388,-0.04758848249912262,0.033150564879179
1772556165846529000,6.914529052734375,-0.043422769755125046,-0.07072629034519196,-0.07724785059690475
1772556165856522000,6.92452197265625,-0.05861179530620575,-0.071902796626091,-0.18100124597549438
1772556165866514000,6.934513916015625,-0.06775762140750885,-0.04604962840676308,-0.2703614830970764
1772556165876506000,6.944506103515625,-0.07882744818925858,0.013614477589726448,-0.3126894533634186
1772556165886498800,6.954498779296875,-0.08113400638103485,0.09528910368680954,-0.32034578919410706
1772556165896491000,6.964490966796875,-0.07399492710828781,0.15847629308700562,-0.2912310063838959
