time,seconds_elapsed,z,y,x
1772796791422964500,0.066964599609375,-2.0629601195335385,2.7049595079377293,0.020485008015483617
1772796791432956700,0.076956787109375,-1.629390423336625,2.5070035712108014,-0.13133498128466306
1772796791442950000,0.086949951171875,-1.015385834056139,2.31204769308269,-0.1732420589700341
1772796791452941600,0.096941650390625,-0.17250702269375323,2.096707198573649,-0.2553516754452139
1772796791462933800,0.106933837890625,0.6507108103871345,1.843241556070745,-0.34400859467200934
1772796791472925700,0.11692578125,1.3204630058526992,1.6512421896606684,-0.2065267081301659
1772796791482918700,0.126918701171875,1.5887012700736522,1.400690388777852,0.1330308984823525
1772796791492910600,0.13691064453125,1.6571996367603539,1.3055009990423918,0.5252907522346824
1772796791502902800,0.14690283203125,1.5792074655413626,1.3681333963051439,0.7375959707010536
1772796791512894700,0.156894775390625,1.4403653965622185,1.5102841514408587,0.6368173095911741
1772796791522887700,0.1668876953125,1.3443290346086025,1.7231632242724297,0.37250958975218235
1772796791532879600,0.176879638671875,1.276346800750494,1.8960253440141677,0.12660422643572092
1772796791542871800,0.186871826171875,1.3431097219467163,1.8705816906780004,-0.04207900018617511
1772796791552863500,0.196863525390625,1.3157470832467077,1.6294611504852772,-0.11226941161304711
1772796791562855700,0.206855712890625,1.0942279001027344,1.3507824485316873,-0.06854808757994324
1772796791572848600,0.2168486328125,0.9171212746590376,1.2826356717616318,0.08024429752733558
1772796791582840600,0.226840576171875,0.5611667330622673,1.4238622977897524,0.03261577345523983
1772796791592832500,0.23683251953125,0.15711305420696733,1.6541791198953986,-0.191711160585843
1772796791602824700,0.24682470703125,-0.2458329556673765,1.8237156023457646,-0.3504420617856085
1772796791612817700,0.256817626953125,-0.4070949462473392,1.9147712532773613,-0.41064719536881894
1772796791622809600,0.2668095703125,-0.27098259449303147,2.1000392656058073,-0.5450207040991634
1772796791632801800,0.2768017578125,0.24323475586771964,2.280829840259254,-0.733076447449997
1772796791642793700,0.286793701171875,1.0444248815357684,2.59133225197494,-0.7284769177652896
1772796791652785700,0.29678564453125,1.764006399053335,2.905867864729464,-0.541820300622657
1772796791662778600,0.306778564453125,2.2310089937746524,2.9577491508752107,-0.3305087328361347
1772796791672770800,0.316770751953125,2.162035995313525,2.379977319970727,-0.22072777703795582
1772796791682762500,0.326762451171875,1.5142331813275813,1.2766855311855674,-0.05067293326929211
1772796791692754700,0.336754638671875,0.5312830514520407,0.22370003431439398,0.2641786866318434
1772796791702747600,0.34674755859375,-0.09877718509435653,-0.11495938134938478,0.41341501611433923
1772796791712739600,0.356739501953125,-0.09103460814356804,0.050691491839289664,0.3997383364068344
1772796791722731500,0.3667314453125,0.4278098174959421,0.5148223305165768,0.08209383438415825
1772796791732723700,0.3767236328125,1.13233814278841,0.5611100344389677,-0.2670055440882221
1772796791742716700,0.386716552734375,2.122220117753744,0.554867340657115,-0.35405809685830025
1772796791752708600,0.39670849609375,3.0613702688694,0.6115031278535723,-0.29946526846522464
1772796791762700500,0.406700439453125,3.1322856335699556,0.2045478823378682,-0.1817524967544712
1772796791772692700,0.416692626953125,2.566114224088192,-0.5679413417637348,0.12771892794566228
1772796791782684700,0.4266845703125,2.3171295263916254,-1.0265510789319872,1.0119261951215566
1772796791792677600,0.436677734375,2.3481349055081604,-1.1249074082657695,1.2181930832717567
1772796791802669800,0.446669921875,2.9372628276854753,-0.7293854109123349,0.5439341509714722
1772796791812661800,0.456661865234375,3.026434564566612,-0.08440817574113607,0.3793526240473613
1772796791822653700,0.46665380859375,2.056116537249088,-0.1481982186064124,0.5754343278676272
1772796791832646700,0.476646728515625,1.120616725334525,-0.4007236576497554,1.2982697326146067
1772796791842638800,0.486638916015625,0.030055531045794486,-0.39228433060646056,2.035195622034371
1772796791852630500,0.496630615234375,-1.448020295229554,-0.5047561329238116,2.4197483354754743
1772796791862622700,0.506622802734375,-2.9198481670260428,-0.9757325997121632,2.578987734186649
1772796791872615700,0.51661572265625,-4.157413109439611,-1.2760282363206148,1.915326987463981
1772796791882607600,0.526607666015625,-5.146794149145483,-0.6507622483134269,0.24679401925187555
1772796791892599600,0.536599609375,-6.282414966866374,0.09307152079865336,-1.4553646666429936
1772796791902591700,0.546591796875,-8.438963470679521,0.3241376999668777,-1.5480667696073651
1772796791912583700,0.556583740234375,-11.833970650875568,0.45258492392078037,-1.1057056449938565
1772796791922576600,0.56657666015625,-15.412370404917,1.667602665092051,-2.6223832237988707
1772796791932568600,0.576568603515625,-17.566650379276275,2.635503694395721,-3.7812691817730664
1772796791942560800,0.586560791015625,-17.393975598800182,1.8851637582600116,-3.6835800841763615
1772796791952552400,0.596552490234375,-15.09778189293146,0.28691841477155683,-3.2024294293761253
1772796791962545700,0.606545654296875,-11.579070007133483,-0.8637959271848201,-2.490515670007467
1772796791972537900,0.616537841796875,-7.8762185285151,-1.4466390700042246,-1.549133814316988
1772796791982529500,0.626529541015625,-3.9644700324386357,-1.1735852221950889,-0.7742658783853054
1772796791992521700,0.636521728515625,-0.1332902800709009,-0.3756920922458172,-0.11227817944139241
1772796792002513700,0.646513671875,2.5110768119990823,0.0561275454133749,0.6358206997692585
1772796792012506600,0.656506591796875,3.5842549098104235,1.095007506173104,0.2941786150328815
1772796792022498600,0.66649853515625,3.50001946028769,1.9453136910572646,-1.0128890488043427
1772796792032490800,0.67649072265625,3.038434214439988,2.654893746781349,-1.460534908887744
1772796792042482700,0.686482666015625,2.5201708035588264,3.800960555192828,-1.501900353977084
1772796792052475600,0.6964755859375,1.5352683705717325,3.6260032167375087,-1.0195920535743237
1772796792062467600,0.706467529296875,-0.15215923119187355,1.8164049870714545,-0.10290157154798507
1772796792072459800,0.716459716796875,-1.9078069672226905,0.350433586218208,0.07621697824001311
1772796792082451500,0.726451416015625,-1.8701298552572727,-0.11467396113728172,0.417047015941143
1772796792092444700,0.736444580078125,-0.21574469139575958,0.26217295456631107,0.6481906442597508
1772796792102436600,0.7464365234375,1.722069876077771,0.6085506347235292,0.9335480933248996
1772796792112428500,0.756428466796875,2.982207300305366,0.1830924401213415,1.745320695544779
1772796792122420500,0.76642041015625,3.465841880875826,-0.4582049557596445,2.1210569191932676
1772796792132412700,0.77641259765625,3.892985343417525,-1.5077181003451345,2.464094988332689
1772796792142405600,0.786405517578125,5.029523275983333,-2.514136199569702,2.3709400270342824
1772796792152397300,0.796397216796875,6.46401831920743,-2.958819410455227,1.9076561605751514
1772796792162389500,0.806389404296875,8.203812652546167,-2.8023826480746266,1.4334903962261973
1772796792172381400,0.81638134765625,9.405980118364095,-2.251571012549102,1.5228452345892787
1772796792182374400,0.82637451171875,9.953589450716972,-1.3000798507764935,1.8275312151111662
1772796792192366300,0.836366455078125,10.317575907599926,-0.395148560931161,1.6464517405137418
1772796792202358500,0.846358642578125,9.474504204013943,-0.06263133781682699,1.4013780787810683
1772796792212350500,0.8563505859375,8.155635189354419,-0.41297092560864984,1.354955788693577
1772796792222342400,0.86634228515625,6.494428070518374,-0.7938049838528036,1.512327932228148
1772796792232335400,0.87633544921875,5.758368296408653,-0.9174836782306433,1.7226434381820261
1772796792242327600,0.88632763671875,5.8884138954699035,-0.6096075233653188,1.3252166301205754
1772796792252319200,0.8963193359375,5.925277352964878,-0.6339122357994318,0.9986313178058713
1772796792262311400,0.9063115234375,5.66258795504272,-0.8332162261344492,0.9422174297317862
1772796792272304400,0.916304443359375,5.335625114652514,-1.1562542212311178,1.2033367287930101
1772796792282296300,0.92629638671875,5.203893754461407,-1.3463187471210956,1.2895472047157586
1772796792292288300,0.936288330078125,4.964671156844497,-1.3346062436260282,0.9548795621018856
1772796792302280400,0.946280517578125,4.779702711984515,-1.4200170205384492,1.0047008469779044
1772796792312273400,0.9562734375,4.982264681202173,-1.2391487044736742,1.3978152717329562
1772796792322265300,0.966265380859375,5.249136333245039,-1.0122263471119106,1.7779488535575567
1772796792332257500,0.976257568359375,4.700197798115015,-0.7957364633720367,1.4625383576646447
1772796792342249500,0.98624951171875,3.120351450148225,-0.9506037844788282,1.0311813690811396
1772796792352241400,0.996241455078125,1.3038193295657634,-1.1780358449283987,0.5149634194876999
1772796792362234400,1.006234375,-0.882789381468296,-1.4707619961306453,-0.035295587123744185
1772796792372226600,1.0162265625,-3.2370769643872976,-2.5547017264530063,0.572423967070505
1772796792382218200,1.02621826171875,-4.258793170508742,-3.5636490518942474,1.601948581920564
1772796792392210400,1.03621044921875,-5.142392114794254,-3.666336688430607,0.7599803825970739
1772796792402203400,1.046203369140625,-7.116756836029887,-2.0594212778829037,-2.4120281164869666
1772796792412195300,1.0561953125,-12.67814300917983,1.6390172065988182,-5.803353101038932
1772796792422187300,1.066187255859375,-22.598731523048876,3.89730262209475,-5.46112956315279
1772796792432179500,1.076179443359375,-30.966024426746365,4.860969374829531,-3.5152073848083614
1772796792442172400,1.08617236328125,-30.90033585678339,7.453618554621935,-1.994797560672462
1772796792452164400,1.096164306640625,-24.37316228548288,6.783007111978531,-0.05626764800380915
1772796792462156300,1.10615625,-17.586367471659184,3.431741750614345,-0.15750285724215207
1772796792472148500,1.1161484375,-13.177623978179692,-0.464960859760642,-1.0673083289951086
1772796792482140400,1.126140380859375,-10.91974100600481,-1.4933128506347537,-1.8316832202240823
1772796792492133400,1.13613330078125,-10.031153167390823,-1.0022099800102413,-0.9078368750937282
1772796792502125600,1.14612548828125,-9.560912905922532,-1.0929320150732993,-0.18488610033877192
1772796792512117500,1.156117431640625,-7.766973725420236,-0.5588257228940725,-0.4231768969982862
1772796792522109400,1.166109375,-4.623606725865602,-0.09237564748898149,-1.36529641931355
1772796792532102400,1.176102294921875,-0.3575876957565546,-1.291343294352293,-1.821760376624763
1772796792542094600,1.186094482421875,3.619851708370447,-1.959130181094259,-2.604878546768427
1772796792552086300,1.196086181640625,6.295437530046701,-1.3698083437800406,-3.3650197459504008
1772796792562078500,1.206078369140625,5.700550313690305,-0.5692311623785644,-2.0451625970363616
1772796792572070400,1.2160703125,3.936540992027521,-0.20536511700488624,0.4649235964901745
1772796792582063400,1.2260634765625,4.297562753885984,0.3249802882708609,1.7929560146838426
1772796792592055300,1.23605517578125,6.421427131715417,0.6470949579775332,2.1360390920087693
1772796792602047500,1.246047607421875,8.333421613755823,0.519061648586765,1.8814564281746744
1772796792612039400,1.256039306640625,9.302441417956352,0.08957980622537434,1.5551625730872154
1772796792622032400,1.266032470703125,10.220498512160777,0.1293956107199192,1.5139768684789539
1772796792632024600,1.276024658203125,10.950936939257383,0.28151509442329403,2.0849074551865456
1772796792642016500,1.2860166015625,11.23653082742691,0.2989806815523654,2.5435581088870762
1772796792652008200,1.29600830078125,11.064008022642135,0.21635763566233215,2.5829648211240768
1772796792662001400,1.30600146484375,10.651623153293132,0.21762604816295206,1.6381312175445257
1772796792671993600,1.31599365234375,10.178049363487958,0.06252455297410488,0.255757552832365
1772796792681985300,1.3259853515625,9.706697341385484,-0.02366151915974915,-0.463665011263825
1772796792691977500,1.3359775390625,9.354070482906698,0.16433109582699834,-0.6250859552651643
1772796792701969400,1.345969482421875,9.01722746901512,0.432730761154741,-0.43035774841308594
1772796792711962400,1.35596240234375,8.6561636215806,0.831442421394959,0.3423407345250249
1772796792721954300,1.365954345703125,8.549886436119674,0.979013521078974,1.1648599178172647
1772796792731946500,1.375946533203125,8.61783710579574,0.9217764800537377,1.5682383277595042
1772796792741938400,1.3859384765625,8.870676725354791,0.5790985494635998,1.7562176448732614
1772796792751931400,1.395931396484375,9.495247132313251,0.2205920583616942,1.2002154549673199
1772796792761923300,1.40592333984375,9.930809463632107,-0.11412972559221088,0.33316275447625665
1772796792771915500,1.41591552734375,10.051611433529853,-0.45602680800296364,-0.17825780477281658
1772796792781907200,1.4259072265625,10.06083285086155,-0.6109430097527802,-0.1276423738444224
1772796792791899400,1.4358994140625,9.938675959223508,-0.5953207124028355,0.32481512430440634
1772796792801892600,1.445892578125,9.508719192826748,-0.5238902377869934,0.4923244848413393
1772796792811884300,1.45588427734375,8.802145040920376,0.13345876850560306,0.7116546700410544
1772796792821876500,1.46587646484375,8.100027868422865,0.2555895027890801,1.2112150609526782
1772796792831868400,1.475868408203125,6.992938733181357,-0.7035057773116976,1.224332755070552
1772796792841861400,1.485861328125,5.548774528858066,-2.1668451491609213,1.4057761676095426
1772796792851853300,1.495853271484375,4.179315729168057,-4.222584377530217,1.8888307563349604
1772796792861845500,1.505845458984375,2.496656656980514,-5.750481927073001,1.4491975223153828
1772796792871837400,1.51583740234375,-0.5403174217790365,-6.634697541952133,1.0163144932083785
1772796792881830400,1.525830322265625,-4.845217094424367,-6.757292825007438,-0.011949600186571478
1772796792891822300,1.535822265625,-8.885909950321912,-4.515366423638165,-3.5617034707844257
1772796792901814500,1.545814453125,-14.137311890411375,-0.14157704690098763,-7.442356571373343
1772796792911806500,1.555806396484375,-21.266636531591413,4.6014045386686915,-8.755863182216881
1772796792921798400,1.56579833984375,-27.879447235906124,8.47253548541367,-4.9625306376844645
1772796792931791400,1.575791259765625,-30.259919645917414,11.893837382817267,3.2986168902382254
1772796792941783600,1.585783447265625,-27.041836720335482,16.115108339661358,9.975630602133274
1772796792951775200,1.595775146484375,-20.67694513031244,16.024920119214055,10.539926865392923
1772796792961767400,1.605767333984375,-13.22112292816639,8.798961734709144,5.902699610453844
1772796792971760400,1.615760498046875,-11.733318319559096,0.3722157944373786,0.11278627509400248
1772796792981752300,1.62575244140625,-15.777024385797976,-5.1264089482426645,-4.332878105156124
1772796792991744500,1.63574462890625,-19.310133045738933,-8.581894854798913,-4.679372159968317
1772796793001736400,1.645736328125,-19.044242221426963,-8.517972125464677,-3.4670112169161436
1772796793011728600,1.655728759765625,-16.01950277034044,-6.757642953619361,-2.32074859367162
1772796793021721300,1.665721435546875,-12.786157978218792,-5.433151422902942,-1.6142529138289392
1772796793031713500,1.675713623046875,-9.045728756356239,-4.71637677949965,-0.5255873970936984
1772796793041705500,1.68570556640625,-4.188317366269231,-4.8465661709457635,1.2402923215508461
1772796793051697400,1.695697509765625,0.485149661308527,-5.062834009432792,2.1939796781934797
1772796793061690400,1.7056904296875,4.056902232420445,-4.7801826044559474,2.6224402146831154
1772796793071682600,1.7156826171875,6.476645745590329,-4.0712154199332,2.7833631825670597
1772796793081674200,1.72567431640625,8.553355573534965,-3.0180358617946506,2.4004858549922705
1772796793091666400,1.73566650390625,10.412277806079388,-1.8105986388802526,0.04116506367903203
1772796793101658400,1.745658447265625,9.918499432635306,-1.1442474109645933,-2.64537100841552
1772796793111651300,1.7556513671875,6.417904802808165,-0.30366693967245517,-2.926186137875914
1772796793121643300,1.765643310546875,3.0656624131053682,0.9783028155263512,-1.292481504601985
1772796793131635500,1.775635498046875,2.3058704657524824,2.28253912839517,0.363281304288283
1772796793141628000,1.7856279296875,4.6028211274683475,2.864919476008415,1.7538617293968797
1772796793151621000,1.79562109375,8.217706153342128,2.811336354380846,2.5618495523810387
1772796793161613000,1.805613037109375,11.129468629068135,2.838656615243852,2.690356982089579
1772796793171605000,1.81560498046875,12.888360461586712,2.897504817792773,2.3802485381275416
1772796793181597000,1.825596923828125,13.450669350421428,2.876040589481592,0.9361489965382963
1772796793191589000,1.835589111328125,12.781069130647182,2.7583453534275293,-1.290694913446158
1772796793201582000,1.84558203125,10.675166525965928,2.624793792071938,-2.7047929191991686
1772796793211574000,1.855573974609375,7.678682278504967,2.12378941289708,-2.5212322953104973
1772796793221566000,1.86556591796875,5.289771125972271,2.2727456102639434,-1.808536591783911
1772796793231558100,1.87555810546875,4.793521393978596,2.674354818576574,-0.9169192492809146
1772796793241550800,1.88555078125,5.605122439023852,2.5660648319885135,-0.15199381149709223
1772796793251543000,1.89554296875,6.529921408703923,2.221868824985623,0.026276523963734505
1772796793261535000,1.905534912109375,7.3490961038738485,1.7847918513201175,-0.19843115302324293
1772796793271527200,1.915527099609375,7.807334961903095,1.1770607893511653,-0.9003856823049485
1772796793281520000,1.92552001953125,7.830883010751008,0.815910140416026,-1.4589534849151968
1772796793291512000,1.935511962890625,7.83317375203669,0.9876982011854648,-0.8663314370118081
1772796793301504300,1.945504150390625,8.014319423738122,1.4299191136106848,0.7719777674481272
1772796793311496000,1.955495849609375,7.9370134812176225,1.8288392289698123,1.6551294063575566
1772796793321488100,1.965488037109375,6.741145992326736,2.111704715088755,0.0962285235248506
1772796793331481000,1.975481201171875,5.955407118290663,1.2546395574636757,0.7553527958616614
1772796793341473000,1.98547314453125,5.040537421950698,1.11663978452757,1.0245528908520936
1772796793351465000,1.99546484375,3.632898821470141,1.7189339161396027,-0.17427067136541008
1772796793361457200,2.00545703125,1.028731637841463,2.153561889217794,-0.7187792612239718
1772796793371449900,2.015449951171875,-1.2268325359970331,2.7640578858554363,0.3147529087670147
1772796793381442000,2.025442138671875,-3.499412726566195,3.0530080987155435,1.3603978336170315
1772796793391434000,2.03543408203125,-4.787597849148511,2.5931185508698222,2.0608900352612136
1772796793401426200,2.04542626953125,-5.251787140014767,1.428710322342813,2.533505793689191
1772796793411417900,2.05541796875,-4.990392458078265,0.31763445555269715,3.013748685994744
1772796793421411000,2.0654111328125,-4.618213926911354,-0.5802727078095078,1.8187293383657932
1772796793431403000,2.075403076171875,-5.765178560945391,-2.2034052397951482,0.7019852166809141
1772796793441395000,2.08539501953125,-8.83380683811903,-4.176638911174238,-0.08695932152867317
1772796793451387000,2.095386962890625,-13.491740196478366,-5.410092618876695,0.3819987181093544
1772796793461380000,2.105380126953125,-16.91981962519288,-4.506773659598827,0.7934514942400157
1772796793471372000,2.1153720703125,-17.556787156909703,-2.602824829109013,1.0389964998114853
1772796793481364000,2.125364013671875,-15.44607042994499,-3.2225331829890607,1.587971640624851
1772796793491356200,2.135356201171875,-12.224141350328921,-5.769393548291921,0.08051555221676826
1772796793501348000,2.14534814453125,-10.03587844234705,-8.385324819472432,-0.7874499888028949
1772796793511341000,2.155341064453125,-8.864586007264256,-8.260518874630332,-0.7471294496566057
1772796793521333000,2.1653330078125,-8.390642215102911,-6.359321096414328,0.25169191082865
1772796793531325200,2.1753251953125,-8.758998557633161,-4.14579749044776,2.577706462204456
1772796793541316900,2.18531689453125,-7.8987968555480235,-2.756723305183649,3.7649943387985227
1772796793551310000,2.19531005859375,-5.828573467013239,-2.461953300128877,3.9852354648306965
1772796793561302000,2.205302001953125,-3.2996646457254886,-0.6078548344790935,3.0579189593717455
1772796793571294000,2.2152939453125,-1.5305489408344028,0.3145926036387682,1.588316508539766
1772796793581286000,2.225285888671875,-0.022328736186027525,0.8595821088820695,0.3329679625565186
1772796793591279000,2.235279052734375,1.0221294630974531,1.3470951383210719,-0.29579467192739245
1772796793601271000,2.24527099609375,1.1796452528864145,1.1102201267436147,-0.5440867842499166
1772796793611263000,2.255262939453125,-0.4390110104680061,1.669309176748991,-0.8063888633549213
1772796793621255000,2.2652548828125,-6.1843982447505,1.5838669817849993,-3.399859880924225
1772796793631247000,2.2752470703125,-0.6664683514893055,0.7812289223309606,-1.5791380535669624
1772796793641240000,2.285239990234375,1.9804829118549823,1.3987503606259821,-1.132509261571616
1772796793651232000,2.29523193359375,-0.563390254330635,0.7512472602389753,-1.1199502242498098
1772796793661224200,2.30522412109375,2.7002012074947355,0.5583452459007501,0.06694193102493881
1772796793671216000,2.315216064453125,4.945799867635965,0.4372144824400544,-0.3425400199567899
1772796793681209000,2.325208984375,8.379568447902798,0.08653013633117079,-0.06511968403384089
1772796793691201000,2.335200927734375,10.876579909670353,0.28765841948390003,1.1194948816977441
1772796793701193200,2.345193115234375,12.20981822594404,0.7147760169319808,1.970262108222395
1772796793711185000,2.355184814453125,12.807643833839892,1.2555391366519033,3.068542352455854
1772796793721177000,2.365177001953125,12.456836007481813,1.63338606884405,2.2464283889636394
1772796793731170000,2.375170166015625,9.888713366180658,1.2786683755658566,-1.6500664238795637
1772796793741162000,2.385161865234375,8.540388539934158,0.4511586905099451,-2.8396494256734846
1772796793751154000,2.39515380859375,8.63820243295431,0.7457081846818328,-0.607840075301379
1772796793761146000,2.40514599609375,8.448036419451237,1.3288001876957714,-1.028245754020661
1772796793771139000,2.41513916015625,9.046839932468533,1.1346605943866073,-2.3587857711210845
1772796793781131000,2.425131103515625,9.583783493900299,1.2933730466142297,-3.088651366765797
1772796793791123200,2.435123291015625,11.039196237468719,1.545164180033654,-1.944884067468345
1772796793801115100,2.445115234375,10.117503417110443,1.6379266348831354,-0.4306987073378637
1772796793811106800,2.45510693359375,9.164424693885445,2.466424015802145,-0.6647193158648907
1772796793821100000,2.46510009765625,10.009784216147661,2.7566584232538935,-0.5423711029058322
1772796793831092200,2.47509228515625,9.472578788909315,2.9669138695836064,0.33016415718216446
1772796793841084000,2.485083984375,7.680828642883896,2.929363014346361,1.6590984561190008
1772796793851076000,2.495076171875,7.277373514443635,2.7765970494329926,2.628077051526308
1772796793861069000,2.505069091796875,7.700282115894556,2.5504779712781307,1.7116095646008849
1772796793871061000,2.51506103515625,7.482392229163646,1.8652394528672098,0.0033424422957003116
1772796793881053000,2.525052978515625,7.189698738121986,1.6403541542910038,-1.3769497399672865
1772796793891045000,2.535045166015625,6.6286226059526205,1.539875572106242,-2.2973417068600654
1772796793901037000,2.545037109375,6.063782737335562,0.47694122041165826,-2.175241806106269
1772796793911030000,2.555030029296875,3.7154941025704145,-1.7906135432109236,-0.7192677023280412
1772796793921022000,2.56502197265625,-1.5919219856858253,-4.0418034474879505,1.01562665707469
1772796793931014100,2.57501416015625,-4.814544892784953,-3.8586739084929227,0.2852384988605976
1772796793941005800,2.585005859375,-6.512616638159751,-2.663604876503348,2.574522863732278
1772796793950999000,2.5949990234375,-9.7147953076452,-2.4214012172490356,4.242126405607164
1772796793960991200,2.6049912109375,-14.45976572894454,-1.9956077080115675,1.3471682035572825
1772796793970983000,2.61498291015625,-18.39017508634925,-0.4105215596951544,-2.463438570250571
1772796793980975000,2.62497509765625,-19.266099842745064,2.3292634701691566,5.1310938911885025
1772796793990967000,2.634967041015625,-19.534197821712493,5.726809959584474,9.662017072659731
1772796794000960000,2.6449599609375,-20.874485471975802,4.879067341578007,7.053444347548484
1772796794010952000,2.654951904296875,-21.999262239599226,0.9788394796863198,3.3356501513421533
1772796794020944100,2.664944091796875,-21.73841116302013,-1.597299002549052,3.5564515416055915
1772796794030936000,2.67493603515625,-21.04786167871952,-1.550135100314021,4.210506109462679
1772796794040929000,2.684928955078125,-20.253225212478636,-1.1749402900658548,4.5795875513970845
1772796794050921000,2.6949208984375,-18.191258780157565,-2.1094376469396052,3.002124299174547
1772796794060913200,2.7049130859375,-14.810787490314244,-1.9695763179153203,-0.20663141061365603
1772796794070905000,2.714905029296875,-10.293030664408207,-1.0368116300530732,-2.3066822205267847
1772796794080897000,2.72489697265625,-6.223384685748815,-0.7003726669177412,-0.9675593762591481
1772796794090890000,2.734889892578125,-3.1382039177030325,0.22444310776665805,0.5756093921735882
1772796794100882200,2.744882080078125,-1.7768904305458069,1.3337874745890497,0.7063182774491608
1772796794110873900,2.754873779296875,-2.6370108840882778,1.8786831640690564,-0.0907778569035232
1772796794120866000,2.764865966796875,-3.611182664224505,1.6570324634999036,-0.7702721325740217
1772796794130859300,2.774859375,-2.7732711198806763,1.038576666964218,-1.7856727258078753
1772796794140851000,2.784850830078125,0.1824766280442476,0.5994515285972506,-2.067547447323799
1772796794150843000,2.7948427734375,3.960746628001332,0.08050835529100149,-2.1029867172345518
1772796794160835000,2.8048349609375,7.047770978087186,-0.7386731714785099,-2.5453800636172295
1772796794170827000,2.814826904296875,9.682538467162846,-1.6394423001430927,-2.315856145454943
1772796794180820000,2.824820068359375,11.511349639081955,-2.328243333341181,-1.448986509913206
1772796794190812000,2.83481201171875,12.374379842591285,-2.6828566894620653,-0.45456732990965243
1772796794200804000,2.84480419921875,12.633561524653434,-2.28695446061939,-0.16570041141882538
1772796794210795800,2.854795654296875,13.629766857421398,-1.416827138455957,-0.09608414661809801
1772796794220789000,2.8647890625,13.069518992769718,-0.2796798052875325,-1.2120792035013437
1772796794230781000,2.874781005859375,10.877718558311463,1.1308735501285643,-1.7087559287354348
1772796794240772900,2.88477294921875,8.473256785425543,1.7441195030614733,-1.5643404435381292
1772796794250764800,2.894764892578125,6.171041919571161,2.1461849307090044,-1.3469681509405373
1772796794260757000,2.904757080078125,5.874126426920294,2.4990175408929587,-1.1636132787570357
1772796794270749700,2.914749755859375,7.1500342517316335,2.64786077940464,-1.1715822118096053
1772796794280742000,2.924741943359375,9.025167029842734,2.3684283364742993,-0.8055825884733349
1772796794290733800,2.93473388671875,10.396790314090252,2.4013024320721623,-0.705059947951138
1772796794300726000,2.94472607421875,10.002668246662616,2.479240242755413,-0.8625573253005743
1772796794310719000,2.954718994140625,8.804871835535764,2.660542858584225,-0.9542873683623969
1772796794320711000,2.9647109375,9.898457346081733,2.92733238530159,-0.43945568549558517
1772796794330703000,2.974703125,9.778809222394228,3.1822210463449356,-0.9012811698399483
1772796794340694800,2.98469482421875,8.986572218510508,3.2675340619713067,-1.5359589831843972
1772796794350687000,2.99468701171875,9.096555272752045,3.076818013370037,-1.5546962707497178
1772796794360680000,3.004679931640625,8.68809196076095,2.9263185320839282,-1.2276100962407885
1772796794370671900,3.014671875,7.265330609950423,2.6295196515500545,-1.1508052351102231
1772796794380663800,3.024663818359375,5.946220187750458,1.89372700394392,-1.3190171909585595
1772796794390656000,3.034656005859375,5.686989990371465,1.6732845101207494,-0.8355015605926513
1772796794400649000,3.04464892578125,5.083459448832273,1.3868959644421934,-0.23024477978274224
1772796794410641000,3.054640869140625,2.9007991831630466,-0.3244590408757329,0.41757308564186096
1772796794420632800,3.0646328125,0.271438521566987,-3.0867624842792747,0.9572764671757816
1772796794430625000,3.074625,-2.159184697535634,-5.598271257954836,0.9468108950018882
1772796794440617700,3.08461767578125,-4.134489914491772,-6.688744773960113,0.3282604789853096
1772796794450610000,3.09460986328125,-5.582068311172724,-6.159676475948095,0.1263002750530839
1772796794460601900,3.104601806640625,-7.209781741207838,-4.564852046819031,0.6699912649184465
1772796794470594000,3.114593994140625,-10.548155764555931,-4.18389779626131,1.4313726734198629
1772796794480585700,3.124585693359375,-14.35931447315812,-5.604150379121303,1.9848935679040849
1772796794490579000,3.134578857421875,-15.768600256323813,-5.565682993561029,3.8700124641090627
1772796794500571100,3.144571044921875,-15.03995046620965,-4.196861030469835,5.164250895380974
1772796794510562800,3.154562744140625,-13.858548725044727,-5.868638350898027,4.362168789309263
1772796794520555000,3.164554931640625,-12.0053793569386,-8.475630528819561,2.405519757506251
1772796794530548000,3.1745478515625,-9.397515072357654,-7.917813106185197,1.0160146334789693
1772796794540540000,3.184539794921875,-6.885055866089463,-6.372600264704227,0.21734160519838333
1772796794550531800,3.19453173828125,-6.741444683012366,-5.452596128085255,-0.670806234563142
1772796794560524000,3.20452392578125,-8.224706387493013,-4.5325662725031375,-0.7968504890285432
1772796794570516000,3.214515869140625,-8.548936588048935,-3.065918725953996,-0.24528935030996799
1772796794580509000,3.224509033203125,-7.465839738291502,-1.5344874493271112,-0.7300469435609876
1772796794590500900,3.2345009765625,-4.417600753673911,-0.2813359384641051,-1.5640383918516336
1772796794600493000,3.2444931640625,-0.35142741956114765,0.8283399984002113,-2.036047270427644
1772796794610484700,3.254484619140625,1.9836101039648055,1.9577499787822366,-2.09214047518
1772796794620477000,3.264476806640625,2.9610201353698966,2.9786469774752855,-1.3398599263705313
1772796794630470000,3.274469970703125,2.5862311294436453,3.2534979378342626,-0.4375990978434682
1772796794640461800,3.2844619140625,1.1752046400904654,3.2830180468291044,-0.07836253890134394
1772796794650453800,3.294453857421875,-0.03190963447988033,3.267231279632449,-0.1918912298604846
1772796794660446000,3.304446044921875,-0.3688450028300285,2.6973113312721253,-0.1851429977092892
1772796794670439000,3.31443896484375,0.3924608562171459,1.7461505704976616,0.0897362388961017
1772796794680430800,3.324430908203125,2.1486597963899374,0.8729007323995233,0.18558087766990064
1772796794690423000,3.334423095703125,4.591821594548225,0.647710021135956,-0.18696765585318206
1772796794700415000,3.3444150390625,7.0616241468727585,0.7510526144497096,-0.7553064725019037
1772796794710407000,3.354406982421875,9.122277743029594,0.6495512650884687,-1.0140124998763203
1772796794720400000,3.36439990234375,10.335163002216815,0.48417628623172637,-0.7307982003197073
1772796794730392000,3.37439208984375,10.336680421042441,0.5609926916696131,-0.38740609357822686
1772796794740383700,3.3843837890625,9.48223041435182,0.9284272431798278,-0.07305902566574514
1772796794750376000,3.3943759765625,8.260725795379281,1.1196784215711058,0.05644501386471092
1772796794760369000,3.404368896484375,7.173638999202847,1.1142648720897734,0.07341536482274531
1772796794770360800,3.41436083984375,6.389394747638702,1.1026054139561952,0.10215130116995423
1772796794780352800,3.424352783203125,5.724306452330946,1.1989100714571774,0.25636406735815104
1772796794790345000,3.434344970703125,5.524266110545397,1.6929491416640579,0.2695669555414468
1772796794800337000,3.4443369140625,4.948719554474949,2.2423298676036296,-0.028393808378651738
1772796794810329900,3.454329833984375,4.736352815079688,2.510207043427229,-0.02482004154510796
1772796794820321800,3.46432177734375,6.013852877518534,2.6257763733685016,-0.07950630210898817
1772796794830314000,3.47431396484375,7.312644734311103,2.999869505985081,0.03502433243431151
1772796794840306000,3.484305908203125,8.351468142578005,3.1723467180624603,0.17306290301084518
1772796794850299000,3.494298828125,9.134326492741703,3.160472448134422,0.192429939847067
1772796794860291000,3.504291015625,9.445645189276338,2.9139257912397385,-0.028519407519698142
1772796794870283000,3.514282958984375,9.028384822845458,2.735441155441105,-0.39783633871041235
1772796794880275000,3.52427490234375,7.845120210418105,2.76827550355047,-0.41017954132445156
1772796794890268000,3.534267822265625,6.122071844696999,2.549014036205411,0.26497531690225
1772796794900260000,3.544260009765625,4.299044516876339,1.6354636057704686,1.1026828631065786
1772796794910251800,3.554251708984375,2.9722575686991215,-0.039131694687902924,1.470521757633984
1772796794920244000,3.564243896484375,1.405280054655671,-2.5410487564146518,1.6404802648887038
1772796794930236000,3.57423583984375,-0.7218950551569462,-5.456785396468639,0.7339299224741757
1772796794940228900,3.584228759765625,-1.7429682871997356,-7.029753675359487,-0.2356161706227809
1772796794950220800,3.594220703125,-2.7799826002180574,-6.091636958944797,-0.09226144652478396
1772796794960213000,3.604212890625,-6.560957767480612,-5.012430686885118,0.006214490600675344
1772796794970205000,3.614204833984375,-14.322228897345065,-4.979760004904866,-0.17246574083529412
1772796794980198000,3.624197998046875,-23.21404134970903,-4.978344877409935,0.6648309595458209
1772796794990190000,3.634190185546875,-27.602933310770986,-2.919028959597647,2.6927769027128816
1772796795000182000,3.64418212890625,-27.372421258354187,-1.560064081393182,3.8983550537571308
1772796795010173700,3.654173583984375,-24.695077194833754,-3.1901167680308222,4.209596008880436
1772796795020166000,3.664165771484375,-21.67957552769184,-4.228195495410263,3.412250868202746
1772796795030159000,3.6741591796875,-19.57485950244665,-3.760720899263024,1.7771198553875087
1772796795040150800,3.68415087890625,-17.154952907669543,-3.695176121684909,0.8901422284491359
1772796795050143000,3.69414306640625,-14.103012145924568,-3.9914983246177433,0.9037140960752964
1772796795060135000,3.704135009765625,-10.960201611208914,-4.164322450436652,0.6157567667100579
1772796795070127900,3.7141279296875,-7.476456409373879,-3.7982889978960155,-0.7444082079991697
1772796795080119800,3.724119873046875,-3.618811259406805,-2.905291526146233,-1.8541244768738745
1772796795090112000,3.734112060546875,0.20856442450284957,-1.81319625415802,-2.1592525020748377
1772796795100104000,3.74410400390625,2.7241584216654298,-0.7053063239276409,-2.319655537737906
1772796795110096000,3.754095947265625,4.126578410714864,0.10865034433305262,-2.4845222748115656
1772796795120088800,3.7640888671875,5.426918665993213,0.6476743653006851,-2.362107755150646
1772796795130081000,3.7740810546875,5.869549620524048,1.0516554173111914,-1.8905727776966987
1772796795140072700,3.78407275390625,5.088534267878532,1.713266538027674,-1.399708976525068
1772796795150064000,3.794064208984375,3.657698331683874,2.18437364545837,-1.0137769375547767
1772796795160056300,3.804056396484375,2.878260603618622,1.8726155345931648,-0.5698764745447784
1772796795170049500,3.814049560546875,3.1473423329263923,1.5287038974896072,0.004938260119780898
1772796795180041200,3.824041259765625,4.0011201394438745,1.40981360643208,0.389629066857323
1772796795190033400,3.834033447265625,5.366623479506373,1.28442050935179,0.44344059041328726
1772796795200025300,3.844025390625,6.896643428030609,1.1298885576792062,0.10678681548349558
1772796795210018300,3.854018310546875,8.114402430734037,1.1920580136053263,-0.5040840788811445
1772796795220010200,3.86401025390625,9.131994250401855,1.3996774123430251,-0.9527557748809456
1772796795230002400,3.87400244140625,10.04007297142744,1.6014356639623641,-1.316691232229024
1772796795239994400,3.883994384765625,10.606744731646776,1.752620789425075,-1.3621569522440433
1772796795249986300,3.893986328125,10.705979012858867,2.048051011954248,-1.070633820156008
1772796795259979300,3.903979248046875,10.691003562045097,2.527616443389654,-0.83445029797405
1772796795269971500,3.913971435546875,10.537609820622205,2.856935491517186,-0.7786749269992113
1772796795279963100,3.923963134765625,9.957896208000182,2.9823797342628238,-1.0319926854640245
1772796795289955300,3.933955322265625,9.323940133059024,3.0598622023940085,-1.2109241151820866
1772796795299948300,3.9439482421875,9.026769788864254,3.27218977882266,-1.2956167338877915
1772796795309940200,3.953940185546875,8.827721380725503,3.6338998152062296,-1.4464358025170863
1772796795319932200,3.96393212890625,8.57941765103042,3.8331285483479496,-1.2659200992822646
1772796795329924400,3.97392431640625,8.295898231047392,3.91392057941854,-0.7692625902052969
1772796795339916300,3.983916259765625,7.913214672479033,3.8991748457074165,-0.343914559713006
1772796795349909200,3.9939091796875,7.6143416160196065,3.5765707850486037,-0.03830101601742208
1772796795359901400,4.0039013671875,7.4920023535519835,3.0106948513820764,0.20915011543631554
1772796795369893400,4.013893310546875,7.314923200637102,2.789299002356827,0.29927725334614513
1772796795379885300,4.02388525390625,7.177220364820957,2.828812974360585,0.2797400475747883
1772796795389878300,4.033878173828125,6.765335261687636,2.712607100081444,0.02347498361170292
1772796795399870500,4.043870361328125,5.80412116280198,2.3937059855937957,-0.4700684120327234
1772796795409862400,4.0538623046875,4.066173918634653,1.670739501813054,-0.5075280818551778
1772796795419854300,4.063854248046875,1.6569295876473187,0.15120792181640863,-0.17972016894295811
1772796795429846300,4.07384619140625,-1.1886480590313673,-1.555249082326889,-0.004893544195219874
1772796795439839500,4.083839599609375,-4.7950662853330375,-2.99640212213546,0.33145204156823455
1772796795449831200,4.0938310546875,-8.640546950253844,-4.627418100847303,1.685890601454675
1772796795459823400,4.1038232421875,-12.338483184301852,-6.668964553213119,2.912538428534567
1772796795469815300,4.113815185546875,-15.766432849156855,-7.434153391173481,2.419472002752125
1772796795479808300,4.123808349609375,-18.33600978091955,-6.366214947581291,0.5943121198821812
1772796795489800200,4.13380029296875,-19.417868613314628,-4.906096802800893,0.19424542830381542
1772796795499792400,4.14379248046875,-18.05728753208518,-5.554670601159334,1.4082808439068495
1772796795509784300,4.153784423828125,-15.759312203496693,-7.065268056333065,2.5144185236424206
1772796795519776300,4.1637763671875,-15.205623843491077,-7.212987843772768,1.9614204839885234
1772796795529769500,4.17376953125,-15.917212608689068,-6.769992732104659,1.4689944019362329
1772796795539761400,4.183761474609375,-17.32016217457056,-6.028598611229658,1.4897069350972771
1772796795549753300,4.19375341796875,-18.961691363990305,-4.367125534933805,1.3806177609555423
1772796795559745300,4.203745361328125,-19.987798498547075,-2.724438115389645,1.3903138100616632
1772796795569738500,4.213738525390625,-18.496894754880664,-1.9885173113591967,1.823235709874332
1772796795579730200,4.223730224609375,-13.752530482780932,-2.0569778302535413,2.15779835774377
1772796795589722400,4.233722412109375,-8.420303193873167,-1.2530413284868,1.8450037434376776
1772796795599714300,4.24371435546875,-3.9125048674017187,-0.28591669038310646,1.634333578827232
1772796795609706500,4.25370654296875,0.13516601081490515,0.041916356970369814,1.7778259578302502
1772796795619699200,4.26369921875,3.3239643897235394,0.3322413653150201,1.312090460435301
1772796795629691400,4.27369140625,5.585489517793059,0.9393921431779861,0.42753450768589973
1772796795639683300,4.283683349609375,6.495525218105316,1.7241979741476474,-0.4500764482311904
1772796795649675300,4.29367529296875,6.6343403990775345,2.4149802442908284,-0.791113625876978
1772796795659668500,4.30366845703125,6.643769906201959,2.5124656360089777,-0.3974495313499123
1772796795669660400,4.313660400390625,7.025057041975855,1.8847972630351781,0.32068441770784556
1772796795679652000,4.323652099609375,8.292533138528466,1.0264994948752224,0.8459059040986001
1772796795689644300,4.333644287109375,10.366415049570799,0.41891193303018803,0.7757462531361728
1772796795699636200,4.34363623046875,12.520573443377017,0.13702932046875357,0.16627996487244961
1772796795709629200,4.353629150390625,14.154206911110878,0.2093633197955787,-0.5384830824913457
1772796795719621400,4.363621337890625,14.87006853132248,0.5941800910003483,-0.8596386613748968
1772796795729613300,4.37361328125,14.594505038779973,0.9880749255433678,-1.0259525285169482
1772796795739605500,4.38360546875,13.698480912685394,1.1065455298840998,-1.2107570880521088
1772796795749598200,4.39359814453125,12.392196069788932,1.1471126642026006,-1.205272299965471
1772796795759590400,4.40359033203125,11.084618264472484,1.2523277733899651,-1.182304681354016
1772796795769582300,4.413582275390625,10.014924501645565,1.2885261911049484,-1.1247628121633082
1772796795779574300,4.42357421875,9.44719008063078,1.525890301373601,-0.9544071953497827
1772796795789566200,4.433566162109375,9.150833390906453,1.95731450997442,-0.8817134227998554
1772796795799559400,4.443559326171875,8.87671834360659,2.286032231207937,-0.9274471461012959
1772796795809551400,4.45355126953125,8.872310464036465,2.603076173521578,-0.9477207763884216
1772796795819543300,4.463543212890625,9.011371144202352,2.767607102769613,-0.8596042476486414
1772796795829535200,4.47353515625,9.088484194499253,2.81848067317754,-0.6283201879460364
1772796795839528400,4.483528564453125,8.892623768746853,2.92203544793725,-0.38169155185632403
1772796795849520400,4.493520263671875,8.644161049097775,2.8946146493092177,-0.34053668077774346
1772796795859512300,4.50351220703125,7.916246587520837,2.8073844018846748,-0.35429245360344647
1772796795869504300,4.513504150390625,6.712037386742234,2.545999656820297,-0.2022019037336111
1772796795879496400,4.523496337890625,6.1383706530690185,2.4212635623440146,-0.05504230745993554
1772796795889489400,4.533489501953125,5.388190583670139,2.6226094337701795,0.020772519719973206
1772796795899481300,4.5434814453125,3.9243519570618868,2.1677708857037126,0.2397895107846707
1772796795909473500,4.5534736328125,2.117835619059205,0.9897164091400802,0.5813256874611601
1772796795919465200,4.56346533203125,-0.09379998120367526,-0.8002889390446245,0.8946852787062525
1772796795929457400,4.57345751953125,-2.296178508299589,-2.869287023568153,1.0739562425769864
1772796795939450400,4.583450439453125,-3.6115351309239863,-3.6601913175433873,1.4405389995634554
1772796795949442300,4.5934423828125,-5.213562331038713,-2.812257560878992,1.873924279104173
1772796795959434200,4.603434326171875,-8.104390739807487,-1.5832959038987755,1.3904586253598332
1772796795969426400,4.613426513671875,-13.322853117847442,-1.5556168927259741,0.8631531723018735
1772796795979419100,4.623419189453125,-18.99244072251916,-2.2836698859907685,0.3061427552014589
1772796795989411300,4.633411376953125,-21.716292854714393,-1.6197542877241968,0.7776824088305234
1772796795999403300,4.6434033203125,-21.056671592640875,-1.5138208011344074,1.2631168784298001
1772796796009395500,4.6533955078125,-18.169769417405128,-3.1413895620018244,1.0275465197101235
1772796796019388400,4.663388427734375,-14.488758014672994,-5.206731023713946,-0.4386382316328585
1772796796029380400,4.67338037109375,-11.765513785243034,-6.450215419304371,-2.6435019996732474
1772796796039372500,4.68337255859375,-13.016972812974453,-5.46027090049684,-2.138055692528188
1772796796049364200,4.6933642578125,-19.24207248594761,-2.8656384379327298,0.47959568044319745
1772796796059356200,4.703356201171875,-25.079063652694224,-2.437585459330678,1.4329144960343836
1772796796069349400,4.713349365234375,-25.812643300426004,-2.5775842971295115,1.5516035654313862
1772796796079341300,4.72334130859375,-22.58532960516214,-1.4985757395990191,1.464289000724256
1772796796089333200,4.733333251953125,-17.518649441695214,-1.1470641488857567,0.9866963306665419
1772796796099325400,4.743325439453125,-11.710848129075766,-0.938459830763936,0.464586911881715
1772796796109318100,4.753318115234375,-5.39921174390018,-0.9355040496982634,0.0069336717206984755
1772796796119310300,4.763310302734375,1.2226111189097166,-1.3781038784384727,-0.6107271019797772
1772796796129302300,4.77330224609375,6.527434268063306,-1.4231214162945747,-1.3602275916166602
1772796796139294500,4.78329443359375,9.810154793250561,-0.780335261426866,-1.8609464318484066
1772796796149286700,4.79328662109375,11.449402009212971,0.2905284219622612,-1.8652913291849196
1772796796159279600,4.803279541015625,11.391166093343495,1.52269808120355,-1.805365560532361
1772796796169271800,4.813271728515625,9.902679932212829,2.6193326040565967,-1.546660702201724
1772796796179263500,4.823263427734375,8.136733505007625,3.022179245209694,-1.08192510256432
1772796796189255700,4.833255615234375,7.230503626719117,3.0150910405144096,-0.9101610071923584
1772796796199247600,4.84324755859375,7.642787958303093,2.752882996368408,-0.954587885678932
1772796796209240600,4.853240478515625,9.095026163488626,2.3248110208049417,-0.9225929110031574
1772796796219232500,4.863232421875,10.807835459268093,1.935055331893265,-1.0389748725015668
1772796796229224700,4.873224609375,12.366862891089916,1.6911694186404347,-1.06093462924473
1772796796239216600,4.883216552734375,13.521467810744046,1.8808505712360142,-1.0978841575879603
1772796796249209600,4.893209716796875,14.227452180063723,2.3293717528492213,-1.0497953955929726
1772796796259201800,4.903201904296875,13.915581694865226,2.8229966892972587,-0.9538783491700887
1772796796269193700,4.91319384765625,12.914556394594907,3.0436174622967838,-0.9388033835045992
1772796796279185700,4.923185546875,11.690652897787093,3.051490972150862,-1.1079670871198177
1772796796289177600,4.933177490234375,10.351284115934371,2.963530364625156,-1.3066036995872854
1772796796299170800,4.9431708984375,9.480368712133169,3.0343042750284073,-1.3262287297725677
1772796796309162500,4.95316259765625,9.071672175908088,3.3207886822968717,-1.3084423131912946
1772796796319154700,4.96315478515625,8.870812918955087,3.5293624591499566,-1.28513800997138
1772796796329146600,4.973146728515625,8.747648311579226,3.6522482495844364,-1.0527467927444725
1772796796339139600,4.9831396484375,8.603620948916673,3.6617554981201885,-0.6070501670327038
1772796796349131500,4.993131591796875,8.472563542464375,3.5072359675377607,-0.22635171786695718
1772796796359123700,5.003123779296875,8.291539451315998,3.3586373514369128,0.0036334611315280195
1772796796369115600,5.01311572265625,7.898386521181464,3.0864637935936448,0.44993141373731194
1772796796379107800,5.02310791015625,7.224727381405234,2.7472312542170285,0.9249437119130045
1772796796389100500,5.0331005859375,6.562859801709652,2.427461540201306,0.7393044551193714
1772796796399092700,5.0430927734375,5.931273963031172,2.136784649679065,0.08648841608129441
1772796796409084700,5.053084716796875,5.133430225181579,1.4037237651243806,-0.3991363884583115
1772796796419076600,5.06307666015625,3.5551299376130103,0.2679831204161048,-0.3444835187073797
1772796796429069800,5.07306982421875,1.0195458763450385,-0.9447735439553856,-0.22234416272602975
1772796796439061800,5.083061767578125,-2.1266659912467003,-1.7601345260560513,-0.6763189335700124
1772796796449053700,5.0930537109375,-5.110082082819939,-1.9501687298730015,-0.8374770984493195
1772796796459045600,5.103045654296875,-7.471013341537118,-2.142728360514343,-0.34920543266274034
1772796796469037800,5.113037841796875,-9.9587566242218,-2.468186057038605,0.4956436923919245
1772796796479030500,5.123030517578125,-13.805871612346172,-2.7875726169556376,1.6105257099993526
1772796796489022700,5.133022705078125,-17.99633592751622,-2.694847571507096,1.8139007491655648
1772796796499014700,5.1430146484375,-19.185663785505294,-2.0884768381059167,1.0429784090545027
1772796796509006800,5.1530068359375,-17.00184441292882,-3.2061455272898076,0.9132633571218699
1772796796518998500,5.16299853515625,-13.187393677043914,-5.166479092824459,1.0983836315426976
1772796796528991700,5.17299169921875,-10.925769764775037,-6.514505812907219,0.2097312763251364
1772796796538983700,5.182983642578125,-13.187594752573967,-6.305412396094202,0.4050884287305176
1772796796548975600,5.1929755859375,-19.80727242004871,-4.069860498192906,2.283343576645851
1772796796558967600,5.202967529296875,-26.752026091253757,-2.2841211368896066,4.102268729844689
1772796796568960800,5.212960693359375,-28.232395581424235,-1.748376722114533,5.401685440537333
1772796796578952400,5.222952392578125,-24.95023269011974,-1.2337849854834377,5.140545025622845
1772796796588944600,5.232944580078125,-19.46775171138048,-1.4108552244395016,3.4509520625188945
1772796796598936600,5.2429365234375,-12.997522262573241,-1.595446214289218,2.3599897400833667
1772796796608928800,5.2529287109375,-6.524029428055882,-1.3198523266084492,1.6892489719718693
1772796796618921700,5.262921630859375,-0.44661330216526984,-1.0055546142630278,1.0326682466380297
1772796796628913700,5.27291357421875,4.475740807953477,-0.44851767448186874,0.6196305394034832
1772796796638905900,5.28290576171875,7.591036143755912,0.1770170474641025,-0.18619477178454397
1772796796648897500,5.2928974609375,8.712582843416929,1.2073007370531559,-0.801295558803901
1772796796658890800,5.302890869140625,8.639183845207095,2.1292969242721793,-0.8051271728560327
1772796796668882700,5.312882568359375,7.894325263091921,2.521728554394841,-0.9387806602161377
1772796796678874600,5.32287451171875,7.103302311173081,2.825463663932681,-0.9340358037766069
1772796796688866600,5.332866455078125,6.938003027901053,2.912842964439094,-0.7606676342088728
1772796796698858800,5.342858642578125,7.690871313470602,2.45240834993124,-0.7588008904889225
1772796796708851500,5.3528515625,9.246982565584778,1.8858046865120528,-1.1136742857854813
1772796796718843600,5.36284375,10.969840377169847,1.5277379750669002,-1.586357337296009
1772796796728835600,5.372835693359375,12.422988682937621,0.9887688991568983,-1.7605764246046542
1772796796738827800,5.382827880859375,13.511488853043318,0.5842942184105515,-1.8384511069238185
1772796796748820500,5.392820556640625,13.881508744871615,0.5672393309742212,-2.0048681421793995
1772796796758812700,5.402812744140625,13.46761580904722,0.6908779856026173,-2.0022490457221864
1772796796768804600,5.4128046875,12.502611085706949,0.8232432597830891,-2.02748490152657
1772796796778796800,5.422796875,11.216149718177318,1.002929672586918,-2.1250091639503834
1772796796788788500,5.43278857421875,9.827792156749963,1.1899060962684451,-2.179329075419903
1772796796798781700,5.44278173828125,8.649056419923902,1.478141146596521,-2.1521366787202654
1772796796808773600,5.452773681640625,7.889470808798074,1.8451356992542742,-1.9793223436430096
1772796796818765600,5.462765625,7.60810476745665,2.220586091698706,-1.5372241808146236
1772796796828757800,5.4727578125,7.687621371763944,2.402131868633628,-0.9109070032540708
1772796796838750700,5.482750732421875,8.252845855784416,2.4778622324004766,-0.39164311009347436
1772796796848742700,5.49274267578125,8.80698429764509,2.470800915712118,0.04850764499418437
1772796796858734600,5.502734619140625,8.761414386603235,2.337492953854054,0.4170779225360602
1772796796868726800,5.512726806640625,8.304115439772605,2.168724533166736,0.6756708449248224
1772796796878718700,5.52271875,7.405930920773744,2.0599628374136985,0.981741046346724
1772796796888711700,5.532711669921875,6.11541063324213,1.8743183929882943,1.268659899509698
1772796796898703600,5.54270361328125,4.818088849002122,1.7377017449736594,1.1684073081005364
1772796796908695800,5.55269580078125,3.203601395764947,1.7039651873275636,0.8033142782151699
1772796796918687500,5.5626875,0.7660597755759954,1.2926190133765338,0.5730986149290577
1772796796928680700,5.5726806640625,-2.6332594226002692,0.089766487903893,0.8430128130055964
1772796796938672600,5.582672607421875,-6.560051174029708,-2.216381187354773,1.4921797549515963
1772796796948664600,5.59266455078125,-10.173944850778579,-4.790936053660512,1.411281633158028
1772796796958656500,5.602656494140625,-12.32453649201393,-6.7573571224153035,0.07083099261904136
1772796796968648700,5.612648681640625,-12.662280254137515,-7.643792166909575,-1.9207145257212221
1772796796978641700,5.6226416015625,-12.549107463943958,-6.9742965765535825,-2.9500428142815824
1772796796988633600,5.632633544921875,-13.94619661335945,-6.692992494532466,-3.4543776530534025
1772796796998625800,5.642625732421875,-15.69777256990671,-7.318901456618309,-2.4362954195201394
1772796797008617700,5.65261767578125,-13.161436228966712,-6.4208303348660465,0.3501543308854103
1772796797018609700,5.662609619140625,-9.592982114878296,-6.957346610796451,1.6213023939490316
1772796797028602600,5.6726025390625,-7.159299508205056,-7.217936990612745,-0.6983777667734772
1772796797038594800,5.6825947265625,-9.588606384012103,-4.499751798138022,-3.4403345146536823
1772796797048586500,5.69258642578125,-17.137786668813227,0.020187778634577987,-2.346322449258715
1772796797058578700,5.70257861328125,-23.378191462945935,2.212742392461002,0.7447733149845153
1772796797068571600,5.712571533203125,-24.61688687069416,0.9174091516897082,3.916799934247136
1772796797078563600,5.7225634765625,-19.89510034110546,-0.426129609324038,5.779793361753225
1772796797088555500,5.732555419921875,-12.22378829910755,-0.2111772373497486,5.192647553303837
1772796797098547700,5.742547607421875,-5.600758983117342,0.017420359747856853,3.476344570189714
1772796797108539600,5.75253955078125,-0.8642062615513801,0.009378215328603983,2.339811459929496
1772796797118532600,5.76253271484375,1.9656880783051252,0.2788875223986804,1.6461130100786685
1772796797128524500,5.772524658203125,3.3262294120460747,0.6917879400543868,0.6367590035326779
1772796797138516700,5.782516845703125,4.16386798466742,1.110990380463749,-0.3682332641398534
1772796797148508700,5.7925087890625,4.990424022260308,1.4477226274572312,-0.9356041490718722
1772796797158501600,5.802501708984375,5.495331107962131,1.5769272456496952,-0.8364397912908345
1772796797168493800,5.812493896484375,6.04912818903923,1.5222680192232132,-0.4291565193971619
1772796797178485500,5.822485595703125,6.893240341588855,1.2875361571542918,-0.16380776607263833
1772796797188477700,5.832477783203125,8.163402316224575,0.933012086752057,-0.15166370275989174
1772796797198469600,5.8424697265625,9.884975933218001,0.5609364314377308,-0.23515271782949565
1772796797208462600,5.852462646484375,11.616180132865905,0.36517347471043465,-0.4554302668819204
1772796797218454500,5.86245458984375,12.983133671736717,0.23574191589429974,-1.041197151660919
1772796797228446700,5.87244677734375,13.894950410246848,0.3812938577756285,-1.4520314305670559
1772796797238438700,5.882438720703125,14.073373378986119,0.7475660875082015,-1.3769064853474497
1772796797248430800,5.892430908203125,13.283435299694537,0.8834747333839535,-0.8693727044038474
1772796797258423600,5.902423583984375,11.95405482789278,0.9871911284461616,-0.46897184896767136
1772796797268415700,5.912415771484375,10.471084215313196,1.3204748424209654,-0.32520730195976794
1772796797278407700,5.92240771484375,9.091801940745114,1.7194857048034666,-0.3584061725325882
1772796797288399600,5.932399658203125,8.180498996976018,2.0791335479602218,-0.6596967384625226
1772796797298392800,5.942392822265625,7.647592728236317,2.370914892593026,-1.0751799391530454
1772796797308384800,5.952384765625,7.54911540287137,2.816089686387777,-1.4600696294635533
1772796797318376700,5.962376708984375,7.776292757907509,3.3040462218105793,-1.6502976022869347
1772796797328368600,5.97236865234375,7.9141300337582825,3.4227509271681305,-1.5573369945168494
1772796797338360600,5.982360595703125,7.916343618154525,3.156865363553166,-1.4294929971531032
1772796797348353500,5.992353515625,7.979209531912207,2.9579835441529747,-1.0091688592374324
1772796797358345700,6.002345703125,8.083614493760466,2.9026924495637414,-0.8051995805051178
1772796797368337700,6.012337646484375,7.983970462703704,2.8207801822915672,-0.8645443343993275
1772796797378329900,6.022329833984375,7.644061631500721,2.7474934122845527,-0.7080431284803896
1772796797388322600,6.032322509765625,6.890396058073639,2.808752767628431,-0.2746015887077898
1772796797398314800,6.042314697265625,5.5501119149416684,2.736023046982288,0.0723222358237952
1772796797408306700,6.052306640625,3.7879602038443085,2.296181284778565,0.20299217732846736
1772796797418298600,6.062298583984375,2.029829418826103,1.3476649010330437,0.7531567471221089
1772796797428290600,6.07229052734375,0.00779343035519123,-0.012520897268503904,1.2625561758071184
1772796797438283800,6.08228369140625,-2.7465000173330307,-1.6627682306729257,1.2180312437735497
1772796797448275500,6.092275390625,-5.808199372026324,-3.0883257880732415,1.0701911909550428
1772796797458267600,6.102267578125,-8.802253761991858,-3.839530524344742,1.6571737716667354
1772796797468259600,6.112259521484375,-12.207243991541862,-3.921197584684193,2.1749843242138622
1772796797478252500,6.12225244140625,-16.326570823693274,-3.67465823431313,2.0743860611721874
1772796797488244700,6.13224462890625,-20.011293940424917,-3.1623499324440956,1.5169827722966671
1772796797498236700,6.142236572265625,-20.946786153554914,-2.762283277398348,0.8609579272799194
1772796797508228900,6.152228759765625,-18.423865759027002,-2.8561104388698935,0.9275305866010487
1772796797518220500,6.162220458984375,-16.09636038457155,-4.384306094576418,1.2118104695625602
1772796797528213800,6.1722138671875,-14.63835470190048,-6.326531171968579,1.5359212815225123
1772796797538205700,6.182205810546875,-15.031863021343945,-6.667181761449575,1.963264504420012
1772796797548197600,6.19219775390625,-17.481616472852227,-5.551611213588714,2.932694204595685
1772796797558189600,6.202189453125,-20.784326477622983,-4.63032346689999,3.1917575209751723
1772796797568182800,6.212182861328125,-22.603933767867087,-4.6271047971144315,3.5812802779138084
1772796797578174500,6.222174560546875,-19.656185202002526,-5.141770183503628,4.247584378752112
1772796797588166700,6.232166748046875,-14.047065217775106,-5.1596261581897735,2.6680647785216567
1772796797598158600,6.24215869140625,-8.252675759914517,-4.354870156733692,0.4489212137814611
1772796797608150800,6.25215087890625,-2.824614938148856,-3.704802904947102,-0.7219814182661474
1772796797618143500,6.2621435546875,1.485374751111865,-2.947821338839829,-1.2544761835955083
1772796797628135700,6.2721357421875,4.816068156829476,-1.7404536740303038,-1.9933597829543053
1772796797638127600,6.282127685546875,7.115722816807031,-0.45994507742524143,-3.3755738731905818
1772796797648119800,6.292119873046875,7.178828384539485,0.5418827713996172,-3.838240192273259
1772796797658112800,6.30211279296875,5.859906178387999,1.4442191493809222,-3.1061960835456848
1772796797668104700,6.312104736328125,4.5738978153228755,2.2971619663789866,-2.012858556411415
1772796797678097000,6.322096923828125,3.947052449169755,2.909715480068326,-1.2924214449778197
1772796797688088600,6.332088623046875,4.489559489947557,2.986907440820336,-1.13642760405913
1772796797698080800,6.342080810546875,5.644280729457735,2.67291718698889,-1.1946995410900563
1772796797708073700,6.35207373046875,7.374096689617633,2.212525242578983,-1.1183108595449476
1772796797718065700,6.362065673828125,9.460131395268439,1.714858045002818,-1.2176252933211624
1772796797728057600,6.3720576171875,11.54022969660759,1.602103480221331,-1.4841034160017967
1772796797738049800,6.3820498046875,13.520298766964673,1.7172466937050221,-1.787648409795016
1772796797748041700,6.392041748046875,14.887845011031628,1.8664993898004292,-2.114594152919948
1772796797758034700,6.40203466796875,15.475234565109014,2.1230267579615116,-2.2058827358245847
1772796797768026600,6.412026611328125,15.07357684147954,2.472135671447217,-2.080535523712635
1772796797778018800,6.422018798828125,14.126428092825412,2.729926483672857,-1.8566364596948026
1772796797788010500,6.432010498046875,13.075558272933959,2.938557835932076,-1.637067679966241
1772796797798003700,6.442003662109375,12.11088088185191,3.216723619927466,-1.5022355772808194
1772796797807995600,6.45199560546875,11.2788455360651,3.4735040860667823,-1.3428344121366738
1772796797817987600,6.461987548828125,10.62352401701212,3.7573145979508755,-1.212254706198722
1772796797827979500,6.4719794921875,10.017260251116753,4.070566016113758,-1.3102344573050737
1772796797837971700,6.4819716796875,9.480580309057235,4.362236593848467,-1.5056009620606898
1772796797847964700,6.491964599609375,8.774847284150123,4.490403539556264,-1.6301276515699923
1772796797857956600,6.50195654296875,8.020146522456407,4.414389098151028,-1.369182174705714
1772796797867948800,6.51194873046875,7.147012273561954,4.217024405315518,-0.9243671541340649
1772796797877940700,6.521940673828125,6.472440110594034,3.9418537114828824,-0.6030728608995676
1772796797887933700,6.53193359375,5.996109131035208,3.7697318887144324,-0.43467458869889375
1772796797897925600,6.541925537109375,5.3713955162137745,3.81876743004024,-0.47863553017415106
1772796797907917800,6.551917724609375,4.396833275455236,3.841955413404107,-0.7102132390610874
1772796797917909500,6.561909423828125,3.3687837746590374,3.663732935672998,-0.9650013623394071
1772796797927901700,6.571901611328125,2.1553595862895247,3.182093620572984,-1.0898832950271666
1772796797937894700,6.581894775390625,0.5915618713259697,2.136843686389923,-1.3636577121958136
1772796797947886600,6.591886474609375,-1.122756075450778,0.779034554091841,-1.9441789879389106
1772796797957878500,6.60187841796875,-2.4021119948893785,-0.996541725115478,-2.409895488372445
1772796797967870700,6.61187060546875,-3.0661510734051465,-2.599175366690755,-2.0974524639829992
1772796797977862700,6.621862548828125,-3.655070321267843,-2.946910945996642,-0.905965674394369
1772796797987855600,6.631855712890625,-5.521715257018804,-1.9123878652721642,0.4153467878945172
1772796797997847600,6.64184765625,-9.36441768939793,-1.3149194002509117,1.7319878973715006
1772796798007839700,6.65183984375,-13.674128561717271,-1.573390742086619,2.459661097538471
1772796798017831700,6.661831787109375,-16.035979273366927,-1.1886099189780652,2.1317925404801965
1772796798027824600,6.67182470703125,-15.158502026832103,-0.8352975624531507,1.4460411041110752
1772796798037816800,6.68181689453125,-13.449011646342276,-2.1536030980110166,0.948359293487668
1772796798047808800,6.691808837890625,-14.352579611945151,-4.224203503164649,0.6012811551772058
1772796798057800700,6.70180078125,-18.249682912075517,-5.158014046818018,1.8724651663370429
1772796798067792600,6.711792724609375,-24.463929182600975,-3.795835759525001,3.9311101991504427
1772796798077785900,6.721785888671875,-29.87808656669855,-2.1444338492579758,5.02675147318244
1772796798087777500,6.731777587890625,-32.069155179750915,-1.3526340677477418,5.084761763602495
1772796798097769700,6.741769775390625,-32.024630978369714,-1.114456814465299,4.454505712223053
1772796798107761700,6.75176171875,-28.921974759387968,-1.5172399619281292,4.429397574451565
1772796798117754600,6.761754638671875,-23.429411947095392,-2.0486834646388887,4.308331692920625
1772796798127746600,6.77174658203125,-16.283542998349667,-2.343411530248076,3.6247681219846006
1772796798137738800,6.78173876953125,-8.859010837480426,-2.2280120039157567,2.580615627649426
1772796798147730700,6.791730712890625,-2.7133324917465447,-1.5755673554733394,1.1458476127028465
1772796798157722600,6.80172265625,1.845648909473419,-0.5856624380238354,-0.13933262897506354
1772796798167715600,6.811715576171875,4.880698742172122,0.5318535448163747,-0.9072923929534852
1772796798177707800,6.821707763671875,6.424158602505922,1.4294396595306693,-1.2879356778658926
1772796798187699500,6.831699462890625,7.3953838077962395,1.9460249080665408,-1.4105401671409605
1772796798197691600,6.841691650390625,8.423155660694837,2.3590702871508893,-1.3715272765271365
1772796798207684900,6.851684814453125,9.373699897006153,2.7190175516456363,-1.2195505622953176
1772796798217676500,6.861676513671875,10.551410382437705,2.7718866797849535,-1.260003860975802
1772796798227668700,6.871668701171875,11.929729364931582,2.5882971220627424,-1.4782285326190292
1772796798237660700,6.88166064453125,13.009382211714982,2.2981486393287778,-1.512693258409202
1772796798247652900,6.89165283203125,13.819100511753557,1.889192867645621,-1.60880999212265
1772796798257645600,6.9016455078125,14.463542909395693,1.5246978767186403,-1.8943290614902972
1772796798267637800,6.9116376953125,14.798527728199957,1.1517670658797026,-2.1219819250836967
1772796798277629700,6.921629638671875,14.844763409674167,0.9301943989828229,-2.119888313805312
1772796798287621600,6.93162158203125,14.556713360524176,1.0972598151445387,-2.0215280389487744
1772796798297613600,6.941613525390625,14.00112296628952,1.5156953628346324,-2.077087721346319
1772796798307606800,6.951606689453125,13.105871578133106,2.089304521101713,-2.1270527986072003
1772796798317598500,6.961598388671875,12.24637422492504,2.6557977098837493,-2.0869861611567435
1772796798327590700,6.971590576171875,11.396886224555969,3.2135628178089855,-2.076025645072758
1772796798337582600,6.98158251953125,10.488132380747794,3.650486500608921,-2.0183660677865145
1772796798347575600,6.991575439453125,9.767147426173091,3.935850671675801,-1.5997421579174695
1772796798357567500,7.0015673828125,9.006724779701232,4.1894291269034145,-1.105167665659636
1772796798367559700,7.0115595703125,8.389571371001004,4.452875188411772,-0.9196579535298048
1772796798377551600,7.021551513671875,8.350206159818171,4.702964632479846,-1.1525229988135397
1772796798387543600,7.03154345703125,8.299381396988034,4.867494392684102,-1.283056089130789
1772796798397536800,7.041536865234375,7.984273829564452,4.773489536558091,-1.247980684096366
1772796798407528700,7.05152880859375,8.109702874740957,4.447069717003405,-1.078625403431803
1772796798417520600,7.061520751953125,7.957075441515445,4.29827031763345,-0.9711788819305598
1772796798427512600,7.0715126953125,7.127098781824111,3.814806125193834,-0.7950934162281453
1772796798437504800,7.0815048828125,6.351921049290895,3.7102339900851247,-0.5749706558786333
1772796798447497700,7.091497802734375,4.8551375999361275,3.833681798316538,-0.4549883318006992
