time,seconds_elapsed,z,y,x
1772796791422964500,0.066964599609375,1.1757609844207764,0.8048292994499207,1.1212819814682007
1772796791432956700,0.076956787109375,1.1480188369750977,0.8587743043899536,1.157850742340088
1772796791442950000,0.086949951171875,1.1076257228851318,0.8322194814682007,1.136290431022644
1772796791452941600,0.096941650390625,1.0357977151870728,0.6980901956558228,1.0705742835998535
1772796791462933800,0.106933837890625,0.9685657024383545,0.4914160370826721,0.9596851468086243
1772796791472925700,0.11692578125,0.933272659778595,0.2888008654117584,0.8082266449928284
1772796791482918700,0.126918701171875,0.9610018134117126,0.15428538620471954,0.6148407459259033
1772796791492910600,0.13691064453125,1.0304335355758667,0.09820320457220078,0.3938199579715729
1772796791502902800,0.14690283203125,1.107966661453247,0.14338122308254242,0.1674254685640335
1772796791512894700,0.156894775390625,1.1686710119247437,0.24692334234714508,-0.08177769929170609
1772796791522887700,0.1668876953125,1.2085293531417847,0.3429098129272461,-0.3280056118965149
1772796791532879600,0.176879638671875,1.21917724609375,0.35926535725593567,-0.5272985100746155
1772796791542871800,0.186871826171875,1.1900986433029175,0.2803798317909241,-0.6624606847763062
1772796791552863500,0.196863525390625,1.1238235235214233,0.16980168223381042,-0.7308202981948853
1772796791562855700,0.206855712890625,1.0336954593658447,-0.02209644392132759,-0.77777498960495
1772796791572848600,0.2168486328125,0.938840925693512,-0.2629077136516571,-0.8045839667320251
1772796791582840600,0.226840576171875,0.8634552955627441,-0.5045630931854248,-0.7936992645263672
1772796791592832500,0.23683251953125,0.8669911623001099,-0.550194501876831,-0.735586404800415
1772796791602824700,0.24682470703125,0.9566486477851868,-0.40853771567344666,-0.6450018882751465
1772796791612817700,0.256817626953125,1.0682792663574219,-0.1584346443414688,-0.5528532862663269
1772796791622809600,0.2668095703125,1.1355581283569336,0.18051037192344666,-0.5215889811515808
1772796791632801800,0.2768017578125,1.1575145721435547,0.5576890707015991,-0.5704295039176941
1772796791642793700,0.286793701171875,1.1318271160125732,0.8794313073158264,-0.6741534471511841
1772796791652785700,0.29678564453125,1.0442008972167969,1.017301321029663,-0.7482263445854187
1772796791662778600,0.306778564453125,0.9211620092391968,0.902380108833313,-0.7086645364761353
1772796791672770800,0.316770751953125,0.8172758221626282,0.6478234529495239,-0.48784855008125305
1772796791682762500,0.326762451171875,0.7616837620735168,0.4797292947769165,-0.10690747946500778
1772796791692754700,0.336754638671875,0.7215219140052795,0.39973723888397217,0.33439508080482483
1772796791702747600,0.34674755859375,0.6799912452697754,0.2621781826019287,0.6599359512329102
1772796791712739600,0.356739501953125,0.5768579244613647,0.05483779311180115,0.8241664171218872
1772796791722731500,0.3667314453125,0.4375711977481842,-0.19436998665332794,0.842166006565094
1772796791732723700,0.3767236328125,0.2705419957637787,-0.4559057354927063,0.7097432017326355
1772796791742716700,0.386716552734375,0.08618701994419098,-0.5046372413635254,0.40586239099502563
1772796791752708600,0.39670849609375,-0.09845899790525436,-0.4675447344779968,0.013635511510074139
1772796791762700500,0.406700439453125,-0.17173640429973602,-0.44915667176246643,-0.353183776140213
1772796791772692700,0.416692626953125,-0.15362663567066193,-0.6144428849220276,-0.6620467901229858
1772796791782684700,0.4266845703125,-0.04611552134156227,-0.7785509824752808,-0.972393810749054
1772796791792677600,0.436677734375,0.06861186027526855,-0.9492758512496948,-1.3737894296646118
1772796791802669800,0.446669921875,0.09126147627830505,-1.0830012559890747,-1.7311601638793945
1772796791812661800,0.456661865234375,0.11814768612384796,-0.9677697420120239,-1.9116343259811401
1772796791822653700,0.46665380859375,0.20536088943481445,-0.7391416430473328,-1.8736320734024048
1772796791832646700,0.476646728515625,0.31672173738479614,-0.4254577159881592,-1.6555758714675903
1772796791842638800,0.486638916015625,0.42607882618904114,0.02810588851571083,-1.256980061531067
1772796791852630500,0.496630615234375,0.47205936908721924,0.621429979801178,-0.7303175926208496
1772796791862622700,0.506622802734375,0.427900105714798,1.1614919900894165,-0.20126932859420776
1772796791872615700,0.51661572265625,0.2555682957172394,1.0944266319274902,0.18782462179660797
1772796791882607600,0.526607666015625,0.026055121794342995,-0.005977226886898279,0.32512953877449036
1772796791892599600,0.536599609375,-0.2128128558397293,-1.7732735872268677,0.22531957924365997
1772796791902591700,0.546591796875,-0.41288983821868896,-3.29294490814209,0.24288906157016754
1772796791912583700,0.556583740234375,-0.564258873462677,-3.896956443786621,0.5209071040153503
1772796791922576600,0.56657666015625,-0.5394342541694641,-3.550949811935425,0.9153754115104675
1772796791932568600,0.576568603515625,-0.39533382654190063,-2.4516050815582275,1.080237627029419
1772796791942560800,0.586560791015625,-0.23110029101371765,-1.1445289850234985,0.8683040738105774
1772796791952552400,0.596552490234375,-0.027103478088974953,-0.3351171016693115,0.5680427551269531
1772796791962545700,0.606545654296875,0.1442205309867859,-0.08308683335781097,0.23338517546653748
1772796791972537900,0.616537841796875,0.24577485024929047,-0.26112422347068787,-0.10715430229902267
1772796791982529500,0.626529541015625,0.4068734347820282,-0.8074063062667847,-0.6512253880500793
1772796791992521700,0.636521728515625,0.5813214182853699,-1.5378994941711426,-1.550329566001892
1772796792002513700,0.646513671875,0.6427658796310425,-2.168732166290283,-2.489603281021118
1772796792012506600,0.656506591796875,0.4830430746078491,-2.6318676471710205,-3.274099588394165
1772796792022498600,0.66649853515625,0.20608647167682648,-3.0149805545806885,-3.7481565475463867
1772796792032490800,0.67649072265625,0.028537791222333908,-3.051241874694824,-3.884793758392334
1772796792042482700,0.686482666015625,0.02434605360031128,-2.548171281814575,-3.753462791442871
1772796792052475600,0.6964755859375,0.1718747913837433,-1.5263687372207642,-3.3710601329803467
1772796792062467600,0.706467529296875,0.3218766152858734,0.022134048864245415,-2.9466512203216553
1772796792072459800,0.716459716796875,0.3260793387889862,1.2195019721984863,-2.3515701293945312
1772796792082451500,0.726451416015625,0.24835096299648285,1.8032461404800415,-1.756813406944275
1772796792092444700,0.736444580078125,0.10060198605060577,1.6031854152679443,-1.16824471950531
1772796792102436600,0.7464365234375,-0.04541993886232376,1.0751429796218872,-0.5499979853630066
1772796792112428500,0.756428466796875,-0.18413227796554565,0.6660505533218384,0.08778762817382812
1772796792122420500,0.76642041015625,-0.25744301080703735,0.5358138680458069,0.6961466073989868
1772796792132412700,0.77641259765625,-0.3194800317287445,0.5825923085212708,1.178135871887207
1772796792142405600,0.786405517578125,-0.42155006527900696,0.6988929510116577,1.4967774152755737
1772796792152397300,0.796397216796875,-0.5227363109588623,0.7332311868667603,1.6117182970046997
1772796792162389500,0.806389404296875,-0.5586405396461487,0.6439986824989319,1.4575068950653076
1772796792172381400,0.81638134765625,-0.4621715545654297,0.7629035115242004,0.8810699582099915
1772796792182374400,0.82637451171875,-0.333475261926651,1.0423133373260498,0.03262961655855179
1772796792192366300,0.836366455078125,-0.2711266577243805,1.249934434890747,-0.6904245018959045
1772796792202358500,0.846358642578125,-0.2611788809299469,1.6719907522201538,-1.2081650495529175
1772796792212350500,0.8563505859375,-0.2710570693016052,2.2675414085388184,-1.4076552391052246
1772796792222342400,0.86634228515625,-0.268740177154541,2.636911392211914,-1.38253653049469
1772796792232335400,0.87633544921875,-0.30865246057510376,2.5938005447387695,-1.2348157167434692
1772796792242327600,0.88632763671875,-0.3290764391422272,2.2408134937286377,-0.9995068907737732
1772796792252319200,0.8963193359375,-0.36432310938835144,1.81772780418396,-0.6845848560333252
1772796792262311400,0.9063115234375,-0.3925645053386688,1.410099983215332,-0.328926682472229
1772796792272304400,0.916304443359375,-0.3674631416797638,1.0627398490905762,-0.030893664807081223
1772796792282296300,0.92629638671875,-0.3277774155139923,0.9694759845733643,0.20294588804244995
1772796792292288300,0.936288330078125,-0.2295810729265213,1.107138991355896,0.3556225299835205
1772796792302280400,0.946280517578125,-0.05435846373438835,1.3164645433425903,0.412640243768692
1772796792312273400,0.9562734375,0.19574113190174103,1.3987420797348022,0.3725772500038147
1772796792322265300,0.966265380859375,0.4403057098388672,1.400097131729126,0.34762221574783325
1772796792332257500,0.976257568359375,0.6531258225440979,1.4454377889633179,0.41877707839012146
1772796792342249500,0.98624951171875,0.7884748578071594,1.4293054342269897,0.6050009727478027
1772796792352241400,0.996241455078125,0.7789862751960754,1.3995243310928345,0.8944911360740662
1772796792362234400,1.006234375,0.7829378843307495,1.4153826236724854,1.186025857925415
1772796792372226600,1.0162265625,0.8029046654701233,1.0629860162734985,1.2604546546936035
1772796792382218200,1.02621826171875,0.6076903939247131,0.19625727832317352,1.054429292678833
1772796792392210400,1.03621044921875,0.0406741201877594,-1.3624459505081177,0.5092847943305969
1772796792402203400,1.046203369140625,-0.586742103099823,-2.6937363147735596,-0.013664286583662033
1772796792412195300,1.0561953125,-0.8134165406227112,-2.4080512523651123,0.06359268724918365
1772796792422187300,1.066187255859375,-0.5109229683876038,-0.3946879506111145,0.9416077733039856
1772796792432179500,1.076179443359375,0.26494932174682617,1.4973454475402832,1.9599462747573853
1772796792442172400,1.08617236328125,1.0614652633666992,2.067018747329712,2.339212656021118
1772796792452164400,1.096164306640625,1.2752372026443481,1.812495470046997,1.9200681447982788
1772796792462156300,1.10615625,0.8514317870140076,1.212935209274292,1.0876246690750122
1772796792472148500,1.1161484375,0.3786112070083618,0.5590100884437561,0.3314378559589386
1772796792482140400,1.126140380859375,0.31339165568351746,0.13124074041843414,-0.21071146428585052
1772796792492133400,1.13613330078125,0.3915756940841675,0.3898981213569641,-0.5465605854988098
1772796792502125600,1.14612548828125,0.4885253608226776,0.7741631269454956,-0.7456381320953369
1772796792512117500,1.156117431640625,0.6094134449958801,0.8704556226730347,-0.643865704536438
1772796792522109400,1.166109375,0.6909032464027405,0.6254059672355652,-0.5737663507461548
1772796792532102400,1.176102294921875,0.4927228093147278,0.5890948176383972,-0.9827131032943726
1772796792542094600,1.186094482421875,-0.01761574298143387,0.5242792963981628,-1.7940114736557007
1772796792552086300,1.196086181640625,-0.40450090169906616,0.24038846790790558,-1.8818566799163818
1772796792562078500,1.206078369140625,-0.43485507369041443,-0.1575610339641571,-1.1601898670196533
1772796792572070400,1.2160703125,-0.29475441575050354,-0.5382245182991028,-0.23924162983894348
1772796792582063400,1.2260634765625,-0.14693769812583923,-0.9986623525619507,0.39044156670570374
1772796792592055300,1.23605517578125,-0.0596320815384388,-1.233534574508667,0.7541311383247375
1772796792602047500,1.246047607421875,0.0068083880469202995,-1.2152434587478638,0.952522337436676
1772796792612039400,1.256039306640625,0.0655854195356369,-1.0673980712890625,0.9548947215080261
1772796792622032400,1.266032470703125,0.16590504348278046,-0.9060282111167908,0.8128540515899658
1772796792632024600,1.276024658203125,0.2847480773925781,-0.720943033695221,0.5937619209289551
1772796792642016500,1.2860166015625,0.3868328332901001,-0.5105396509170532,0.37441715598106384
1772796792652008200,1.29600830078125,0.37128981947898865,-0.3375217616558075,0.16649137437343597
1772796792662001400,1.30600146484375,0.20954231917858124,-0.10043923556804657,-0.02689298242330551
1772796792671993600,1.31599365234375,-0.02614717371761799,0.07354454696178436,-0.1816418170928955
1772796792681985300,1.3259853515625,-0.27606797218322754,0.05176220089197159,-0.2590894103050232
1772796792691977500,1.3359775390625,-0.4804905951023102,-0.0360691174864769,-0.24119696021080017
1772796792701969400,1.345969482421875,-0.5396451354026794,-0.039994530379772186,-0.16414538025856018
1772796792711962400,1.35596240234375,-0.5031217336654663,0.013595991767942905,-0.0904029831290245
1772796792721954300,1.365954345703125,-0.44338932633399963,0.13803192973136902,-0.0458955392241478
1772796792731946500,1.375946533203125,-0.3845856487751007,0.19913282990455627,-0.0002734588924795389
1772796792741938400,1.3859384765625,-0.3778769075870514,0.11006797105073929,0.030083077028393745
1772796792751931400,1.395931396484375,-0.43186530470848083,0.0375056192278862,0.03607599064707756
1772796792761923300,1.40592333984375,-0.5365722179412842,0.0465218685567379,-0.009991135448217392
1772796792771915500,1.41591552734375,-0.633429229259491,0.08048275858163834,-0.11905424296855927
1772796792781907200,1.4259072265625,-0.6657503843307495,0.120327427983284,-0.261233925819397
1772796792791899400,1.4358994140625,-0.6905472874641418,0.10811416804790497,-0.3486711084842682
1772796792801892600,1.445892578125,-0.6579576134681702,0.29443037509918213,-0.5258296728134155
1772796792811884300,1.45588427734375,-0.4690731465816498,0.447160005569458,-0.7010345458984375
1772796792821876500,1.46587646484375,-0.3011733293533325,0.6264691948890686,-0.7849644422531128
1772796792831868400,1.475868408203125,-0.1577077955007553,0.99562007188797,-0.7361457943916321
1772796792841861400,1.485861328125,0.00021262886002659798,1.1449973583221436,-0.6169422268867493
1772796792851853300,1.495853271484375,0.016441399231553078,0.9582277536392212,-0.5127149224281311
1772796792861845500,1.505845458984375,-0.13893817365169525,0.42188990116119385,-0.3886696398258209
1772796792871837400,1.51583740234375,-0.5301917195320129,-0.21194641292095184,-0.19155150651931763
1772796792881830400,1.525830322265625,-1.2664103507995605,-1.1435129642486572,-0.19835349917411804
1772796792891822300,1.535822265625,-2.3371658325195312,-1.8176466226577759,-0.2967846989631653
1772796792901814500,1.545814453125,-3.245728015899658,-1.3500771522521973,-0.09627527743577957
1772796792911806500,1.555806396484375,-3.2705163955688477,0.35973986983299255,0.5011993646621704
1772796792921798400,1.56579833984375,-2.0919599533081055,2.1338698863983154,1.1384706497192383
1772796792931791400,1.575791259765625,0.24550719559192657,2.8539369106292725,1.789720058441162
1772796792941783600,1.585783447265625,2.4741628170013428,2.5734670162200928,2.3248748779296875
1772796792951775200,1.595775146484375,3.196728229522705,0.2067868858575821,1.6838428974151611
1772796792961767400,1.605767333984375,2.6587557792663574,-1.845788598060608,0.5974149107933044
1772796792971760400,1.615760498046875,1.6282275915145874,-2.6268930435180664,0.19860760867595673
1772796792981752300,1.62575244140625,0.6739627122879028,-2.659050226211548,0.26854127645492554
1772796792991744500,1.63574462890625,0.1648733764886856,-2.1839191913604736,0.4229627847671509
1772796793001736400,1.645736328125,0.1504676192998886,-1.6473944187164307,0.5254805684089661
1772796793011728600,1.655728759765625,0.21350915729999542,-1.1625076532363892,0.7311663627624512
1772796793021721300,1.665721435546875,0.3553580641746521,-0.7797322273254395,1.0257307291030884
1772796793031713500,1.675713623046875,0.6360717415809631,-0.4270535409450531,1.0141589641571045
1772796793041705500,1.68570556640625,0.8547806739807129,0.10751332342624664,0.6027190089225769
1772796793051697400,1.695697509765625,1.030070185661316,0.8902631998062134,-0.006541695445775986
1772796793061690400,1.7056904296875,1.2330867052078247,1.7819633483886719,-0.6474474668502808
1772796793071682600,1.7156826171875,1.377787709236145,2.204681158065796,-1.208563208580017
1772796793081674200,1.72567431640625,1.1616953611373901,1.6413072347640991,-1.6794637441635132
1772796793091666400,1.73566650390625,0.5225643515586853,0.3091568052768707,-1.7844642400741577
1772796793101658400,1.745658447265625,-0.06955483555793762,-0.9066544771194458,-1.1859830617904663
1772796793111651300,1.7556513671875,-0.29877179861068726,-1.4110773801803589,-0.03867071121931076
1772796793121643300,1.765643310546875,-0.25330817699432373,-1.3002369403839111,1.1619173288345337
1772796793131635500,1.775635498046875,-0.0884033590555191,-1.0649189949035645,1.9153980016708374
1772796793141628000,1.7856279296875,0.093814417719841,-0.7002055048942566,2.0483438968658447
1772796793151621000,1.79562109375,0.32575178146362305,-0.21041877567768097,1.7220275402069092
1772796793161613000,1.805613037109375,0.5651861429214478,0.33927327394485474,1.104322910308838
1772796793171605000,1.81560498046875,0.7238340973854065,0.8376069068908691,0.33398565649986267
1772796793181597000,1.825596923828125,0.6189841628074646,1.0830166339874268,-0.47258245944976807
1772796793191589000,1.835589111328125,0.3134167492389679,1.1215872764587402,-1.0385574102401733
1772796793201582000,1.84558203125,0.04451991245150566,1.1767498254776,-1.172659993171692
1772796793211574000,1.855573974609375,-0.06732592731714249,1.333575963973999,-0.8977116942405701
1772796793221566000,1.86556591796875,-0.04070869833230972,1.3454996347427368,-0.48397207260131836
1772796793231558100,1.87555810546875,0.0067299227230250835,1.158455491065979,-0.1923023909330368
1772796793241550800,1.88555078125,-0.0056565930135548115,0.8800677061080933,-0.020613502711057663
1772796793251543000,1.89554296875,-0.10101667046546936,0.6584376096725464,0.04475964605808258
1772796793261535000,1.905534912109375,-0.3640947639942169,0.6456249356269836,-0.03243320435285568
1772796793271527200,1.915527099609375,-0.5641042590141296,0.7071820497512817,-0.11561650782823563
1772796793281520000,1.92552001953125,-0.5807690024375916,0.9178279638290405,-0.17386968433856964
1772796793291512000,1.935511962890625,-0.4130822718143463,1.2669018507003784,-0.21694578230381012
1772796793301504300,1.945504150390625,-0.2776433825492859,1.6413695812225342,-0.23338079452514648
1772796793311496000,1.955495849609375,-0.2735823094844818,1.2673853635787964,-0.23053227365016937
1772796793321488100,1.965488037109375,-0.2703306972980499,0.7331560850143433,-0.10013634711503983
1772796793331481000,1.975481201171875,-0.2937292456626892,0.22348594665527344,0.13893455266952515
1772796793341473000,1.98547314453125,-0.4144008755683899,-0.0906984880566597,0.5187463760375977
1772796793351465000,1.99546484375,-0.41836124658584595,-0.08716500550508499,1.0156991481781006
1772796793361457200,2.00545703125,-0.20605921745300293,-0.10482966899871826,1.6016143560409546
1772796793371449900,2.015449951171875,0.10653676092624664,-0.15991637110710144,2.3183717727661133
1772796793381442000,2.025442138671875,0.41927894949913025,-0.21747073531150818,2.991239547729492
1772796793391434000,2.03543408203125,0.6738723516464233,-0.07577592134475708,3.2803637981414795
1772796793401426200,2.04542626953125,0.8643060326576233,0.16146782040596008,3.1667373180389404
1772796793411417900,2.05541796875,0.8977598547935486,-0.18040482699871063,2.7288050651550293
1772796793421411000,2.0654111328125,0.7857972383499146,-0.9310885071754456,2.112408399581909
1772796793431403000,2.075403076171875,0.49452143907546997,-1.7987276315689087,1.5603766441345215
1772796793441395000,2.08539501953125,0.22318188846111298,-2.301466703414917,1.299583077430725
1772796793451387000,2.095386962890625,0.09963677823543549,-1.946997880935669,1.3397645950317383
1772796793461380000,2.105380126953125,0.21612903475761414,-1.09934401512146,1.5252721309661865
1772796793471372000,2.1153720703125,0.42568331956863403,-0.36280155181884766,1.4404408931732178
1772796793481364000,2.125364013671875,0.25295209884643555,-0.353118360042572,0.7427445650100708
1772796793491356200,2.135356201171875,-0.0752878189086914,-0.7911263704299927,-0.12666484713554382
1772796793501348000,2.14534814453125,-0.3516499400138855,-1.200394630432129,-0.9870116114616394
1772796793511341000,2.155341064453125,-0.4347647726535797,-1.3224035501480103,-1.7286689281463623
1772796793521333000,2.1653330078125,-0.1897066831588745,-1.0229402780532837,-2.068568229675293
1772796793531325200,2.1753251953125,0.11628199368715286,-0.8052730560302734,-2.1534149646759033
1772796793541316900,2.18531689453125,0.4087139666080475,-0.6640766263008118,-2.3829493522644043
1772796793551310000,2.19531005859375,0.7477104067802429,-0.61832195520401,-2.7129030227661133
1772796793561302000,2.205302001953125,1.047345757484436,-0.31056177616119385,-3.088183641433716
1772796793571294000,2.2152939453125,1.1174862384796143,0.26625946164131165,-3.2477056980133057
1772796793581286000,2.225285888671875,1.1008144617080688,0.7660711407661438,-3.359118700027466
1772796793591279000,2.235279052734375,1.096539855003357,1.1360327005386353,-3.3677868843078613
1772796793601271000,2.24527099609375,1.1438852548599243,1.606391429901123,-2.986114025115967
1772796793611263000,2.255262939453125,1.0033888816833496,2.228367328643799,-1.7553455829620361
1772796793621255000,2.2652548828125,0.9385309219360352,0.984985888004303,-1.1948575973510742
1772796793631247000,2.2752470703125,0.662770688533783,0.3556489646434784,-0.4671313166618347
1772796793641240000,2.285239990234375,0.4844760298728943,-0.22063995897769928,0.34925708174705505
1772796793651232000,2.29523193359375,0.3470473289489746,-0.5992096066474915,0.9900650382041931
1772796793661224200,2.30522412109375,0.09119457751512527,-0.727487325668335,1.4606528282165527
1772796793671216000,2.315216064453125,-0.14641878008842468,-0.7605437636375427,1.5950878858566284
1772796793681209000,2.325208984375,-0.21820354461669922,-0.7590818405151367,1.516899585723877
1772796793691201000,2.335200927734375,-0.12646910548210144,-0.6485638618469238,1.327423095703125
1772796793701193200,2.345193115234375,0.19759917259216309,-0.29349619150161743,0.9866725206375122
1772796793711185000,2.355184814453125,0.5187937021255493,-0.004637759178876877,0.5956371426582336
1772796793721177000,2.365177001953125,0.42029958963394165,0.4817489683628082,0.4420773684978485
1772796793731170000,2.375170166015625,0.21474216878414154,0.6717079877853394,0.3703608512878418
1772796793741162000,2.385161865234375,0.20483863353729248,0.8686734437942505,0.38735252618789673
1772796793751154000,2.39515380859375,0.17186178267002106,0.7657161355018616,0.40723326802253723
1772796793761146000,2.40514599609375,0.042893555015325546,0.6010065078735352,0.43787869811058044
1772796793771139000,2.41513916015625,-0.22770091891288757,0.28639695048332214,0.39672407507896423
1772796793781131000,2.425131103515625,-0.23433969914913177,-0.09608816355466843,0.0888657420873642
1772796793791123200,2.435123291015625,-0.21476200222969055,-0.17105160653591156,-0.07985137403011322
1772796793801115100,2.445115234375,-0.21164608001708984,-0.043938759714365005,-0.2361774444580078
1772796793811106800,2.45510693359375,-0.20031486451625824,-0.037735193967819214,-0.32504498958587646
1772796793821100000,2.46510009765625,-0.07451223582029343,0.11099386215209961,0.030495762825012207
1772796793831092200,2.47509228515625,0.15554866194725037,0.8268779516220093,0.4709823429584503
1772796793841084000,2.485083984375,0.4929170608520508,1.2366423606872559,0.7143481969833374
1772796793851076000,2.495076171875,0.6245967745780945,1.2391420602798462,0.839669942855835
1772796793861069000,2.505069091796875,0.5394120812416077,0.871829628944397,0.8930661678314209
1772796793871061000,2.51506103515625,0.33165833353996277,0.660751461982727,0.8453095555305481
1772796793881053000,2.525052978515625,0.10845484584569931,0.6844601035118103,0.5953588485717773
1772796793891045000,2.535045166015625,-0.028952013701200485,0.7115982174873352,0.1389034390449524
1772796793901037000,2.545037109375,0.05575958639383316,0.350168377161026,-0.2933806777000427
1772796793911030000,2.555030029296875,0.30523014068603516,-0.01385192945599556,-0.472942978143692
1772796793921022000,2.56502197265625,0.38686856627464294,-0.25094032287597656,-0.6136805415153503
1772796793931014100,2.57501416015625,0.4389067590236664,-0.24290581047534943,-1.0769333839416504
1772796793941005800,2.585005859375,0.42414718866348267,0.4125375747680664,-1.7893359661102295
1772796793950999000,2.5949990234375,-0.28960636258125305,1.541854739189148,-2.5645742416381836
1772796793960991200,2.6049912109375,-1.7674779891967773,1.9566947221755981,-3.4088239669799805
1772796793970983000,2.61498291015625,-1.9399962425231934,1.7823657989501953,-3.971790313720703
1772796793980975000,2.62497509765625,-1.5042928457260132,0.8653667569160461,-4.116375923156738
1772796793990967000,2.634967041015625,-1.1723082065582275,0.05292924493551254,-3.573070526123047
1772796794000960000,2.6449599609375,-1.0447745323181152,-0.9394521713256836,-2.66400408744812
1772796794010952000,2.654951904296875,-0.7092071175575256,-0.9192246198654175,-1.807850956916809
1772796794020944100,2.664944091796875,-0.18034078180789948,-0.49443453550338745,-1.2472044229507446
1772796794030936000,2.67493603515625,0.4147531986236572,-0.18120978772640228,-0.9150850176811218
1772796794040929000,2.684928955078125,0.9684967398643494,0.12384217232465744,-0.5982598662376404
1772796794050921000,2.6949208984375,1.1046167612075806,0.5579856038093567,-0.03061719425022602
1772796794060913200,2.7049130859375,0.9586476683616638,0.4125867187976837,0.354664146900177
1772796794070905000,2.714905029296875,0.6496331095695496,0.32904016971588135,0.09388953447341919
1772796794080897000,2.72489697265625,0.4115980565547943,0.2825447916984558,-0.6279534101486206
1772796794090890000,2.734889892578125,0.18536867201328278,0.16845948994159698,-1.27883780002594
1772796794100882200,2.744882080078125,0.08370072394609451,0.08748851716518402,-1.3423436880111694
1772796794110873900,2.754873779296875,0.018861539661884308,-0.06178964301943779,-0.8182311654090881
1772796794120866000,2.764865966796875,-0.08595656603574753,-0.41293394565582275,-0.012600873596966267
1772796794130859300,2.774859375,-0.22894595563411713,-0.9393596649169922,0.7055324912071228
1772796794140851000,2.784850830078125,-0.3758544325828552,-1.3495279550552368,1.1279399394989014
1772796794150843000,2.7948427734375,-0.5055500864982605,-1.410085916519165,1.3353840112686157
1772796794160835000,2.8048349609375,-0.5447775721549988,-1.3595261573791504,1.512505054473877
1772796794170827000,2.814826904296875,-0.49269360303878784,-1.1784820556640625,1.7164185047149658
1772796794180820000,2.824820068359375,-0.3920789659023285,-0.8463732004165649,1.8863800764083862
1772796794190812000,2.83481201171875,-0.23738044500350952,-0.5589662194252014,1.8930799961090088
1772796794200804000,2.84480419921875,-0.007115780841559172,-0.09843312948942184,1.4458650350570679
1772796794210795800,2.854795654296875,0.06412271410226822,-0.1297614872455597,0.8532837629318237
1772796794220789000,2.8647890625,0.11457184702157974,0.04943031817674637,0.4368770122528076
1772796794230781000,2.874781005859375,0.22125649452209473,0.23993022739887238,0.5009617805480957
1772796794240772900,2.88477294921875,0.3504476547241211,0.3564514219760895,0.8429648876190186
1772796794250764800,2.894764892578125,0.4286665618419647,0.43630364537239075,1.2193114757537842
1772796794260757000,2.904757080078125,0.49933546781539917,0.6368082165718079,1.4688341617584229
1772796794270749700,2.914749755859375,0.5719335079193115,0.8683232069015503,1.4830743074417114
1772796794280742000,2.924741943359375,0.5979121327400208,1.0019385814666748,1.3763991594314575
1772796794290733800,2.93473388671875,0.5886568427085876,0.8559101223945618,1.3974090814590454
1772796794300726000,2.94472607421875,0.6041865348815918,0.9630180597305298,1.536332607269287
1772796794310719000,2.954718994140625,0.607535719871521,1.1370875835418701,1.5602067708969116
1772796794320711000,2.9647109375,0.5618259906768799,0.7527608871459961,1.5476744174957275
1772796794330703000,2.974703125,0.5162268280982971,0.5400832295417786,1.5276399850845337
1772796794340694800,2.98469482421875,0.4673934876918793,0.4500322937965393,1.487069845199585
1772796794350687000,2.99468701171875,0.46766406297683716,0.19822989404201508,1.4584853649139404
1772796794360680000,3.004679931640625,0.45141831040382385,-0.11518853902816772,1.5534216165542603
1772796794370671900,3.014671875,0.3950631618499756,-0.4763030409812927,1.7226415872573853
1772796794380663800,3.024663818359375,0.3703377842903137,-0.8315936326980591,1.7657102346420288
1772796794390656000,3.034656005859375,0.41078826785087585,-0.7567814588546753,1.6606700420379639
1772796794400649000,3.04464892578125,0.5013911724090576,-0.3602541983127594,1.623815894126892
1772796794410641000,3.054640869140625,0.6101951599121094,0.03794056177139282,1.670162320137024
1772796794420632800,3.0646328125,0.7339572310447693,0.3256857693195343,1.6574935913085938
1772796794430625000,3.074625,0.8102235198020935,0.5527753829956055,1.5431965589523315
1772796794440617700,3.08461767578125,0.834841787815094,0.8359189033508301,1.224577784538269
1772796794450610000,3.09460986328125,0.8351134061813354,1.0760953426361084,0.7293981313705444
1772796794460601900,3.104601806640625,0.7677831649780273,1.0142436027526855,0.39362677931785583
1772796794470594000,3.114593994140625,0.6477891206741333,0.8178623914718628,0.44085606932640076
1772796794480585700,3.124585693359375,0.6288235187530518,0.2431938797235489,0.6235651969909668
1772796794490579000,3.134578857421875,0.6010938882827759,-0.3849709630012512,0.7773760557174683
1772796794500571100,3.144571044921875,0.4120531678199768,-0.6630440950393677,0.7477737665176392
1772796794510562800,3.154562744140625,0.04254651069641113,-0.7282214760780334,0.4238806366920471
1772796794520555000,3.164554931640625,-0.36469998955726624,-0.7720076441764832,-0.2226778119802475
1772796794530548000,3.1745478515625,-0.682610809803009,-0.604285478591919,-1.1315176486968994
1772796794540540000,3.184539794921875,-0.9249268770217896,-0.31469595432281494,-1.9468402862548828
1772796794550531800,3.19453173828125,-0.9968279600143433,-0.1421113908290863,-2.252255439758301
1772796794560524000,3.20452392578125,-0.895439863204956,-0.23059731721878052,-2.0426695346832275
1772796794570516000,3.214515869140625,-0.753789484500885,-0.23782621324062347,-1.6169103384017944
1772796794580509000,3.224509033203125,-0.6507219076156616,-0.32048678398132324,-1.4035371541976929
1772796794590500900,3.2345009765625,-0.6844793558120728,-0.5798712372779846,-1.552318811416626
1772796794600493000,3.2444931640625,-0.7964447140693665,-0.8684813976287842,-1.8424922227859497
1772796794610484700,3.254484619140625,-0.879350483417511,-1.0818495750427246,-2.098963975906372
1772796794620477000,3.264476806640625,-0.8743427395820618,-1.1292723417282104,-2.1877644062042236
1772796794630470000,3.274469970703125,-0.7798399329185486,-1.0231189727783203,-2.039677143096924
1772796794640461800,3.2844619140625,-0.6732938289642334,-0.8212994337081909,-1.6951626539230347
1772796794650453800,3.294453857421875,-0.5364552736282349,-0.657894492149353,-1.174123764038086
1772796794660446000,3.304446044921875,-0.3928118348121643,-0.6303669810295105,-0.5611663460731506
1772796794670439000,3.31443896484375,-0.24483850598335266,-0.719275176525116,0.043822940438985825
1772796794680430800,3.324430908203125,-0.17936474084854126,-0.7940757274627686,0.5288903713226318
1772796794690423000,3.334423095703125,-0.22228451073169708,-0.7398540377616882,0.7759097814559937
1772796794700415000,3.3444150390625,-0.32729989290237427,-0.6169930100440979,0.7591694593429565
1772796794710407000,3.354406982421875,-0.44165682792663574,-0.4933414161205292,0.5353422164916992
1772796794720400000,3.36439990234375,-0.5160732269287109,-0.32160675525665283,0.23882418870925903
1772796794730392000,3.37439208984375,-0.5054115653038025,-0.07519564777612686,-0.03204591944813728
1772796794740383700,3.3843837890625,-0.4179687798023224,0.16676779091358185,-0.21197830140590668
1772796794750376000,3.3943759765625,-0.29858726263046265,0.2923526167869568,-0.2532320022583008
1772796794760369000,3.404368896484375,-0.19715005159378052,0.3347441554069519,-0.14332422614097595
1772796794770360800,3.41436083984375,-0.08847016841173172,0.3823460340499878,0.09692886471748352
1772796794780352800,3.424352783203125,-0.02012292668223381,0.4213365614414215,0.3679938018321991
1772796794790345000,3.434344970703125,0.04488430172204971,0.5239534974098206,0.7123463749885559
1772796794800337000,3.4443369140625,0.051446981728076935,0.5367790460586548,1.087546467781067
1772796794810329900,3.454329833984375,0.00551118329167366,0.4358114004135132,1.3303718566894531
1772796794820321800,3.46432177734375,-0.04226338118314743,0.35096997022628784,1.390026569366455
1772796794830314000,3.47431396484375,-0.04826401546597481,0.3558345139026642,1.2870458364486694
1772796794840306000,3.484305908203125,-0.03200734779238701,0.3987048864364624,1.0592564344406128
1772796794850299000,3.494298828125,-0.015682969242334366,0.40814951062202454,0.7773206233978271
1772796794860291000,3.504291015625,-0.008693437092006207,0.37388354539871216,0.4622845947742462
1772796794870283000,3.514282958984375,0.023821894079446793,0.2772001624107361,0.17902575433254242
1772796794880275000,3.52427490234375,0.15239228308200836,0.28012821078300476,0.023744327947497368
1772796794890268000,3.534267822265625,0.33375194668769836,0.4166008234024048,0.016333550214767456
1772796794900260000,3.544260009765625,0.4763469099998474,0.5334017276763916,0.09766169637441635
1772796794910251800,3.554251708984375,0.5845434069633484,0.5505751371383667,0.29103007912635803
1772796794920244000,3.564243896484375,0.5445943474769592,0.39643630385398865,0.5080590844154358
1772796794930236000,3.57423583984375,0.3558369278907776,-0.1140863373875618,0.3539789915084839
1772796794940228900,3.584228759765625,0.09268953651189804,-0.6791872978210449,-0.32750603556632996
1772796794950220800,3.594220703125,-0.19896334409713745,-0.9543256759643555,-1.1515322923660278
1772796794960213000,3.604212890625,-0.42022544145584106,-0.9197242856025696,-1.5131759643554688
1772796794970205000,3.614204833984375,-0.45363372564315796,-0.8464290499687195,-1.0731773376464844
1772796794980198000,3.624197998046875,-0.24024230241775513,-0.7949864864349365,-0.17184355854988098
1772796794990190000,3.634190185546875,0.04422350972890854,-0.5377823710441589,0.5493047833442688
1772796795000182000,3.64418212890625,0.3335302770137787,0.08631785213947296,0.7635084986686707
1772796795010173700,3.654173583984375,0.49948036670684814,0.7556179165840149,0.6719573140144348
1772796795020166000,3.664165771484375,0.5512346625328064,1.1098408699035645,0.47381240129470825
1772796795030159000,3.6741591796875,0.5463243126869202,1.251434564590454,0.20758789777755737
1772796795040150800,3.68415087890625,0.5285436511039734,1.1310186386108398,0.010232201777398586
1772796795050143000,3.69414306640625,0.5222785472869873,0.7342420220375061,0.018375881016254425
1772796795060135000,3.704135009765625,0.41439175605773926,0.2213902622461319,0.07504002749919891
1772796795070127900,3.7141279296875,0.25719839334487915,-0.20428141951560974,-0.06284912675619125
1772796795080119800,3.724119873046875,0.11208974570035934,-0.5814090371131897,-0.47904154658317566
1772796795090112000,3.734112060546875,-0.022502683103084564,-0.8898603320121765,-0.9669371247291565
1772796795100104000,3.74410400390625,-0.16954052448272705,-1.1860159635543823,-1.3487578630447388
1772796795110096000,3.754095947265625,-0.31286996603012085,-1.525855302810669,-1.6542456150054932
1772796795120088800,3.7640888671875,-0.410171240568161,-1.6368107795715332,-1.8212251663208008
1772796795130081000,3.7740810546875,-0.4222649037837982,-1.262505292892456,-1.817781925201416
1772796795140072700,3.78407275390625,-0.34191372990608215,-0.6281068325042725,-1.6244213581085205
1772796795150064000,3.794064208984375,-0.20522752404212952,-0.2509819269180298,-1.2320307493209839
1772796795160056300,3.804056396484375,-0.06070318818092346,-0.0429634265601635,-0.6791046857833862
1772796795170049500,3.814049560546875,0.0759047269821167,0.13822448253631592,-0.023632043972611427
1772796795180041200,3.824041259765625,0.12825645506381989,0.11823230981826782,0.5651844143867493
1772796795190033400,3.834033447265625,0.07904177159070969,-0.0597723126411438,0.982220470905304
1772796795200025300,3.844025390625,-0.022633107379078865,-0.15487046539783478,1.1669915914535522
1772796795210018300,3.854018310546875,-0.13594208657741547,-0.15744946897029877,1.1427446603775024
1772796795220010200,3.86401025390625,-0.2542215883731842,-0.1382310390472412,0.9734876155853271
1772796795230002400,3.87400244140625,-0.34474802017211914,-0.05807361751794815,0.7563633322715759
1772796795239994400,3.883994384765625,-0.35503458976745605,0.11728877574205399,0.539897084236145
1772796795249986300,3.893986328125,-0.31319233775138855,0.33127695322036743,0.31821104884147644
1772796795259979300,3.903979248046875,-0.2571329176425934,0.5062965750694275,0.11078175902366638
1772796795269971500,3.913971435546875,-0.2246309071779251,0.6563616991043091,-0.014112772420048714
1772796795279963100,3.923963134765625,-0.22865915298461914,0.7034270763397217,-0.05736641213297844
1772796795289955300,3.933955322265625,-0.28005897998809814,0.5567960739135742,-0.03208449110388756
1772796795299948300,3.9439482421875,-0.36678069829940796,0.3553657829761505,0.049754563719034195
1772796795309940200,3.953940185546875,-0.4331898093223572,0.14161540567874908,0.14082935452461243
1772796795319932200,3.96393212890625,-0.4333310127258301,-0.03466480225324631,0.25068315863609314
1772796795329924400,3.97392431640625,-0.3861403167247772,-0.03490501642227173,0.3892780542373657
1772796795339916300,3.983916259765625,-0.3320348858833313,0.14340171217918396,0.5255282521247864
1772796795349909200,3.9939091796875,-0.28980833292007446,0.32787540555000305,0.6202861666679382
1772796795359901400,4.0039013671875,-0.29441121220588684,0.2852415144443512,0.68697190284729
1772796795369893400,4.013893310546875,-0.3250732719898224,0.00859527476131916,0.7244093418121338
1772796795379885300,4.02388525390625,-0.375665545463562,-0.21250540018081665,0.6931689977645874
1772796795389878300,4.033878173828125,-0.45397207140922546,-0.30338922142982483,0.580679714679718
1772796795399870500,4.043870361328125,-0.4769599139690399,-0.2879762053489685,0.434606671333313
1772796795409862400,4.0538623046875,-0.46036121249198914,-0.35859259963035583,0.338223397731781
1772796795419854300,4.063854248046875,-0.4368337392807007,-0.6178303956985474,0.2463488131761551
1772796795429846300,4.07384619140625,-0.347929447889328,-0.6819877624511719,0.21715551614761353
1772796795439839500,4.083839599609375,-0.11642050743103027,-0.3594173491001129,0.1341249942779541
1772796795449831200,4.0938310546875,0.10757584124803543,-0.17721079289913177,0.04361959174275398
1772796795459823400,4.1038232421875,0.13282428681850433,-0.28541100025177,0.14423102140426636
1772796795469815300,4.113815185546875,-0.02312137931585312,-0.3229048550128937,0.4602952301502228
1772796795479808300,4.123808349609375,-0.09019628912210464,-0.05777943879365921,0.7890757918357849
1772796795489800200,4.13380029296875,-0.06565073132514954,0.22296620905399323,0.709123969078064
1772796795499792400,4.14379248046875,-0.11318350583314896,0.5114861130714417,0.1377539485692978
1772796795509784300,4.153784423828125,-0.33143460750579834,0.6239031553268433,-0.6771709322929382
1772796795519776300,4.1637763671875,-0.5324473977088928,0.46901440620422363,-1.4607627391815186
1772796795529769500,4.17376953125,-0.6364496946334839,0.16151440143585205,-2.0978167057037354
1772796795539761400,4.183761474609375,-0.7143856287002563,-0.24075038731098175,-2.3287551403045654
1772796795549753300,4.19375341796875,-0.7600002288818359,-0.5462821125984192,-1.8225681781768799
1772796795559745300,4.203745361328125,-0.6702756881713867,-0.7055772542953491,-0.9518791437149048
1772796795569738500,4.213738525390625,-0.5023308396339417,-0.6141784191131592,-0.4350397288799286
1772796795579730200,4.223730224609375,-0.3490753173828125,-0.43087759613990784,-0.14376750588417053
1772796795589722400,4.233722412109375,-0.27669939398765564,-0.4174661934375763,0.08767503499984741
1772796795599714300,4.24371435546875,-0.2563643753528595,-0.49161842465400696,0.27477380633354187
1772796795609706500,4.25370654296875,-0.23317250609397888,-0.5291425585746765,0.262925922870636
1772796795619699200,4.26369921875,-0.2026745080947876,-0.45435258746147156,0.026134317740797997
1772796795629691400,4.27369140625,-0.16213135421276093,-0.2748502194881439,-0.2757110297679901
1772796795639683300,4.283683349609375,-0.13938526809215546,-0.1777835339307785,-0.4638696014881134
1772796795649675300,4.29367529296875,-0.10250367969274521,-0.1687341034412384,-0.36290571093559265
1772796795659668500,4.30366845703125,-0.03224783390760422,-0.21252138912677765,0.04270080104470253
1772796795669660400,4.313660400390625,0.03843805193901062,-0.2590601146221161,0.5576275587081909
1772796795679652000,4.323652099609375,0.046179354190826416,-0.24471423029899597,0.9593073725700378
1772796795689644300,4.333644287109375,-0.02805226296186447,-0.15142343938350677,1.0927157402038574
1772796795699636200,4.34363623046875,-0.15423275530338287,-0.08885278552770615,0.9216233491897583
1772796795709629200,4.353629150390625,-0.2693614661693573,-0.10382374376058578,0.5736683011054993
1772796795719621400,4.363621337890625,-0.35337793827056885,-0.07726653665304184,0.1826268434524536
1772796795729613300,4.37361328125,-0.40224722027778625,0.05142353102564812,-0.1735975742340088
1772796795739605500,4.38360546875,-0.3899903893470764,0.1475992351770401,-0.4216696619987488
1772796795749598200,4.39359814453125,-0.3339100778102875,0.19833271205425262,-0.5376524329185486
1772796795759590400,4.40359033203125,-0.25188055634498596,0.26336434483528137,-0.5276644825935364
1772796795769582300,4.413582275390625,-0.1502884179353714,0.3006714880466461,-0.4770742654800415
1772796795779574300,4.42357421875,-0.050968267023563385,0.28896233439445496,-0.4323790669441223
1772796795789566200,4.433566162109375,0.005505927838385105,0.34642961621284485,-0.36458268761634827
1772796795799559400,4.443559326171875,0.03191593289375305,0.3994515836238861,-0.29095619916915894
1772796795809551400,4.45355126953125,0.04954819008708,0.4211113452911377,-0.2587157189846039
1772796795819543300,4.463543212890625,0.06915388256311417,0.43686380982398987,-0.28845927119255066
1772796795829535200,4.47353515625,0.09850112348794937,0.4417933225631714,-0.33736318349838257
1772796795839528400,4.483528564453125,0.09913082420825958,0.3380098342895508,-0.3919491171836853
1772796795849520400,4.493520263671875,0.07456529140472412,0.1948406845331192,-0.3834030330181122
1772796795859512300,4.50351220703125,0.060975655913352966,0.061688899993896484,-0.27051424980163574
1772796795869504300,4.513504150390625,0.05887468531727791,-0.08586966246366501,-0.10720227658748627
1772796795879496400,4.523496337890625,0.07860494405031204,-0.21841125190258026,0.0822751447558403
1772796795889489400,4.533489501953125,0.10503734648227692,-0.33429497480392456,0.26698559522628784
1772796795899481300,4.5434814453125,0.1306072324514389,-0.4758288264274597,0.41101670265197754
1772796795909473500,4.5534736328125,0.1542593091726303,-0.600443422794342,0.556672215461731
1772796795919465200,4.56346533203125,0.18768136203289032,-0.7000804543495178,0.7031650543212891
1772796795929457400,4.57345751953125,0.2684137523174286,-0.814763069152832,0.6799407005310059
1772796795939450400,4.583450439453125,0.40225252509117126,-0.6684980392456055,0.39306142926216125
1772796795949442300,4.5934423828125,0.41631242632865906,-0.33084067702293396,-0.05874652788043022
1772796795959434200,4.603434326171875,0.28787195682525635,0.22737275063991547,-0.2334940880537033
1772796795969426400,4.613426513671875,0.163250133395195,0.7084168791770935,0.1266036480665207
1772796795979419100,4.623419189453125,0.1964564323425293,0.801035463809967,0.8250590562820435
1772796795989411300,4.633411376953125,0.3259153664112091,0.7423418164253235,1.3849897384643555
1772796795999403300,4.6434033203125,0.5421465635299683,0.8510304689407349,1.4117813110351562
1772796796009395500,4.6533955078125,0.6490916609764099,1.0739446878433228,0.6978914141654968
1772796796019388400,4.663388427734375,0.5098501443862915,1.297940969467163,-0.8652713298797607
1772796796029380400,4.67338037109375,0.35618868470191956,1.1577266454696655,-2.477048635482788
1772796796039372500,4.68337255859375,0.3521662950515747,0.805758535861969,-2.831049919128418
1772796796049364200,4.6933642578125,0.2420261949300766,0.5200232267379761,-2.293656349182129
1772796796059356200,4.703356201171875,0.07870618253946304,0.3436497449874878,-1.394851803779602
1772796796069349400,4.713349365234375,-0.04014936462044716,0.265737384557724,-0.35067859292030334
1772796796079341300,4.72334130859375,-0.11570972204208374,0.10102427750825882,0.6061306595802307
1772796796089333200,4.733333251953125,-0.11432008445262909,-0.05437063053250313,1.365479588508606
1772796796099325400,4.743325439453125,-0.08793153613805771,-0.19735588133335114,1.8185642957687378
1772796796109318100,4.753318115234375,-0.10036743432283401,-0.3691686689853668,1.8144749402999878
1772796796119310300,4.763310302734375,-0.16037587821483612,-0.4251495897769928,1.410213828086853
1772796796129302300,4.77330224609375,-0.18313391506671906,-0.33771613240242004,0.8174048066139221
1772796796139294500,4.78329443359375,-0.15167520940303802,-0.12559960782527924,0.19570091366767883
1772796796149286700,4.79328662109375,-0.11160821467638016,0.09159157425165176,-0.29406771063804626
1772796796159279600,4.803279541015625,-0.0764627754688263,0.10657596588134766,-0.46675369143486023
1772796796169271800,4.813271728515625,-0.03942833095788956,-0.09583678841590881,-0.267389714717865
1772796796179263500,4.823263427734375,-0.0659346953034401,-0.39610105752944946,0.1796213686466217
1772796796189255700,4.833255615234375,-0.13574358820915222,-0.653461217880249,0.6280127763748169
1772796796199247600,4.84324755859375,-0.20061171054840088,-0.7725038528442383,0.925478458404541
1772796796209240600,4.853240478515625,-0.25136488676071167,-0.7100037336349487,1.0608397722244263
1772796796219232500,4.863232421875,-0.28790736198425293,-0.49929124116897583,1.0243085622787476
1772796796229224700,4.873224609375,-0.30935460329055786,-0.21642065048217773,0.8121264576911926
1772796796239216600,4.883216552734375,-0.31012821197509766,0.1033288985490799,0.46485838294029236
1772796796249209600,4.893209716796875,-0.26331862807273865,0.4289110004901886,0.08520239591598511
1772796796259201800,4.903201904296875,-0.16861923038959503,0.6709486246109009,-0.24206842482089996
1772796796269193700,4.91319384765625,-0.06685104966163635,0.7690865993499756,-0.4433157742023468
1772796796279185700,4.923185546875,0.01564670540392399,0.6997776627540588,-0.4802708625793457
1772796796289177600,4.933177490234375,0.0977008268237114,0.5297566652297974,-0.4222126305103302
1772796796299170800,4.9431708984375,0.19115272164344788,0.390707790851593,-0.3369881808757782
1772796796309162500,4.95316259765625,0.2826983332633972,0.32690566778182983,-0.2791259288787842
1772796796319154700,4.96315478515625,0.36281174421310425,0.2844547927379608,-0.26912352442741394
1772796796329146600,4.973146728515625,0.44897404313087463,0.20041397213935852,-0.23604093492031097
1772796796339139600,4.9831396484375,0.4921276271343231,0.10754043608903885,-0.2099982351064682
1772796796349131500,4.993131591796875,0.48206618428230286,0.012565180659294128,-0.2149362713098526
1772796796359123700,5.003123779296875,0.4543570280075073,-0.17320279777050018,-0.19803237915039062
1772796796369115600,5.01311572265625,0.4302721917629242,-0.339067667722702,-0.12962296605110168
1772796796379107800,5.02310791015625,0.37419718503952026,-0.45722419023513794,-0.05414964631199837
1772796796389100500,5.0331005859375,0.26068660616874695,-0.5329424142837524,-0.03962290287017822
1772796796399092700,5.0430927734375,0.15766221284866333,-0.6474379897117615,-0.05972300469875336
1772796796409084700,5.053084716796875,0.07603978365659714,-0.7287741303443909,-0.07479117065668106
1772796796419076600,5.06307666015625,0.00998782366514206,-0.6877303123474121,-0.06769993156194687
1772796796429069800,5.07306982421875,-0.09606111794710159,-0.6173357367515564,-0.028393805027008057
1772796796439061800,5.083061767578125,-0.1425173133611679,-0.6015368103981018,0.05238249525427818
1772796796449053700,5.0930537109375,-0.07266739755868912,-0.4797925353050232,0.07734110206365585
1772796796459045600,5.103045654296875,0.07933355122804642,0.035467732697725296,0.010940579697489738
1772796796469037800,5.113037841796875,0.27079057693481445,0.7203384637832642,0.10845860838890076
1772796796479030500,5.123030517578125,0.3844536244869232,0.9655818939208984,0.5710312724113464
1772796796489022700,5.133022705078125,0.3401881456375122,1.0713602304458618,1.0474705696105957
1772796796499014700,5.1430146484375,0.2105940878391266,0.8585578799247742,1.1011221408843994
1772796796509006800,5.1530068359375,-0.005936610046774149,0.7506721615791321,0.3973066806793213
1772796796518998500,5.16299853515625,-0.30837222933769226,0.9800482392311096,-1.1037143468856812
1772796796528991700,5.17299169921875,-0.48414379358291626,1.0184987783432007,-2.7109179496765137
1772796796538983700,5.182983642578125,-0.4745326340198517,0.6232963800430298,-3.3474221229553223
1772796796548975600,5.1929755859375,-0.3717963993549347,0.12606796622276306,-2.8104608058929443
1772796796558967600,5.202967529296875,-0.13555867969989777,-0.3267630934715271,-1.866816759109497
1772796796568960800,5.212960693359375,0.0534898117184639,-0.46047428250312805,-0.8937349915504456
1772796796578952400,5.222952392578125,0.05716931074857712,-0.42767244577407837,-0.0433727502822876
1772796796588944600,5.232944580078125,0.02258976362645626,-0.3954327702522278,0.6107882857322693
1772796796598936600,5.2429365234375,-0.02577115409076214,-0.3777078688144684,0.9870563745498657
1772796796608928800,5.2529287109375,-0.1007750928401947,-0.38868942856788635,1.0516319274902344
1772796796618921700,5.262921630859375,-0.1627686768770218,-0.4480023682117462,0.832760751247406
1772796796628913700,5.27291357421875,-0.21482016146183014,-0.39786890149116516,0.4500119984149933
1772796796638905900,5.28290576171875,-0.171696737408638,-0.16875310242176056,0.06645872443914413
1772796796648897500,5.2928974609375,-0.04342611879110336,0.0399995818734169,-0.1929246336221695
1772796796658890800,5.302890869140625,0.08984625339508057,0.11311617493629456,-0.23081623017787933
1772796796668882700,5.312882568359375,0.21598714590072632,0.026456113904714584,-0.032440830022096634
1772796796678874600,5.32287451171875,0.31902971863746643,-0.139353409409523,0.3341153562068939
1772796796688866600,5.332866455078125,0.3552663028240204,-0.2784785330295563,0.7213131189346313
1772796796698858800,5.342858642578125,0.3019891083240509,-0.3648092746734619,0.9707829356193542
1772796796708851500,5.3528515625,0.1855144202709198,-0.3808843791484833,1.029424786567688
1772796796718843600,5.36284375,0.052623946219682693,-0.3179272711277008,0.8930874466896057
1772796796728835600,5.372835693359375,-0.0879688560962677,-0.1984325796365738,0.6031888127326965
1772796796738827800,5.382827880859375,-0.18699431419372559,-0.023563247174024582,0.2340104877948761
1772796796748820500,5.392820556640625,-0.22398215532302856,0.14410404860973358,-0.12364805489778519
1772796796758812700,5.402812744140625,-0.2127586007118225,0.25990739464759827,-0.39462339878082275
1772796796768804600,5.4128046875,-0.16889581084251404,0.338789165019989,-0.5505977869033813
1772796796778796800,5.422796875,-0.11268292367458344,0.3802194595336914,-0.5773207545280457
1772796796788788500,5.43278857421875,-0.08013136684894562,0.3660503625869751,-0.4762127697467804
1772796796798781700,5.44278173828125,-0.07254420965909958,0.2612191438674927,-0.3173055052757263
1772796796808773600,5.452773681640625,-0.0907229483127594,0.05004299804568291,-0.1615566462278366
1772796796818765600,5.462765625,-0.08619732409715652,-0.17171725630760193,-0.029286004602909088
1772796796828757800,5.4727578125,-0.06493677198886871,-0.2887466847896576,0.004937213379889727
1772796796838750700,5.482750732421875,-0.025857439264655113,-0.3004562258720398,-0.06491408497095108
1772796796848742700,5.49274267578125,0.02814107947051525,-0.21449019014835358,-0.13893930613994598
1772796796858734600,5.502734619140625,0.06744134426116943,-0.12307611852884293,-0.1986103504896164
1772796796868726800,5.512726806640625,0.09646794199943542,-0.1656334400177002,-0.22226721048355103
1772796796878718700,5.52271875,0.12916620075702667,-0.3990391492843628,-0.18513204157352448
1772796796888711700,5.532711669921875,0.11706239730119705,-0.7166754007339478,-0.1097259670495987
1772796796898703600,5.54270361328125,0.06952740252017975,-1.0563561916351318,-0.003912090323865414
1772796796908695800,5.55269580078125,0.035094600170850754,-1.2727793455123901,0.16145315766334534
1772796796918687500,5.5626875,0.046371329575777054,-1.2181918621063232,0.44798457622528076
1772796796928680700,5.5726806640625,0.07581417262554169,-0.9529822468757629,0.9027683138847351
1772796796938672600,5.582672607421875,0.0919933021068573,-0.599055290222168,1.468343734741211
1772796796948664600,5.59266455078125,0.06960490345954895,-0.24541357159614563,1.8560606241226196
1772796796958656500,5.602656494140625,0.03446231037378311,0.14384321868419647,1.830588936805725
1772796796968648700,5.612648681640625,-0.002812891500070691,0.46909722685813904,1.4876511096954346
1772796796978641700,5.6226416015625,-0.21796603500843048,0.4588402211666107,1.338496446609497
1772796796988633600,5.632633544921875,-0.34470322728157043,-0.19687743484973907,1.4436028003692627
1772796796998625800,5.642625732421875,-0.28634583950042725,-0.7539315223693848,1.1388567686080933
1772796797008617700,5.65261767578125,-0.2624852657318115,-0.5038590431213379,-0.04810746759176254
1772796797018609700,5.662609619140625,-0.49943578243255615,0.14896702766418457,-2.131401538848877
1772796797028602600,5.6726025390625,-0.8814629912376404,0.9592475891113281,-4.183224678039551
1772796797038594800,5.6825947265625,-1.03067147731781,0.9611737132072449,-4.859309673309326
1772796797048586500,5.69258642578125,-1.0407054424285889,0.22452682256698608,-3.8440215587615967
1772796797058578700,5.70257861328125,-0.900384783744812,-0.2201220691204071,-1.9628582000732422
1772796797068571600,5.712571533203125,-0.6321887373924255,-0.28057661652565,-0.6522366404533386
1772796797078563600,5.7225634765625,-0.36189624667167664,-0.019764326512813568,-0.08126618713140488
1772796797088555500,5.732555419921875,-0.19995315372943878,0.26942116022109985,0.046257954090833664
1772796797098547700,5.742547607421875,-0.14312314987182617,0.4466829299926758,-0.05414359271526337
1772796797108539600,5.75253955078125,-0.14050471782684326,0.3380533754825592,-0.18302780389785767
1772796797118532600,5.76253271484375,-0.1872515082359314,0.027775876224040985,-0.19673331081867218
1772796797128524500,5.772524658203125,-0.2466842085123062,-0.31482994556427,-0.08324351161718369
1772796797138516700,5.782516845703125,-0.2624967396259308,-0.5325078964233398,0.08333145827054977
1772796797148508700,5.7925087890625,-0.21796786785125732,-0.4931575059890747,0.2977406978607178
1772796797158501600,5.802501708984375,-0.10391511023044586,-0.2913699448108673,0.5857067704200745
1772796797168493800,5.812493896484375,0.05243268609046936,-0.1444564163684845,0.9416755437850952
1772796797178485500,5.822485595703125,0.17268691956996918,-0.05854691192507744,1.2593185901641846
1772796797188477700,5.832477783203125,0.24033227562904358,-0.010650226846337318,1.420054316520691
1772796797198469600,5.8424697265625,0.25692668557167053,0.02416376769542694,1.4057679176330566
1772796797208462600,5.852462646484375,0.20270927250385284,0.07841955125331879,1.1896717548370361
1772796797218454500,5.86245458984375,0.11731299757957458,0.05732155591249466,0.7890260219573975
1772796797228446700,5.87244677734375,0.05203598365187645,0.03174348920583725,0.2783968448638916
1772796797238438700,5.882438720703125,0.053156837821006775,0.08867837488651276,-0.19459186494350433
1772796797248430800,5.892430908203125,0.07639691978693008,0.14688868820667267,-0.5150098204612732
1772796797258423600,5.902423583984375,0.07968013733625412,0.15530341863632202,-0.6222132444381714
1772796797268415700,5.912415771484375,0.06740429252386093,0.11050586402416229,-0.5239636301994324
1772796797278407700,5.92240771484375,0.020146606490015984,0.0666017085313797,-0.3180202543735504
1772796797288399600,5.932399658203125,-0.029321877285838127,0.044975243508815765,-0.09102624654769897
1772796797298392800,5.942392822265625,-0.07421359419822693,0.06475366652011871,0.07839714735746384
1772796797308384800,5.952384765625,-0.0907646045088768,0.20587536692619324,0.19053247570991516
1772796797318376700,5.962376708984375,-0.07322446256875992,0.4329897165298462,0.2621680796146393
1772796797328368600,5.97236865234375,-0.03565072640776634,0.6401873826980591,0.3154315650463104
1772796797338360600,5.982360595703125,0.05031019076704979,0.7807174921035767,0.3471011221408844
1772796797348353500,5.992353515625,0.12973551452159882,0.8383573293685913,0.3320332169532776
1772796797358345700,6.002345703125,0.16947884857654572,0.7765744924545288,0.28601813316345215
1772796797368337700,6.012337646484375,0.15966136753559113,0.5633857846260071,0.21866145730018616
1772796797378329900,6.022329833984375,0.14039187133312225,0.2647990882396698,0.16147489845752716
1772796797388322600,6.032322509765625,0.1295035481452942,0.03201696276664734,0.13793574273586273
1772796797398314800,6.042314697265625,0.08587217330932617,-0.08627133816480637,0.17150728404521942
1772796797408306700,6.052306640625,0.03344332054257393,-0.2174767553806305,0.24706968665122986
1772796797418298600,6.062298583984375,-0.033309608697891235,-0.4485512375831604,0.36979159712791443
1772796797428290600,6.07229052734375,-0.1353406310081482,-0.6444051861763,0.5610721111297607
1772796797438283800,6.08228369140625,-0.22770652174949646,-0.6720747947692871,0.7072805166244507
1772796797448275500,6.092275390625,-0.15608879923820496,-0.4257529079914093,0.6801045536994934
1772796797458267600,6.102267578125,0.037358518689870834,0.1670156568288803,0.5657826066017151
1772796797468259600,6.112259521484375,0.2684694826602936,0.9371967911720276,0.6293219327926636
1772796797478252500,6.12225244140625,0.47387760877609253,1.4677621126174927,1.006349802017212
1772796797488244700,6.13224462890625,0.5981435775756836,1.5247822999954224,1.40413498878479
1772796797498236700,6.142236572265625,0.5966119766235352,1.3666071891784668,1.3708292245864868
1772796797508228900,6.152228759765625,0.46428775787353516,1.0910528898239136,0.8533898591995239
1772796797518220500,6.162220458984375,0.2550067901611328,0.8293160200119019,0.001536334166303277
1772796797528213800,6.1722138671875,0.08400309085845947,0.6211050152778625,-0.9212122559547424
1772796797538205700,6.182205810546875,0.10442614555358887,0.11994104832410812,-1.508043885231018
1772796797548197600,6.19219775390625,0.20350585877895355,-0.27749472856521606,-1.404708743095398
1772796797558189600,6.202189453125,0.4554326832294464,-0.43611395359039307,-0.6395918726921082
1772796797568182800,6.212182861328125,0.7737515568733215,-0.5315760374069214,0.1389443725347519
1772796797578174500,6.222174560546875,0.9203246831893921,-0.26875510811805725,0.719309389591217
1772796797588166700,6.232166748046875,0.9619001150131226,0.24948617815971375,1.0500420331954956
1772796797598158600,6.24215869140625,0.9845855236053467,0.8335561156272888,1.1314665079116821
1772796797608150800,6.25215087890625,1.0044900178909302,1.3702232837677002,1.0519450902938843
1772796797618143500,6.2621435546875,0.93375164270401,1.5730034112930298,0.7041678428649902
1772796797628135700,6.2721357421875,0.6301030516624451,1.1245715618133545,0.038878533989191055
1772796797638127600,6.282127685546875,0.2517009675502777,0.3389055132865906,-0.627064049243927
1772796797648119800,6.292119873046875,-0.028149854391813278,-0.36103367805480957,-1.0093475580215454
1772796797658112800,6.30211279296875,-0.19062402844429016,-0.825629472732544,-0.9890799522399902
1772796797668104700,6.312104736328125,-0.27419430017471313,-1.1384214162826538,-0.6414878964424133
1772796797678097000,6.322096923828125,-0.3252130448818207,-1.3578996658325195,-0.12283546477556229
1772796797688088600,6.332088623046875,-0.35348090529441833,-1.490010380744934,0.4492530822753906
1772796797698080800,6.342080810546875,-0.37464264035224915,-1.4925721883773804,0.974592924118042
1772796797708073700,6.35207373046875,-0.3866231143474579,-1.3184754848480225,1.3310391902923584
1772796797718065700,6.362065673828125,-0.39780014753341675,-0.9276809692382812,1.3823094367980957
1772796797728057600,6.3720576171875,-0.3998633027076721,-0.44074007868766785,1.155902624130249
1772796797738049800,6.3820498046875,-0.41120675206184387,0.022844184190034866,0.7531651258468628
1772796797748041700,6.392041748046875,-0.44472983479499817,0.3206588327884674,0.28332623839378357
1772796797758034700,6.40203466796875,-0.4699274003505707,0.4487919807434082,-0.1490093171596527
1772796797768026600,6.412026611328125,-0.4581727385520935,0.4465935528278351,-0.490034818649292
1772796797778018800,6.422018798828125,-0.43400850892066956,0.36365780234336853,-0.7167002558708191
1772796797788010500,6.432010498046875,-0.3986092507839203,0.3189702332019806,-0.8487634658813477
1772796797798003700,6.442003662109375,-0.34297165274620056,0.34813442826271057,-0.9003272652626038
1772796797807995600,6.45199560546875,-0.29570668935775757,0.458797812461853,-0.9297775626182556
1772796797817987600,6.461987548828125,-0.2846379280090332,0.550205647945404,-0.9391984343528748
1772796797827979500,6.4719794921875,-0.3288370966911316,0.4988841414451599,-0.9707697033882141
1772796797837971700,6.4819716796875,-0.38912901282310486,0.3464994728565216,-1.0109671354293823
1772796797847964700,6.491964599609375,-0.4231434464454651,0.17069248855113983,-1.0200046300888062
1772796797857956600,6.50195654296875,-0.39331331849098206,0.052104830741882324,-0.9678717255592346
1772796797867948800,6.51194873046875,-0.324840247631073,-0.04227573052048683,-0.8907058238983154
1772796797877940700,6.521940673828125,-0.23655465245246887,-0.11347424983978271,-0.8003135919570923
1772796797887933700,6.53193359375,-0.15823374688625336,-0.19705970585346222,-0.694987952709198
1772796797897925600,6.541925537109375,-0.12931355834007263,-0.33664020895957947,-0.5742214918136597
1772796797907917800,6.551917724609375,-0.21127288043498993,-0.5289337635040283,-0.4624387323856354
1772796797917909500,6.561909423828125,-0.3864700198173523,-0.7712194919586182,-0.34306302666664124
1772796797927901700,6.571901611328125,-0.6102791428565979,-0.9355639815330505,-0.13078802824020386
1772796797937894700,6.581894775390625,-0.8481017351150513,-0.936533510684967,0.16265824437141418
1772796797947886600,6.591886474609375,-1.0451478958129883,-0.9125317931175232,0.41856271028518677
1772796797957878500,6.60187841796875,-1.1428669691085815,-0.8430843949317932,0.4974415600299835
1772796797967870700,6.61187060546875,-1.0686845779418945,-0.7158135175704956,0.25639164447784424
1772796797977862700,6.621862548828125,-0.862748920917511,-0.4599960446357727,-0.20332710444927216
1772796797987855600,6.631855712890625,-0.5848627686500549,-0.16690370440483093,-0.5116449594497681
1772796797997847600,6.64184765625,-0.337725430727005,-0.12718626856803894,-0.3670230507850647
1772796798007839700,6.65183984375,-0.23293456435203552,-0.292759507894516,0.0946338102221489
1772796798017831700,6.661831787109375,-0.32664889097213745,-0.4912700057029724,0.2753686308860779
1772796798027824600,6.67182470703125,-0.5298230648040771,-0.31969743967056274,-0.31604140996932983
1772796798037816800,6.68181689453125,-0.6947689056396484,-0.016454650089144707,-1.4338816404342651
1772796798047808800,6.691808837890625,-0.7653330564498901,0.24102161824703217,-2.3372421264648438
1772796798057800700,6.70180078125,-0.714595377445221,0.4570746123790741,-2.5096864700317383
1772796798067792600,6.711792724609375,-0.5353369116783142,0.5528706312179565,-2.2417209148406982
1772796798077785900,6.721785888671875,-0.35037288069725037,0.5822831988334656,-1.7242233753204346
1772796798087777500,6.731777587890625,-0.20574142038822174,0.7502530217170715,-0.88375324010849
1772796798097769700,6.741769775390625,-0.04899577423930168,0.9289928078651428,0.0640624389052391
1772796798107761700,6.75176171875,0.10015934705734253,1.025964617729187,0.8863339424133301
1772796798117754600,6.761754638671875,0.21274642646312714,1.012061357498169,1.4206643104553223
1772796798127746600,6.77174658203125,0.2764689326286316,0.8943656086921692,1.5984361171722412
1772796798137738800,6.78173876953125,0.2562660574913025,0.6745427250862122,1.509186863899231
1772796798147730700,6.791730712890625,0.1757400631904602,0.29033565521240234,1.2887310981750488
1772796798157722600,6.80172265625,0.12302889674901962,-0.08643683046102524,1.0902626514434814
1772796798167715600,6.811715576171875,0.12783057987689972,-0.28894278407096863,1.0004459619522095
1772796798177707800,6.821707763671875,0.16038817167282104,-0.38686317205429077,1.0328861474990845
1772796798187699500,6.831699462890625,0.22137482464313507,-0.37717804312705994,1.159030795097351
1772796798197691600,6.841691650390625,0.30013132095336914,-0.2482026219367981,1.3432533740997314
1772796798207684900,6.851684814453125,0.33819401264190674,-0.11338301002979279,1.5056817531585693
1772796798217676500,6.861676513671875,0.3077469766139984,-0.032828476279973984,1.590120792388916
1772796798227668700,6.871668701171875,0.24762502312660217,0.016505518928170204,1.5821449756622314
1772796798237660700,6.88166064453125,0.18115925788879395,0.057884275913238525,1.4776796102523804
1772796798247652900,6.89165283203125,0.1204809918999672,0.14642399549484253,1.2769901752471924
1772796798257645600,6.9016455078125,0.07704976946115494,0.23896117508411407,1.0156091451644897
1772796798267637800,6.9116376953125,0.06068011373281479,0.30021148920059204,0.7481809258460999
1772796798277629700,6.921629638671875,0.05930543318390846,0.2898840606212616,0.5055031180381775
1772796798287621600,6.93162158203125,0.022194551303982735,0.22760847210884094,0.2776907682418823
1772796798297613600,6.941613525390625,-0.006274116691201925,0.18835516273975372,0.09005145728588104
1772796798307606800,6.951606689453125,-0.010240096598863602,0.18854370713233948,-0.08229660242795944
1772796798317598500,6.961598388671875,-0.005846722051501274,0.2648983299732208,-0.22477447986602783
1772796798327590700,6.971590576171875,0.012326156720519066,0.4089508354663849,-0.28431451320648193
1772796798337582600,6.98158251953125,0.0772525817155838,0.6027894616127014,-0.2587190866470337
1772796798347575600,6.991575439453125,0.1727151870727539,0.8284177780151367,-0.1704816371202469
1772796798357567500,7.0015673828125,0.28732576966285706,1.0361684560775757,-0.05526933819055557
1772796798367559700,7.0115595703125,0.3527745306491852,1.1283910274505615,0.010822596028447151
1772796798377551600,7.021551513671875,0.39173054695129395,1.0995293855667114,0.013677419163286686
1772796798387543600,7.03154345703125,0.3639524579048157,1.1354783773422241,0.06935692578554153
1772796798397536800,7.041536865234375,0.2995789647102356,0.7909175753593445,-0.054536014795303345
1772796798407528700,7.05152880859375,0.25821128487586975,0.31719261407852173,-0.21299009025096893
1772796798417520600,7.061520751953125,0.2393115758895874,0.0588369220495224,-0.31522127985954285
1772796798427512600,7.0715126953125,0.20171093940734863,-0.13794192671775818,-0.4020773470401764
1772796798437504800,7.0815048828125,0.1442476511001587,-0.3875791132450104,-0.393297016620636
1772796798447497700,7.091497802734375,0.060644909739494324,-0.761019766330719,-0.3177870810031891
