time,seconds_elapsed,z,y,x
1772721575546957000,0.07795703125,0,0,0
1772721575565553000,0.096552978515625,0.26935863494873047,-0.06209993362426758,0.2865307331085205
1772721575584149000,0.11514892578125,-0.1719799041748047,-0.02538776397705078,0.45406800508499146
1772721575602744800,0.133744873046875,-1.176534652709961,-0.3208043575286865,0.46004927158355713
1772721575621341000,0.1523408203125,-0.8790502548217773,0.33352136611938477,0.1353520154953003
1772721575639936800,0.170936767578125,0.26160717010498047,0.8053429126739502,-0.5816121101379395
1772721575658532900,0.189532958984375,0.7525930404663086,0.3816947937011719,-0.7364636659622192
1772721575677128700,0.208128662109375,0.6864681243896484,-0.5233379602432251,-0.40718090534210205
1772721575695724800,0.226724853515625,0.9202260971069336,-0.8767490386962891,0.7911723256111145
1772721575714320600,0.245320556640625,0.1994009017944336,-1.6109815835952759,1.122218370437622
1772721575732916700,0.263916748046875,-1.1066169738769531,-1.1369857788085938,0.2484663724899292
1772721575751512600,0.2825126953125,-2.480882167816162,-0.9273221492767334,-1.0843353271484375
1772721575770108700,0.301108642578125,-2.829747200012207,-0.7387257814407349,-1.9048858880996704
1772721575788704800,0.319704833984375,-1.425180435180664,-0.8733611106872559,-1.3304356336593628
1772721575807300600,0.338300537109375,0.8453197479248047,-1.5269768238067627,-0.34165191650390625
1772721575825896700,0.356896728515625,2.5272111892700195,-2.115334987640381,1.2793991565704346
1772721575844492500,0.375492431640625,2.43685245513916,-2.1028997898101807,1.7324504852294922
1772721575863088400,0.39408837890625,0.34208202362060547,-1.629666805267334,0.7457126379013062
1772721575881684500,0.4126845703125,-1.4073724746704102,-1.0621778964996338,0.23654040694236755
1772721575900280600,0.431280517578125,-2.629796028137207,-0.6781367063522339,0.3516273498535156
1772721575918876400,0.44987646484375,-3.5097923278808594,-0.4032372236251831,-0.8258751034736633
1772721575937472500,0.468472412109375,-3.449843406677246,-0.35320329666137695,-0.2044583559036255
1772721575956068400,0.487068359375,-2.4770755767822266,-0.023913264274597168,0.4855976104736328
1772721575974664400,0.50566455078125,-1.6663951873779297,0.10708075761795044,0.8327646255493164
1772721575993260300,0.52426025390625,-1.368570327758789,0.256430983543396,0.5328999757766724
1772721576011856400,0.5428564453125,-1.828761100769043,0.09810233116149902,0.33402276039123535
1772721576030452500,0.561452392578125,-2.530886650085449,0.27275219559669495,-1.1703132390975952
1772721576049048300,0.58004833984375,-2.567971706390381,0.5348465442657471,-1.7159078121185303
1772721576067644200,0.59864404296875,-1.2940173149108887,0.41779354214668274,-0.7322899103164673
1772721576086240300,0.617240234375,0.0020322799682617188,0.47128725051879883,0.8917438387870789
1772721576104836000,0.635836181640625,-1.070627212524414,0.6996819376945496,1.0016462802886963
1772721576123432200,0.65443212890625,-1.2504158020019531,-0.18679490685462952,-0.0442655086517334
1772721576142028000,0.673028076171875,-0.4181795120239258,-0.23389111459255219,0.027779221534729004
1772721576160624000,0.6916240234375,1.7840986251831055,0.4085915684700012,-0.09433090686798096
1772721576179220000,0.710219970703125,3.9411869049072266,1.3892498016357422,0.22036266326904297
1772721576197816000,0.728816162109375,7.960127830505371,1.4310472011566162,-0.984614372253418
1772721576216412200,0.747412109375,13.036357879638672,-0.46468019485473633,-0.8400431871414185
1772721576235008000,0.766008056640625,14.36294174194336,-2.1124470233917236,0.07212591171264648
1772721576253603800,0.784603759765625,10.961177825927734,-1.520848035812378,0.8546535968780518
1772721576272200000,0.803199951171875,5.8237457275390625,0.20724642276763916,1.3449187278747559
1772721576290796000,0.821796142578125,0.6582918167114258,2.076742172241211,1.1479241847991943
1772721576309392000,0.840391845703125,-0.3088550567626953,2.712653636932373,2.5990231037139893
1772721576327988000,0.858988037109375,3.8853254318237305,0.6962940096855164,3.132444143295288
1772721576346583800,0.877583740234375,6.18515682220459,-1.0210886001586914,1.6597901582717896
1772721576365179600,0.8961796875,5.069934844970703,-1.1779584884643555,-0.08588945865631104
1772721576383775700,0.914775634765625,1.3453445434570312,-0.6786002516746521,-0.7305804491043091
1772721576402371800,0.933371826171875,-3.6059927940368652,-0.31538355350494385,-1.1069014072418213
1772721576420967700,0.9519677734375,-7.468684673309326,-0.18838384747505188,-0.842699408531189
1772721576439563800,0.970563720703125,-9.061807632446289,-0.32676005363464355,0.4108462929725647
1772721576458159600,0.98915966796875,-9.354513168334961,-0.593886137008667,0.5761374235153198
1772721576476755700,1.007755615234375,-9.048255920410156,-0.686647355556488,0.38995203375816345
1772721576495351600,1.0263515625,-9.962435722351074,-0.8822050094604492,-0.7797623872756958
1772721576513947600,1.04494775390625,-11.14118480682373,-0.908204197883606,-2.147101402282715
1772721576532543500,1.06354345703125,-11.024669647216797,-0.8598513603210449,-1.9304628372192383
1772721576551139300,1.082139404296875,-9.851489067077637,-0.7176518440246582,-1.0966724157333374
1772721576569735400,1.1007353515625,-8.65151596069336,-0.395766943693161,-0.7435894012451172
1772721576588331500,1.11933154296875,-8.137288093566895,-0.06672877073287964,-0.6991803050041199
1772721576606927400,1.13792724609375,-6.755859375,0.05786600708961487,-0.654371976852417
1772721576625523200,1.156523193359375,-3.0344972610473633,0.044465072453022,0.055356889963150024
1772721576644119300,1.175119384765625,0.015639305114746094,0.01385701447725296,0.17868460714817047
1772721576662715400,1.19371533203125,2.4029273986816406,0.7132665514945984,-1.3025671243667603
1772721576681311200,1.212311279296875,7.974602699279785,2.48992657661438,-1.886435866355896
1772721576699907300,1.2309072265625,18.875347137451172,1.9308536052703857,-1.0938079357147217
1772721576718503200,1.249503173828125,25.0235595703125,-1.123685598373413,-1.6109848022460938
1772721576737099000,1.26809912109375,22.811798095703125,-0.9439055323600769,-3.994624137878418
1772721576755695000,1.286695068359375,19.944942474365234,-0.07824695110321045,-3.356236696243286
1772721576774291200,1.305291259765625,16.020639419555664,0.9098443984985352,-1.5689786672592163
1772721576792887000,1.323886962890625,9.738019943237305,0.9626072645187378,1.0808111429214478
1772721576811483000,1.34248291015625,3.0334949493408203,1.4163360595703125,4.189720153808594
1772721576830079000,1.361078857421875,-0.11595439910888672,1.483168601989746,5.10270881652832
1772721576848675000,1.379675048828125,-0.34763145446777344,0.9795961976051331,4.300002574920654
1772721576867271000,1.39827099609375,-1.9810686111450195,0.20263028144836426,2.634758710861206
1772721576885866800,1.41686669921875,-5.237558841705322,-0.7006229162216187,1.6267679929733276
1772721576904462800,1.435462890625,-7.944285869598389,-1.3361108303070068,1.0816590785980225
1772721576923059000,1.454058837890625,-9.668625831604004,-1.491044044494629,0.9320781230926514
1772721576941654800,1.47265478515625,-10.600353240966797,-1.3785723447799683,1.3019325733184814
1772721576960251000,1.4912509765625,-11.054165840148926,-1.2043429613113403,1.8605430126190186
1772721576978846700,1.5098466796875,-12.221990585327148,-1.1637427806854248,1.547947883605957
1772721576997442600,1.528442626953125,-13.34287166595459,-1.1219804286956787,0.739211916923523
1772721577016038700,1.54703857421875,-13.819847106933594,-0.9353121519088745,0.23954224586486816
1772721577034634800,1.565634765625,-13.105392456054688,-0.48183026909828186,-0.026445508003234863
1772721577053230600,1.584230712890625,-11.430290222167969,-0.06653937697410583,0.20296037197113037
1772721577071826400,1.602826416015625,-9.109404563903809,0.2287115454673767,0.6563506722450256
1772721577090422500,1.621422607421875,-6.252302169799805,-0.07531830668449402,0.36092811822891235
1772721577109018600,1.6400185546875,-3.8323659896850586,-0.4189925491809845,0.3997355103492737
1772721577127614500,1.658614501953125,-1.4865460395812988,-0.7673019766807556,-0.08985614776611328
1772721577146210300,1.677210205078125,1.175689697265625,-0.8663045763969421,-0.26179933547973633
1772721577164806400,1.695806396484375,5.914740562438965,-0.20630279183387756,-1.0618653297424316
1772721577183402200,1.71440234375,8.887855529785156,1.361071228981018,-2.2517383098602295
1772721577201998300,1.732998291015625,11.387870788574219,0.8331815600395203,-1.7470823526382446
1772721577220594200,1.75159423828125,15.019079208374023,-1.0493444204330444,0.6412045955657959
1772721577239190300,1.770190185546875,16.586090087890625,-1.116242527961731,0.37835973501205444
1772721577257786000,1.7887861328125,14.059016227722168,-0.3414504826068878,-1.6459004878997803
1772721577276382200,1.80738232421875,11.926530838012695,0.8845605850219727,-1.9418902397155762
1772721577294978000,1.82597802734375,10.298705101013184,1.4927518367767334,-0.8982871770858765
1772721577313574100,1.84457421875,13.107110977172852,0.4511081576347351,-0.6599137783050537
1772721577332170000,1.863169921875,14.844569206237793,-0.5268910527229309,0.24601870775222778
1772721577350766000,1.88176611328125,9.782276153564453,-0.5284883975982666,2.4520578384399414
1772721577369362000,1.90036181640625,2.792813301086426,0.40169256925582886,3.0404953956604004
1772721577387957800,1.918957763671875,-3.530755043029785,0.8127400875091553,1.546126365661621
1772721577406553900,1.937553955078125,-7.207581043243408,0.6918774843215942,-0.1962762176990509
1772721577425150000,1.95614990234375,-8.373567581176758,0.29566192626953125,-0.2779020369052887
1772721577443745800,1.974745849609375,-8.852455139160156,0.2127392292022705,0.43833357095718384
1772721577462341600,1.993341552734375,-10.597099304199219,0.42728912830352783,1.4036719799041748
1772721577480937700,2.011937744140625,-13.455231666564941,0.7797871828079224,1.8210704326629639
1772721577499533800,2.030533935546875,-16.243288040161133,1.0744636058807373,0.7922744154930115
1772721577518129700,2.049129638671875,-16.88225555419922,1.3892402648925781,-0.3925396203994751
1772721577536725500,2.0677255859375,-14.725136756896973,1.3589916229248047,-0.534504771232605
1772721577555321600,2.086321533203125,-11.66554069519043,1.1407442092895508,-0.8019047379493713
1772721577573917700,2.104917724609375,-9.200173377990723,0.9898914098739624,-1.2989681959152222
1772721577592513500,2.123513427734375,-6.378815650939941,0.9410922527313232,-0.35021206736564636
1772721577611109400,2.142109375,-3.6380791664123535,0.7120091319084167,-0.2451518177986145
1772721577629705500,2.16070556640625,-2.8256988525390625,0.3095346689224243,-1.0289396047592163
1772721577648301300,2.17930126953125,-1.0229930877685547,-0.22551727294921875,-1.9768035411834717
1772721577666897400,2.1978974609375,1.5575618743896484,0.3377819061279297,-1.4354238510131836
1772721577685493200,2.2164931640625,5.357049942016602,1.6866587400436401,-0.5037513971328735
1772721577704089300,2.23508935546875,11.63798999786377,3.8116495609283447,-1.132885456085205
1772721577722685200,2.253685302734375,19.99592399597168,1.152158498764038,1.671406626701355
1772721577741281300,2.27228125,23.498374938964844,-0.9609966278076172,-0.3609668016433716
1772721577759877000,2.290877197265625,22.78278160095215,-2.013537883758545,-1.7384220361709595
1772721577778473200,2.30947314453125,19.68340301513672,-1.2244157791137695,-0.9692797660827637
1772721577797069000,2.328069091796875,13.877114295959473,-0.316395103931427,-1.1588811874389648
1772721577815665200,2.3466650390625,9.147847175598145,0.0856410562992096,-0.13097882270812988
1772721577834261000,2.365260986328125,6.768540382385254,0.16386325657367706,2.198943853378296
1772721577852856800,2.38385693359375,3.313081741333008,0.0020131543278694153,3.1477904319763184
1772721577871453000,2.402452880859375,-1.5646190643310547,-0.2183944582939148,2.547351121902466
1772721577890048800,2.421048828125,-5.320024013519287,-0.6174116134643555,0.4715820252895355
1772721577908644900,2.439644775390625,-8.114540100097656,-0.8993711471557617,-0.9462029933929443
1772721577927240700,2.45824072265625,-9.830151557922363,-0.9880917072296143,-1.3319122791290283
1772721577945836800,2.4768369140625,-10.784327507019043,-1.0614542961120605,-1.3989458084106445
1772721577964432600,2.4954326171875,-11.596748352050781,-0.8101310729980469,-1.2536053657531738
1772721577983028700,2.51402880859375,-13.04345989227295,-0.7142597436904907,-1.4663593769073486
1772721578001624600,2.53262451171875,-14.243277549743652,-0.6941955089569092,-1.7447569370269775
1772721578020220700,2.551220703125,-14.271733283996582,-0.5845224857330322,-1.6745202541351318
1772721578038816500,2.56981640625,-13.141470909118652,-0.4478316903114319,-1.1644011735916138
1772721578057412400,2.588412353515625,-11.517485618591309,-0.35807013511657715,-0.8107163906097412
1772721578076008400,2.607008544921875,-10.175049781799316,-0.2940644919872284,-1.1670807600021362
1772721578094604500,2.6256044921875,-7.98401403427124,-0.4339090585708618,-1.8583736419677734
1772721578113200400,2.644200439453125,-4.561516284942627,-0.6289387941360474,-1.6441867351531982
1772721578131796200,2.662796142578125,-1.7266440391540527,-0.38996368646621704,-1.0252641439437866
1772721578150392300,2.681392333984375,0.5914335250854492,-0.19353336095809937,-0.3739301860332489
1772721578168988400,2.699988525390625,1.0880928039550781,-0.13936108350753784,-0.07446396350860596
1772721578187584300,2.718584228515625,1.307769775390625,0.8879806995391846,-0.24143370985984802
1772721578206180000,2.73718017578125,7.3294572830200195,2.437596321105957,0.03958404064178467
1772721578224776200,2.755776123046875,16.448551177978516,1.9175665378570557,3.5237326622009277
1772721578243372000,2.7743720703125,19.828533172607422,-3.1980693340301514,7.201609134674072
1772721578261968100,2.792968017578125,18.741283416748047,-2.2526865005493164,2.3003573417663574
1772721578280564000,2.81156396484375,16.931381225585938,-2.8810479640960693,2.1042447090148926
1772721578299160000,2.83016015625,17.138816833496094,-2.789839506149292,0.9703547954559326
1772721578317756000,2.848755859375,13.994709968566895,-2.631606340408325,0.15238100290298462
1772721578336351700,2.867351806640625,10.898665428161621,-1.8896647691726685,-0.09607286751270294
1772721578354947800,2.88594775390625,7.801905632019043,-1.378273844718933,-1.227970004081726
1772721578373544000,2.9045439453125,3.378355026245117,-0.5527396202087402,-1.5292506217956543
1772721578392139800,2.923139892578125,-0.7758646011352539,0.1886957883834839,-0.7748485207557678
1772721578410735600,2.941735595703125,-4.083575248718262,0.2091456651687622,-0.8668726682662964
1772721578429331700,2.960331787109375,-7.181754112243652,-0.017818093299865723,-1.650922179222107
1772721578447927600,2.978927490234375,-9.6058349609375,-0.2776018977165222,-2.6345224380493164
1772721578466523600,2.997523681640625,-11.312047958374023,-0.22871088981628418,-2.415576219558716
1772721578485119500,3.016119384765625,-12.648015022277832,-0.20903706550598145,-1.525734305381775
1772721578503715600,3.034715576171875,-13.897180557250977,-0.01915028691291809,-0.2097645401954651
1772721578522311400,3.0533115234375,-14.604314804077148,0.41946089267730713,0.9895367622375488
1772721578540907500,3.071907470703125,-14.328155517578125,0.9894673824310303,1.1299281120300293
1772721578559503400,3.09050341796875,-12.438715934753418,0.9210348129272461,0.3371000289916992
1772721578578099500,3.109099365234375,-9.74905014038086,0.5808628797531128,-0.09699636697769165
1772721578596695300,3.1276953125,-7.56417989730835,0.3064645230770111,-0.11532914638519287
1772721578615291100,3.146291015625,-5.953415870666504,0.09712803363800049,0.0798577070236206
1772721578633887200,3.16488720703125,-4.010738849639893,0.15033477544784546,0.6690355539321899
1772721578652483000,3.183483154296875,-1.3978328704833984,-0.17995494604110718,0.5677211284637451
1772721578671079200,3.2020791015625,2.60561466217041,-0.8910380601882935,0.08070719242095947
1772721578689675000,3.220675048828125,5.972875595092773,-0.40695881843566895,-1.0209827423095703
1772721578708271000,3.23927099609375,8.24190902709961,0.7862977385520935,-1.4513031244277954
1772721578726867000,3.257866943359375,11.01718521118164,0.17674168944358826,-0.2741079330444336
1772721578745463000,3.276463134765625,14.544722557067871,-1.0098289251327515,1.129007339477539
1772721578764059000,3.295058837890625,15.280320167541504,-2.2000718116760254,0.6203165054321289
1772721578782655000,3.313655029296875,13.057329177856445,-2.9381449222564697,0.37268534302711487
1772721578801250800,3.332250732421875,10.589951515197754,-2.104522705078125,1.5333489179611206
1772721578819846700,3.3508466796875,8.996959686279297,-0.5290653109550476,1.6730029582977295
1772721578838442800,3.36944287109375,9.4176664352417,-0.018006157130002975,1.3714972734451294
1772721578857038600,3.38803857421875,5.781360626220703,-0.216016948223114,1.6337528228759766
1772721578875634700,3.406634765625,1.1185626983642578,0.6066794991493225,1.3079320192337036
1772721578894230500,3.42523046875,-3.716006278991699,1.0429692268371582,1.2521060705184937
1772721578912826600,3.44382666015625,-5.523683071136475,1.5598950386047363,0.5985648036003113
1772721578931422500,3.46242236328125,-5.065371513366699,1.911596655845642,0.22571462392807007
1772721578950018600,3.4810185546875,-4.214756011962891,1.855286955833435,0.19710898399353027
1772721578968614400,3.499614501953125,-3.598644256591797,1.5640041828155518,-0.5645018815994263
1772721578987210500,3.51821044921875,-3.698826313018799,1.5374196767807007,-1.0491456985473633
1772721579005806300,3.536806396484375,-5.502499580383301,1.6951593160629272,-0.7963187098503113
1772721579024402200,3.555402099609375,-7.729020118713379,1.910409927368164,-0.9568962454795837
1772721579042998300,3.573998291015625,-9.813483238220215,1.8479140996932983,-1.1945805549621582
1772721579061594000,3.592593994140625,-10.950443267822266,1.5891326665878296,-1.2247159481048584
1772721579080190200,3.611190185546875,-11.60823917388916,1.709383487701416,-1.0613579750061035
1772721579098786000,3.6297861328125,-11.639044761657715,1.5914011001586914,-0.6011372804641724
1772721579117382100,3.648382080078125,-10.30142593383789,1.522067666053772,0.0029953718185424805
1772721579135978000,3.66697802734375,-7.271427631378174,1.2244824171066284,0.4212249517440796
1772721579154573800,3.68557373046875,-3.8386125564575195,0.38087624311447144,0.5073592066764832
1772721579173170000,3.704169921875,-1.8039894104003906,-0.4064985513687134,0.530735433101654
1772721579191766000,3.72276611328125,0.22803211212158203,-0.851047933101654,0.01734936237335205
1772721579210361900,3.74136181640625,3.5346479415893555,-0.21048498153686523,-1.2804912328720093
1772721579228957700,3.759957763671875,8.707921981811523,0.9214874505996704,-2.7739953994750977
1772721579247553800,3.7785537109375,14.218706130981445,-0.8467138409614563,-2.5984768867492676
1772721579266149600,3.797149658203125,17.957542419433594,-1.872629165649414,-0.1609112024307251
1772721579284745500,3.815745361328125,17.58434295654297,-1.9921258687973022,2.370030403137207
1772721579303341600,3.834341552734375,15.439148902893066,-1.4647003412246704,3.239145040512085
1772721579321937400,3.8529375,13.416841506958008,-0.954439103603363,3.4800188541412354
1772721579340533500,3.871533447265625,12.200798034667969,-0.1103883683681488,3.09592342376709
1772721579359129300,3.89012939453125,10.538619995117188,0.7408590316772461,2.2919647693634033
1772721579377725400,3.908725341796875,8.892208099365234,1.0000702142715454,1.4236241579055786
1772721579396321300,3.9273212890625,6.031617164611816,1.0118328332901,-0.7132940292358398
1772721579414917400,3.94591748046875,2.7421140670776367,1.1771316528320312,-2.179102897644043
1772721579433513200,3.96451318359375,-0.13814449310302734,0.7403116226196289,-2.232936143875122
1772721579452109000,3.983109130859375,-2.724747657775879,0.29084840416908264,-0.5299093723297119
1772721579470705200,4.001705078125,-5.81483793258667,-0.1049727201461792,0.9719778895378113
1772721579489301000,4.020301025390625,-9.291547775268555,-0.802218496799469,1.1851887702941895
1772721579507897000,4.03889697265625,-12.114477157592773,-1.7146506309509277,0.5858508348464966
1772721579526493000,4.057492919921875,-13.569779396057129,-2.112393856048584,0.16208195686340332
1772721579545089000,4.076089111328125,-13.937450408935547,-2.246411085128784,-0.16038817167282104
1772721579563684900,4.094684814453125,-13.482455253601074,-2.0172038078308105,0.12736111879348755
1772721579582280700,4.11328076171875,-12.417427062988281,-1.496277093887329,1.2043460607528687
1772721579600876800,4.131876708984375,-11.66954231262207,-1.1945886611938477,2.028217315673828
1772721579619472600,4.15047265625,-11.178959846496582,-1.0270624160766602,2.5678772926330566
1772721579638068700,4.16906884765625,-11.021778106689453,-0.7501267790794373,2.7149763107299805
1772721579656664600,4.18766455078125,-9.932331085205078,-0.9629533290863037,1.9191060066223145
1772721579675260700,4.2062607421875,-7.023537635803223,-1.3852708339691162,0.9874035120010376
1772721579693856500,4.2248564453125,-0.9237499237060547,-1.7544137239456177,0.22001326084136963
1772721579712452400,4.243452392578125,5.5840606689453125,-1.850644588470459,-0.9122442007064819
1772721579731048400,4.26204833984375,8.001936912536621,-0.7280818223953247,-2.5462398529052734
1772721579749644300,4.280644287109375,8.495162010192871,1.6993472576141357,-4.486993789672852
1772721579768240400,4.299240478515625,11.34871768951416,0.6895854473114014,-2.0572307109832764
1772721579786836200,4.317836181640625,13.932068824768066,0.5442564487457275,-0.8393194675445557
1772721579805432000,4.33643212890625,12.414523124694824,1.2558791637420654,-1.2259538173675537
1772721579824028200,4.355028076171875,13.252741813659668,1.460950255393982,-1.3989201784133911
1772721579842624000,4.3736240234375,14.188384056091309,1.439384937286377,-1.817108154296875
1772721579861219800,4.3922197265625,13.000925064086914,1.2907495498657227,-2.0384368896484375
1772721579879816000,4.41081591796875,10.3349609375,0.6963903903961182,-1.3315341472625732
1772721579898412000,4.429412109375,6.212345123291016,0.10632127523422241,-2.4488844871520996
1772721579917008000,4.4480078125,2.386098861694336,-0.507118821144104,-3.5368926525115967
1772721579935603700,4.466603759765625,-0.3585634231567383,-0.8526439666748047,-3.4657046794891357
1772721579954199800,4.48519970703125,-2.601386070251465,-0.4836266040802002,-2.7078583240509033
1772721579972795600,4.503795654296875,-4.571781635284424,-0.0882422924041748,-0.6176056861877441
1772721579991391700,4.522391845703125,-7.07469367980957,-0.231721431016922,-0.12087991833686829
1772721580009987600,4.540987548828125,-9.726031303405762,-0.17148402333259583,-1.0624140501022339
1772721580028583400,4.55958349609375,-11.867345809936523,-0.04417729377746582,-1.6976585388183594
1772721580047179500,4.578179443359375,-12.764932632446289,0.2504574954509735,-1.7441000938415527
1772721580065775400,4.596775390625,-12.989276885986328,0.44487956166267395,-1.2653306722640991
1772721580084371200,4.61537109375,-12.84382152557373,0.6690523624420166,-0.5191621780395508
1772721580102967300,4.63396728515625,-12.709930419921875,0.6995737552642822,-0.24281978607177734
1772721580121563400,4.6525634765625,-11.899263381958008,0.6126297116279602,-0.1650518774986267
1772721580140159200,4.6711591796875,-10.286832809448242,0.4071807265281677,0.18044427037239075
1772721580158755000,4.689755126953125,-7.936734676361084,0.31002700328826904,0.7247908115386963
1772721580177351200,4.70835107421875,-3.1517515182495117,0.024412302300333977,0.9298381209373474
1772721580195947000,4.726947021484375,1.358591079711914,-1.2948874235153198,1.883541464805603
1772721580214543000,4.745543212890625,2.1912965774536133,-1.9780302047729492,1.358451008796692
1772721580233139000,4.764138916015625,-0.5502376556396484,-1.4062403440475464,-0.5222114324569702
1772721580251734800,4.78273486328125,2.8055477142333984,1.069765567779541,-1.0104265213012695
1772721580270331000,4.801330810546875,10.730896949768066,1.4688365459442139,0.8381103277206421
1772721580288926700,4.8199267578125,16.434911727905273,-1.0511219501495361,1.5499969720840454
1772721580307522600,4.8385224609375,17.28350067138672,-1.6114169359207153,0.3774728775024414
1772721580326118700,4.85711865234375,15.954172134399414,-1.8130674362182617,0.40100717544555664
1772721580344714500,4.875714599609375,18.115262985229492,-0.9270339608192444,1.6117788553237915
1772721580363310600,4.894310546875,19.824783325195312,-1.144635558128357,2.6814355850219727
1772721580381906400,4.912906494140625,14.083654403686523,-1.1355825662612915,2.383091449737549
1772721580400502300,4.931502197265625,6.228403091430664,0.05740290507674217,1.0034267902374268
1772721580419098400,4.950098388671875,2.445784568786621,2.3368794918060303,0.5685118436813354
1772721580437694500,4.968694580078125,1.1973800659179688,4.330821514129639,1.2512174844741821
1772721580456290300,4.987290283203125,-0.2928180694580078,4.721378803253174,1.4665027856826782
1772721580474886100,5.00588623046875,-2.9649267196655273,3.0013887882232666,2.087759017944336
1772721580493482200,5.024482177734375,-6.736303329467773,1.7411854267120361,0.2044277787208557
1772721580512078000,5.043078125,-9.06224250793457,0.5167384147644043,-0.5038639903068542
1772721580530674000,5.061673828125,-10.070696830749512,-0.11798885464668274,-0.46243202686309814
1772721580549270000,5.08027001953125,-11.503087997436523,-0.33906644582748413,-0.3514244258403778
1772721580567865900,5.098865966796875,-13.317560195922852,-0.48179733753204346,-0.5323621034622192
1772721580586462000,5.1174619140625,-14.849382400512695,-0.673093855381012,-0.6689777374267578
1772721580605057800,5.136057861328125,-15.460108757019043,-0.7582625150680542,-0.7874812483787537
1772721580623653600,5.154653564453125,-14.622663497924805,-0.9392635226249695,-0.48735085129737854
1772721580642249700,5.173249755859375,-12.608770370483398,-1.1257898807525635,-0.3278208076953888
1772721580660845600,5.191845458984375,-10.022778511047363,-1.6611229181289673,0.11621338129043579
1772721580679441400,5.21044140625,-6.981173515319824,-2.0704004764556885,-0.039251625537872314
1772721580698037500,5.22903759765625,-5.029057025909424,-2.1284608840942383,-1.166068196296692
1772721580716633300,5.24763330078125,-2.7608156204223633,-1.8084238767623901,-1.295127511024475
1772721580735229400,5.2662294921875,2.496889114379883,-1.5013618469238281,-0.587334156036377
1772721580753825300,5.2848251953125,9.617287635803223,-1.0686653852462769,-1.665632724761963
1772721580772421000,5.303421142578125,13.114520072937012,-0.03346914052963257,-1.9606367349624634
1772721580791017200,5.322017333984375,14.875736236572266,-0.9599704146385193,1.0716559886932373
1772721580809613000,5.340613037109375,18.006973266601562,0.0970596969127655,3.02962064743042
1772721580828209200,5.359209228515625,18.685733795166016,1.194028615951538,4.527831554412842
1772721580846805000,5.377804931640625,16.835979461669922,1.4051122665405273,4.887424468994141
1772721580865400800,5.39640087890625,14.685593605041504,2.0002803802490234,1.8953070640563965
1772721580883997000,5.414996826171875,14.313791275024414,3.408374071121216,-1.2780406475067139
1772721580902592800,5.4335927734375,13.085386276245117,4.690513610839844,-4.325417995452881
1772721580921188600,5.452188720703125,9.74461555480957,4.402853012084961,-4.177101135253906
1772721580939784700,5.47078466796875,4.976910591125488,2.559717893600464,-2.5855703353881836
1772721580958380500,5.489380615234375,0.6884613037109375,0.9163531064987183,-1.4425064325332642
1772721580976976600,5.5079765625,-4.002341270446777,-0.31071096658706665,-0.9587898254394531
1772721580995572500,5.526572509765625,-8.194149017333984,-1.2412128448486328,-0.7568497657775879
1772721581014168300,5.545168212890625,-11.898155212402344,-2.042623519897461,-1.5330183506011963
1772721581032764400,5.563764404296875,-15.20896053314209,-2.888267993927002,-2.737636089324951
1772721581051360300,5.5823603515625,-16.86434555053711,-3.1078567504882812,-3.7200429439544678
1772721581069956000,5.6009560546875,-16.33750343322754,-2.942995309829712,-3.685319423675537
1772721581088552200,5.61955224609375,-14.373369216918945,-2.343377113342285,-3.2674379348754883
1772721581107148000,5.63814794921875,-12.222469329833984,-2.027371406555176,-2.039668083190918
1772721581125744000,5.656744140625,-10.531293869018555,-1.952710747718811,-2.1197328567504883
1772721581144340000,5.675340087890625,-8.394322395324707,-1.959906816482544,-2.706005573272705
1772721581162935800,5.693935791015625,-5.5697550773620605,-1.8235249519348145,-2.385873794555664
1772721581181532000,5.712531982421875,-3.1341867446899414,-1.745240569114685,-1.6210508346557617
1772721581200127700,5.731127685546875,-1.881235122680664,-1.834298849105835,-1.404493808746338
1772721581218723600,5.7497236328125,-0.5537271499633789,-1.9222311973571777,-1.1797146797180176
1772721581237319400,5.7683193359375,0.9853906631469727,-1.896147608757019,-1.0984017848968506
1772721581255915500,5.78691552734375,3.760096549987793,-1.6155986785888672,-0.7464449405670166
1772721581274511400,5.805511474609375,8.676858901977539,-0.31662052869796753,-1.7402410507202148
1772721581293107500,5.824107421875,12.767240524291992,0.015424787998199463,-0.09770986437797546
1772721581311703300,5.842703369140625,16.772415161132812,0.13083422183990479,2.227597236633301
1772721581330299100,5.861299072265625,16.90737533569336,0.24498289823532104,2.7741644382476807
1772721581348895200,5.879895263671875,14.955464363098145,0.23541462421417236,2.8141086101531982
1772721581367491000,5.898490966796875,12.054488182067871,1.3147475719451904,0.9653834700584412
1772721581386087200,5.917087158203125,10.492785453796387,2.599234104156494,-0.9187928438186646
1772721581404683000,5.93568310546875,9.519754409790039,3.2500691413879395,-2.707836389541626
1772721581423278800,5.95427880859375,8.69873046875,3.016409158706665,-3.2122857570648193
1772721581441875000,5.972875,5.217087745666504,1.7234665155410767,-0.5508636236190796
1772721581460470800,5.991470703125,1.101862907409668,0.3264501690864563,1.9173007011413574
1772721581479066600,6.010066650390625,-3.7113542556762695,-0.5066683292388916,3.080625534057617
1772721581497662500,6.028662353515625,-8.611417770385742,-1.3791676759719849,1.9820430278778076
1772721581516258600,6.047258544921875,-12.384355545043945,-2.163005828857422,0.28318095207214355
1772721581534854400,6.0658544921875,-14.514591217041016,-2.4315013885498047,-1.002124547958374
1772721581553450500,6.084450439453125,-14.451532363891602,-1.762686014175415,-1.5117043256759644
1772721581572046300,6.10304638671875,-12.320276260375977,-1.4092836380004883,-1.7938357591629028
1772721581590642200,6.12164208984375,-12.577775955200195,-1.7742738723754883,-2.008557081222534
1772721581609238300,6.14023828125,-13.826342582702637,-1.5438790321350098,-1.6445116996765137
1772721581627834000,6.158834228515625,-13.75161361694336,-1.1588505506515503,-0.15809589624404907
1772721581646430000,6.177429931640625,-11.846416473388672,-0.7796013951301575,0.9871411919593811
1772721581665025800,6.19602587890625,-9.236227035522461,-0.7615213394165039,1.3211138248443604
1772721581683622000,6.214621826171875,-5.4217023849487305,-0.7443080544471741,0.9547818899154663
1772721581702217700,6.2332177734375,-1.8356080055236816,-0.738714337348938,0.6154362559318542
1772721581720813800,6.251813720703125,0.9174308776855469,-0.9857126474380493,0.9522764682769775
1772721581739409700,6.27040966796875,2.9039306640625,-1.2924890518188477,0.7356513142585754
1772721581758005500,6.289005615234375,3.1595096588134766,-0.03837662935256958,-1.0174436569213867
1772721581776601300,6.307601318359375,6.028707504272461,2.4863016605377197,-1.9684982299804688
1772721581795197400,6.326197509765625,13.17982006072998,1.7209498882293701,0.11915707588195801
1772721581813793300,6.344793212890625,20.340261459350586,0.35199204087257385,1.1011428833007812
1772721581832389000,6.36338916015625,20.937442779541016,-0.57795250415802,1.7206861972808838
1772721581850985200,6.381985107421875,19.845218658447266,-0.5078548192977905,1.5731858015060425
1772721581869581000,6.4005810546875,19.05095100402832,-0.7298932075500488,0.5376478433609009
1772721581888177000,6.419177001953125,16.431222915649414,-0.3526887893676758,-1.6851232051849365
1772721581906773000,6.43777294921875,13.447710037231445,0.21934199333190918,-3.0101397037506104
1772721581925368800,6.456368896484375,10.578091621398926,0.3520805835723877,-3.013183116912842
1772721581943964700,6.474964599609375,6.993203163146973,-0.34547775983810425,-3.3182504177093506
1772721581962560500,6.493560546875,2.476724624633789,-1.9447195529937744,-3.1645586490631104
1772721581981156600,6.512156494140625,-4.363191604614258,-3.225346326828003,-1.1727567911148071
1772721581999752400,6.53075244140625,-10.466361999511719,-4.078151226043701,1.0239341259002686
1772721582018348300,6.549348388671875,-13.800352096557617,-3.950615167617798,2.1192331314086914
1772721582036944400,6.5679443359375,-18.497234344482422,-3.5374300479888916,1.3910688161849976
1772721582055540200,6.586540283203125,-21.56867218017578,-2.9215457439422607,0.2738107442855835
1772721582074136000,6.605135986328125,-19.682552337646484,-3.519439935684204,1.679318904876709
1772721582092732200,6.623732177734375,-16.227346420288086,-2.956371784210205,2.3444159030914307
1772721582111328000,6.642327880859375,-13.574430465698242,-2.663883686065674,1.1765960454940796
1772721582129923800,6.660923828125,-11.782176971435547,-2.3881139755249023,0.5673695802688599
1772721582148519700,6.679519775390625,-9.043760299682617,-1.969836711883545,0.09959995746612549
1772721582167115800,6.69811572265625,-5.725144863128662,-1.2912667989730835,0.6901237964630127
1772721582185711600,6.716711669921875,-3.6522960662841797,-0.5164062976837158,0.7485343217849731
1772721582204307500,6.735307373046875,-2.427492141723633,-0.30788207054138184,0.31493377685546875
1772721582222903300,6.7539033203125,-0.9894638061523438,0.650619626045227,-0.2664170265197754
1772721582241499400,6.77249951171875,2.1609582901000977,1.6548253297805786,0.16550898551940918
1772721582260095200,6.79109521484375,7.825603485107422,3.382842540740967,-1.6290849447250366
1772721582278691000,6.809691162109375,12.932568550109863,4.137078285217285,-2.6708245277404785
1772721582297287200,6.828287109375,14.618916511535645,1.9006314277648926,-1.1470081806182861
1772721582315883000,6.846883056640625,15.065061569213867,1.5423403978347778,-2.2353177070617676
1772721582334478800,6.865478759765625,17.34221649169922,0.29355016350746155,-3.949707508087158
1772721582353074700,6.88407470703125,19.034221649169922,-0.22371916472911835,-5.645307540893555
1772721582371670800,6.9026708984375,18.726173400878906,-0.18893420696258545,-4.954579830169678
1772721582390266600,6.9212666015625,16.434738159179688,0.20622697472572327,-2.813002109527588
1772721582408862500,6.939862548828125,11.937275886535645,0.7997298836708069,-0.9627743363380432
1772721582427458300,6.958458251953125,6.705132484436035,1.1545500755310059,-0.4212801456451416
1772721582446054400,6.977054443359375,1.5064477920532227,0.7485672235488892,-0.5838364958763123
1772721582464650200,6.995650146484375,-3.4350996017456055,-0.04199516773223877,-1.4981820583343506
1772721582483246000,7.01424609375,-7.022859573364258,-1.2794920206069946,-2.1139235496520996
1772721582501842200,7.03284228515625,-8.770508766174316,-2.5590925216674805,-1.3832305669784546
1772721582520438000,7.05143798828125,-10.340461730957031,-3.4038147926330566,-1.0349576473236084
1772721582539033900,7.070033935546875,-12.13820743560791,-3.5368125438690186,-0.7490382194519043
1772721582557629700,7.088629638671875,-14.082263946533203,-3.0380401611328125,-0.22280025482177734
1772721582576225800,7.107225830078125,-15.695293426513672,-2.108041286468506,0.010325908660888672
1772721582594821600,7.125821533203125,-16.34457778930664,-1.4349408149719238,0.2710460424423218
1772721582613417500,7.14441748046875,-15.50734806060791,-0.9243903160095215,0.6754357814788818
1772721582632013300,7.163013427734375,-13.572844505310059,-0.6378359794616699,1.1578001976013184
1772721582650609200,7.181609130859375,-11.667348861694336,-0.5479742884635925,1.4735486507415771
1772721582669205200,7.200205322265625,-9.151020050048828,-0.26496779918670654,1.1904399394989014
1772721582687801000,7.218801025390625,-6.100522994995117,-0.5686757564544678,1.5604956150054932
1772721582706397000,7.23739697265625,-2.2642526626586914,-0.6029282808303833,1.5744997262954712
1772721582724992800,7.25599267578125,1.809037208557129,-0.5632493495941162,0.2583729028701782
1772721582743588900,7.2745888671875,7.965879440307617,-0.9869606494903564,-2.7380177974700928
1772721582762184700,7.293184814453125,12.788025856018066,-0.3837604522705078,-4.09889554977417
1772721582780780500,7.311780517578125,11.702391624450684,0.8236903548240662,-4.053811550140381
1772721582799376600,7.330376708984375,9.978423118591309,-0.3915729522705078,-2.611751079559326
1772721582817972500,7.348972412109375,12.637664794921875,-1.0735015869140625,-0.733159065246582
1772721582836568300,7.367568359375,13.979447364807129,-1.850940227508545,-0.4659285545349121
1772721582855164200,7.3861640625,12.684311866760254,-1.6345447301864624,-0.48294758796691895
1772721582873760000,7.404760009765625,12.450429916381836,-1.4631561040878296,-0.7821311950683594
1772721582892356000,7.423356201171875,12.44009017944336,-1.3674991130828857,-1.7598583698272705
1772721582910952000,7.441951904296875,10.157936096191406,-0.57569420337677,-1.9943585395812988
1772721582929547800,7.4605478515625,6.931195259094238,1.036447286605835,-1.3488138914108276
1772721582948143600,7.4791435546875,3.3014822006225586,2.427833318710327,-0.3930978775024414
1772721582966739500,7.497739501953125,0.054465293884277344,1.9080679416656494,0.7568904757499695
1772721582985335600,7.51633544921875,-3.155735969543457,1.129577875137329,1.1010154485702515
1772721583003931400,7.534931396484375,-6.945514678955078,0.5279226303100586,1.370119571685791
1772721583022527200,7.55352734375,-10.54505443572998,-0.48278963565826416,0.9656450748443604
1772721583041123000,7.572123046875,-14.890182495117188,-0.9763352870941162,-0.5751302242279053
1772721583059719200,7.59071923828125,-17.887786865234375,-1.216475248336792,-1.0895658731460571
1772721583078315000,7.60931494140625,-18.047035217285156,-1.2230923175811768,0.038080453872680664
1772721583096910800,7.627910888671875,-15.348123550415039,-1.1314005851745605,1.514111042022705
1772721583115506700,7.646506591796875,-11.777864456176758,-1.3913341760635376,1.8456599712371826
1772721583134102800,7.665102783203125,-7.568594932556152,-2.031031847000122,1.70920991897583
1772721583152698600,7.68369873046875,-4.049610137939453,-2.774590253829956,1.5459299087524414
1772721583171294500,7.70229443359375,-2.655027389526367,-3.1749143600463867,0.10004884004592896
1772721583189890300,7.720890380859375,-2.190141201019287,-2.956857442855835,-1.7596015930175781
1772721583208486100,7.739486083984375,-2.541355609893799,-2.579977035522461,-3.0133490562438965
1772721583227082200,7.758082275390625,-1.0011672973632812,-2.2828946113586426,-2.584303379058838
1772721583245678000,7.776677978515625,3.1996936798095703,-2.350119113922119,-1.087368130683899
1772721583264274000,7.79527392578125,7.281121253967285,-0.9815677404403687,-1.500985860824585
1772721583282869800,7.813869873046875,10.099172592163086,0.5096042156219482,-2.038809299468994
1772721583301465600,7.832465576171875,15.21750259399414,-0.7960027456283569,1.1745727062225342
1772721583320061700,7.851061767578125,18.538917541503906,-0.1858620047569275,3.4965567588806152
1772721583338657500,7.869657470703125,16.612638473510742,0.11556756496429443,4.416493892669678
1772721583357253400,7.88825341796875,12.667342185974121,1.4380285739898682,4.379466533660889
1772721583375849200,7.90684912109375,9.297479629516602,2.9908549785614014,3.4039430618286133
1772721583394445000,7.925445068359375,8.35979175567627,3.2060792446136475,1.9320534467697144
1772721583413041200,7.944041259765625,6.811384201049805,1.718986988067627,0.5960654020309448
1772721583431637000,7.962636962890625,3.853687286376953,0.6638948917388916,-0.6284922361373901
1772721583450232800,7.98123291015625,2.112844467163086,0.025584273040294647,0.11767354607582092
1772721583468828700,7.99982861328125,-0.3927593231201172,0.19628387689590454,1.8167327642440796
1772721583487424800,8.0184248046875,-5.297401428222656,0.11370566487312317,2.0281412601470947
1772721583506020600,8.0370205078125,-9.920767784118652,-0.16924482583999634,0.1456238329410553
1772721583524616400,8.055616455078125,-11.515422821044922,-0.5820949077606201,-1.019532322883606
1772721583543212300,8.07421240234375,-10.190702438354492,-0.5388885736465454,-1.0707402229309082
1772721583561808100,8.09280810546875,-9.105011940002441,-0.5404017567634583,-0.4224891662597656
1772721583580404200,8.111404296875,-9.59781551361084,-0.30632907152175903,0.0170290470123291
1772721583599000000,8.13,-11.26711654663086,0.1109595000743866,0.2151985764503479
1772721583617596000,8.148595947265624,-12.541841506958008,0.41569074988365173,0.13821104168891907
1772721583636191700,8.167191650390626,-12.16897201538086,0.6491063833236694,0.20694896578788757
1772721583654787600,8.18578759765625,-9.912308692932129,0.9714579582214355,0.6158262491226196
1772721583673383400,8.204383544921875,-6.105668067932129,0.8006134033203125,0.8703269362449646
1772721583691979500,8.2229794921875,-4.204255104064941,0.8823767304420471,1.1021002531051636
1772721583710575400,8.241575439453126,-2.710623264312744,0.8430541753768921,0.2979484796524048
1772721583729171200,8.260171142578125,-0.7991456985473633,0.9494777321815491,-1.7388114929199219
1772721583747767000,8.27876708984375,3.350316047668457,1.314337134361267,-2.0041775703430176
1772721583766363000,8.29736279296875,9.738546371459961,2.6903536319732666,-2.6457338333129883
1772721583784958700,8.315958740234375,16.729904174804688,1.648049235343933,-1.6628353595733643
1772721583803554800,8.334554931640625,18.064952850341797,-0.2446034550666809,-0.64021897315979
1772721583822150700,8.353150634765624,17.199254989624023,-0.7841178774833679,-1.9429852962493896
1772721583840746500,8.37174658203125,19.312274932861328,-2.1595330238342285,-2.998180389404297
1772721583859342300,8.39034228515625,18.162477493286133,-2.339041233062744,-3.3908092975616455
1772721583877938200,8.408938232421875,14.809566497802734,-2.022599220275879,-1.3358427286148071
1772721583896534000,8.427533935546874,10.077998161315918,-0.8140102624893188,1.3032578229904175
1772721583915129900,8.4461298828125,3.2983779907226562,0.0846867561340332,3.2857272624969482
1772721583933726000,8.464725830078125,-2.0465774536132812,0.43264293670654297,3.2112247943878174
1772721583952321800,8.48332177734375,-5.2218523025512695,0.11139225959777832,1.5284218788146973
1772721583970917600,8.501917724609376,-7.244197845458984,-0.5888339281082153,0.5087977647781372
1772721583989513500,8.520513427734375,-7.632829666137695,-1.17095148563385,0.9161787033081055
1772721584008109600,8.539109619140625,-8.709583282470703,-1.2127571105957031,0.5931394100189209
1772721584026705400,8.557705322265624,-10.71802043914795,-1.0508086681365967,0.22762823104858398
1772721584045301200,8.57630126953125,-12.400474548339844,-0.8081764578819275,0.14123356342315674
1772721584063897000,8.59489697265625,-13.635427474975586,-0.530616044998169,0.21960705518722534
1772721584082493000,8.613492919921875,-14.169169425964355,-0.3747856616973877,1.0795738697052002
1772721584101088800,8.6320888671875,-12.90025520324707,-0.2389078140258789,2.3171987533569336
1772721584119684600,8.6506845703125,-10.904561996459961,-0.22009748220443726,2.083549976348877
1772721584138280700,8.66928076171875,-8.840758323669434,-0.41203856468200684,0.6315060257911682
1772721584156876500,8.68787646484375,-6.876922607421875,-0.4696032404899597,-0.5524591207504272
1772721584175472400,8.706472412109376,-4.656463623046875,-0.5915440917015076,-0.9664391279220581
1772721584194068200,8.725068115234375,-1.9314231872558594,-0.7476715445518494,-0.056310296058654785
1772721584212664000,8.7436640625,1.729196548461914,-1.471243143081665,-0.5367305278778076
1772721584231260000,8.762260009765624,1.3948535919189453,-0.8953479528427124,-1.5305540561676025
1772721584249855700,8.780855712890625,1.6513919830322266,1.2790626287460327,-1.5876023769378662
1772721584268451600,8.79945166015625,7.607684135437012,3.2897582054138184,0.07442611455917358
1772721584287047700,8.818047607421875,15.502928733825684,1.1868534088134766,1.9708762168884277
1772721584305643500,8.8366435546875,15.622542381286621,-0.4923415184020996,1.5727506875991821
1772721584324239400,8.8552392578125,12.296789169311523,-0.20911765098571777,0.2701781988143921
1772721584342835200,8.873835205078125,10.004472732543945,-0.6289479732513428,-0.6230889558792114
1772721584361431000,8.89243115234375,10.798676490783691,-0.5774385333061218,-1.098402500152588
1772721584380027000,8.91102685546875,10.783019065856934,-1.143796443939209,-0.7979298233985901
1772721584398622700,8.929622802734375,8.404541015625,-1.2898051738739014,0.5579906105995178
1772721584417218600,8.948218505859375,6.056982040405273,-0.9588826894760132,1.7884306907653809
1772721584435814700,8.966814697265624,1.8411712646484375,-0.4527953267097473,1.9598699808120728
1772721584454410500,8.985410400390625,-3.30009126663208,0.25887995958328247,1.5413713455200195
1772721584473006300,9.00400634765625,-7.384345054626465,1.0423294305801392,0.3485490679740906
1772721584491602200,9.022602294921874,-9.367876052856445,1.9914281368255615,0.15571355819702148
1772721584510198000,9.041197998046876,-9.544448852539062,2.448578119277954,0.7278686761856079
1772721584528793900,9.0597939453125,-8.510909080505371,2.091740131378174,0.19798022508621216
1772721584547389700,9.0783896484375,-8.018279075622559,1.7803516387939453,-1.1065478324890137
1772721584565985500,9.096985595703124,-8.96242904663086,2.132411003112793,-1.3461825847625732
1772721584584581400,9.115581298828126,-10.082303047180176,2.2372167110443115,-1.124840497970581
1772721584603177500,9.134177490234375,-10.478681564331055,2.177405834197998,-0.8040967583656311
1772721584621773300,9.152773193359375,-9.884140014648438,1.6457297801971436,-0.47189557552337646
1772721584640369200,9.171369140625,-7.513976097106934,1.1276394128799438,-0.11703556776046753
1772721584658965000,9.189965087890625,-4.534238815307617,0.4951533079147339,0.33110493421554565
1772721584677560800,9.208560791015625,-2.113408088684082,-0.0032060742378234863,0.7573451995849609
1772721584696156700,9.22715673828125,-2.0459346771240234,0.2728261351585388,0.3068821430206299
1772721584714752500,9.24575244140625,-0.023804664611816406,1.0749332904815674,0.6388977766036987
1772721584733348400,9.264348388671875,2.50704288482666,1.8572757244110107,0.4298737049102783
1772721584751944200,9.282944091796875,4.881435394287109,4.570596218109131,-0.17780399322509766
1772721584770540000,9.3015400390625,10.465060234069824,6.484375476837158,-0.11998414993286133
1772721584789136100,9.32013623046875,16.142353057861328,4.107402801513672,4.208560466766357
1772721584807732000,9.33873193359375,16.082233428955078,3.195939064025879,5.351590156555176
1772721584826327600,9.35732763671875,15.733996391296387,1.2381258010864258,2.041814088821411
1772721584844923400,9.37592333984375,16.18062400817871,0.03659486770629883,-2.002455949783325
1772721584863519500,9.39451953125,17.904705047607422,-1.806820034980774,-3.198448657989502
1772721584882115300,9.413115234375,16.486865997314453,-2.4010305404663086,-2.7537753582000732
1772721584900711200,9.431711181640624,10.635249137878418,-1.7688560485839844,-1.9612621068954468
1772721584919307000,9.45030712890625,3.079800605773926,-1.3590874671936035,0.8936726450920105
1772721584937902800,9.46890283203125,-3.832735061645508,-1.1591418981552124,1.880205512046814
1772721584956498700,9.487498779296875,-8.180465698242188,-1.3199872970581055,0.000766560435295105
1772721584975094500,9.506094482421876,-10.008881568908691,-1.8703117370605469,-1.6626689434051514
1772721584993690400,9.5246904296875,-11.260605812072754,-2.0874674320220947,-2.3991451263427734
1772721585012286200,9.5432861328125,-12.802114486694336,-1.6746159791946411,-2.890350818634033
1772721585030882000,9.561882080078124,-14.024327278137207,-1.305012822151184,-2.479118585586548
1772721585049478000,9.580477783203126,-13.976012229919434,-0.932578444480896,-1.574554681777954
1772721585068073700,9.59907373046875,-13.018627166748047,-0.5269697904586792,0.07240035384893417
1772721585086669800,9.617669921875,-12.829705238342285,-0.5866454839706421,0.02733413130044937
1772721585105265700,9.636265625,-12.538086891174316,-1.1508921384811401,-1.188130259513855
1772721585123861500,9.654861572265625,-10.822397232055664,-1.9715335369110107,-1.8148839473724365
1772721585142457300,9.673457275390625,-8.668883323669434,-2.0234375,-0.6635586023330688
1772721585161053200,9.69205322265625,-6.160945892333984,-1.0912079811096191,2.477240800857544
1772721585179649000,9.71064892578125,-4.595640182495117,-0.4841470718383789,2.889233112335205
1772721585198244900,9.729244873046875,-3.516702175140381,-1.173972487449646,0.9064963459968567
1772721585216840700,9.7478408203125,0.04442405700683594,-2.4937517642974854,-0.7888808250427246
1772721585235436500,9.7664365234375,6.5248260498046875,-1.884486436843872,-2.5138497352600098
1772721585254032400,9.785032470703126,15.166610717773438,0.9740003347396851,-3.293320655822754
1772721585272628200,9.803628173828125,19.620941162109375,0.2188187539577484,-1.3993885517120361
1772721585291224000,9.82222412109375,18.11648941040039,-0.9701642990112305,-1.2254135608673096
1772721585309820000,9.84081982421875,16.592086791992188,0.7818547487258911,-3.8659138679504395
1772721585328415700,9.859415771484375,21.70008087158203,1.1810343265533447,-2.962857246398926
1772721585347011600,9.878011474609375,24.381616592407227,2.4201154708862305,-1.690447449684143
1772721585365607400,9.896607421875,20.236083984375,4.704343318939209,-1.4273796081542969
1772721585384203300,9.915203369140626,12.99960708618164,6.599050045013428,0.12898701429367065
1772721585402799000,9.933799072265625,2.865046501159668,5.735823154449463,3.7115418910980225
1772721585421395000,9.95239501953125,-5.6660542488098145,3.189913749694824,4.100033760070801
1772721585439990800,9.97099072265625,-9.030272483825684,0.5949674248695374,3.4727978706359863
1772721585458586600,9.989586669921875,-9.990891456604004,-1.441112756729126,2.1955013275146484
1772721585477182500,10.008182373046875,-12.267797470092773,-2.351135015487671,0.09905362129211426
1772721585495778300,10.0267783203125,-15.461734771728516,-2.22233247756958,-1.7842216491699219
1772721585514374100,10.0453740234375,-17.447301864624023,-1.745885968208313,-2.0379343032836914
1772721585532970000,10.063969970703125,-17.235336303710938,-1.1486631631851196,-1.012468934059143
1772721585551565800,10.08256591796875,-15.244107246398926,-0.5007052421569824,0.6957582831382751
1772721585570161700,10.10116162109375,-12.350399017333984,0.03759753704071045,2.074157238006592
1772721585588757500,10.119757568359375,-10.207314491271973,0.3055660128593445,1.5267462730407715
1772721585607353600,10.138353515625,-7.664890289306641,-0.30207109451293945,0.7394779920578003
1772721585625949400,10.156949462890625,-5.496374130249023,-0.4213697612285614,-0.49660980701446533
1772721585644545300,10.175545166015626,-3.9380455017089844,-0.0001339837908744812,-0.6910387277603149
1772721585663141000,10.19414111328125,-1.8880348205566406,0.12035000324249268,-0.6582309007644653
1772721585681737000,10.212737060546875,1.0790290832519531,-0.8628970980644226,-0.9636361598968506
1772721585700332800,10.231332763671874,4.814201354980469,-2.4702000617980957,0.1655484437942505
1772721585718928400,10.249928466796876,6.67545223236084,-2.9017810821533203,0.9099095463752747
1772721585737524200,10.268524169921875,7.550249099731445,-1.9735684394836426,-1.0403977632522583
1772721585756120000,10.2871201171875,11.773096084594727,-2.9888916015625,-0.5315138101577759
1772721585774716000,10.3057158203125,16.788652420043945,-5.1880717277526855,0.8285192251205444
1772721585793311700,10.324311767578125,16.976701736450195,-5.4899983406066895,-0.6242047548294067
1772721585811907600,10.342907470703125,17.79647445678711,-5.317285060882568,-0.9637924432754517
1772721585830503400,10.36150341796875,15.930317878723145,-3.040843963623047,0.2788419723510742
1772721585849099300,10.380099365234376,10.323627471923828,-0.1757890284061432,1.1837371587753296
1772721585867695000,10.398695068359375,4.476564407348633,1.6532914638519287,0.892020583152771
1772721585886291000,10.417291015625,0.16327476501464844,2.429765224456787,0.5239512920379639
1772721585904886800,10.43588671875,-3.6393489837646484,2.5589513778686523,-0.09494537115097046
1772721585923482600,10.454482666015625,-7.19392204284668,3.5556111335754395,-0.918546199798584
1772721585942078500,10.473078369140625,-9.264578819274902,3.844658613204956,-0.6025724411010742
1772721585960674300,10.49167431640625,-11.267525672912598,4.3820343017578125,-0.6287802457809448
1772721585979270100,10.510270263671876,-12.461859703063965,4.08498477935791,-0.05677449703216553
1772721585997866000,10.528865966796875,-11.831968307495117,3.2407941818237305,-0.5569829940795898
1772721586016461800,10.5474619140625,-9.90180778503418,2.4104199409484863,-1.2011525630950928
1772721586035057700,10.5660576171875,-8.253922462463379,1.4946422576904297,-1.3123239278793335
1772721586053653500,10.584653564453125,-8.346193313598633,1.260359764099121,-1.1169862747192383
1772721586072249300,10.603249267578125,-9.472411155700684,1.1775639057159424,0.2560654878616333
1772721586090845200,10.62184521484375,-9.553793907165527,0.920647144317627,1.9234058856964111
1772721586109441000,10.64044091796875,-8.263778686523438,0.4998534619808197,1.73091459274292
1772721586128036900,10.659036865234375,-5.816637992858887,-0.23407375812530518,0.7563918828964233
1772721586146632700,10.6776328125,-2.4493227005004883,-1.0649429559707642,0.30110788345336914
1772721586165228500,10.696228515625,1.7410907745361328,-1.4017502069473267,0.552505612373352
1772721586183824400,10.714824462890626,6.875670433044434,-1.243625283241272,-0.17311584949493408
1772721586202420200,10.733420166015625,12.432182312011719,-0.9669375419616699,-2.4294564723968506
1772721586221016000,10.75201611328125,16.137996673583984,-3.0914759635925293,-1.3457293510437012
1772721586239612000,10.77061181640625,15.291484832763672,-2.5360937118530273,-0.8746778964996338
1772721586258207700,10.789207763671875,15.69166374206543,-2.117661476135254,0.7670342922210693
1772721586276803600,10.807803466796875,17.218158721923828,-1.485075831413269,1.8710277080535889
1772721586295399400,10.8263994140625,14.23099136352539,-1.173985481262207,1.4911088943481445
1772721586313995300,10.844995361328126,9.475241661071777,-0.1030699759721756,1.2365384101867676
1772721586332591000,10.863591064453125,5.202272415161133,1.1231367588043213,1.913978099822998
1772721586351187000,10.88218701171875,0.14830398559570312,2.3421921730041504,1.6629176139831543
1772721586369782800,10.90078271484375,-4.320263862609863,3.6895337104797363,0.8808121681213379
1772721586388378600,10.919378662109375,-7.125378131866455,4.176009178161621,0.3865615129470825
1772721586406974500,10.937974365234375,-8.51272964477539,3.521214246749878,0.386255145072937
1772721586425570300,10.9565703125,-8.333300590515137,2.8477892875671387,0.8090689182281494
1772721586444166000,10.975165771484376,-6.537105560302734,2.145819664001465,0.910054087638855
1772721586462761700,10.99376171875,-4.552172660827637,1.7370191812515259,0.19144165515899658
1772721586481357600,11.012357666015625,-4.286808967590332,1.5423744916915894,-0.6684702634811401
1772721586499953400,11.030953369140626,-6.002389907836914,0.9356980323791504,-0.9644640684127808
1772721586518549200,11.04954931640625,-7.92048454284668,0.7403627634048462,-1.134546160697937
1772721586537145000,11.06814501953125,-9.520665168762207,1.1030044555664062,-0.6396842002868652
1772721586555741000,11.086740966796874,-9.441933631896973,0.5523405075073242,0.33825886249542236
1772721586574336800,11.105336669921876,-6.7824225425720215,0.06974124908447266,0.3533494472503662
1772721586592932600,11.1239326171875,-4.212196350097656,-0.39909887313842773,0.7575837969779968
1772721586611528400,11.142528564453125,-1.6431331634521484,-0.4688648581504822,-0.24546009302139282
1772721586630124300,11.161124267578124,1.1836156845092773,-0.45284464955329895,-0.8177513480186462
1772721586648720100,11.17972021484375,5.582209587097168,0.9317492842674255,-2.3275628089904785
1772721586667316000,11.19831591796875,6.426830291748047,-0.7902366518974304,0.11376906931400299
1772721586685911800,11.216911865234374,3.5235214233398438,-2.741616725921631,2.3727104663848877
1772721586704507600,11.235507568359376,4.293216705322266,-4.751051902770996,4.705286979675293
1772721586723103500,11.254103515625,8.318647384643555,-2.659548759460449,1.0167207717895508
1772721586741699300,11.27269921875,10.195359230041504,-2.863450527191162,-0.5594531893730164
1772721586760295200,11.291295166015624,9.016493797302246,-2.7016003131866455,-0.474848210811615
1772721586778891000,11.30989111328125,6.215380668640137,-1.433374047279358,-0.18258482217788696
1772721586797486800,11.32848681640625,2.1119585037231445,-0.4124425947666168,0.4280843734741211
1772721586816082700,11.347082763671875,-1.4377145767211914,0.8080485463142395,0.5807987451553345
1772721586834678500,11.365678466796876,-2.7116622924804688,0.9941396117210388,0.34129202365875244
1772721586853274000,11.384274169921875,-2.0604419708251953,0.6527378559112549,-1.220872163772583
1772721586871870000,11.402869873046875,-2.028985023498535,0.9426900148391724,-1.6516493558883667
1772721586890465800,11.4214658203125,-2.035142421722412,1.5261977910995483,-0.5239314436912537
1772721586909061600,11.4400615234375,-3.3443002700805664,1.5948132276535034,0.42805904150009155
1772721586927657500,11.458657470703125,-3.364391326904297,1.2484240531921387,0.2611125707626343
1772721586946253300,11.47725341796875,-2.209225654602051,0.5124640464782715,-1.3301706314086914
