time,seconds_elapsed,z,y,x
1772721575556255000,0.0872548828125,0.485484778881073,0.3827831447124481,0.7677806615829468
1772721575574850800,0.105850830078125,0.6830995678901672,0.9670752882957458,1.066188097000122
1772721575593447000,0.124447021484375,0.836121141910553,1.3329832553863525,1.1159735918045044
1772721575612043000,0.14304296875,0.8364266157150269,1.096578598022461,0.8139009475708008
1772721575630638800,0.161638916015625,0.8248201608657837,0.4823541045188904,0.4495201110839844
1772721575649234700,0.180234619140625,0.8688024282455444,0.07521272450685501,0.256792277097702
1772721575667830800,0.198830810546875,0.8791871070861816,0.02909243479371071,0.18318307399749756
1772721575686426600,0.217426513671875,0.8691078424453735,-0.10865757614374161,0.25098907947540283
1772721575705022700,0.236022705078125,0.5765036344528198,-0.3358992636203766,0.5267944931983948
1772721575723618800,0.254618896484375,0.1614210158586502,-0.37407833337783813,0.7601448893547058
1772721575742214700,0.273214599609375,0.21120649576187134,-0.5274053812026978,0.6446914076805115
1772721575760810800,0.291810791015625,0.37980517745018005,-0.5338194370269775,0.19417864084243774
1772721575779406600,0.310406494140625,0.6898190379142761,-0.6300306916236877,-0.3430769443511963
1772721575798002700,0.329002685546875,0.9515746235847473,-0.9110284447669983,-0.6494256258010864
1772721575816598500,0.3475986328125,1.0102176666259766,-0.816649854183197,-0.487546443939209
1772721575835194600,0.366194580078125,0.6556106209754944,-0.36827510595321655,-0.026343543082475662
1772721575853790700,0.384790771484375,0.45127636194229126,-0.10590868443250656,0.2225838601589203
1772721575872386600,0.403386474609375,0.37430739402770996,0.13629920780658722,0.19540037214756012
1772721575890982400,0.421982421875,0.2380845546722412,0.044669486582279205,0.07200568914413452
1772721575909578500,0.44057861328125,0.1980729103088379,0.0449749194085598,-0.28321218490600586
1772721575928174300,0.45917431640625,0.3416261374950409,0.12774710357189178,-0.6708058714866638
1772721575946770400,0.4777705078125,0.27198755741119385,0.14332415163516998,-0.9649372696876526
1772721575965366500,0.496366455078125,0.061850059777498245,0.12927426397800446,-1.0495420694351196
1772721575983962400,0.51496240234375,-0.20112723112106323,0.09017891436815262,-0.9737948179244995
1772721576002558200,0.53355810546875,-0.4185950756072998,-0.003894262947142124,-0.9084323048591614
1772721576021154300,0.552154296875,-0.53221595287323,0.11339177191257477,-0.969518780708313
1772721576039750400,0.57075048828125,-0.3969093859195709,0.2496146261692047,-1.1485021114349365
1772721576058346200,0.58934619140625,-0.22739441692829132,0.3977493345737457,-1.164079189300537
1772721576076942300,0.6079423828125,-0.18646647036075592,0.7080686092376709,-0.7569378018379211
1772721576095538200,0.6265380859375,-0.37369653582572937,0.6903535723686218,0.014889828860759735
1772721576114134300,0.64513427734375,-0.34376415610313416,1.1087958812713623,0.16760602593421936
1772721576132730000,0.663730224609375,0.02367101050913334,1.126205563545227,0.2784779667854309
1772721576151326200,0.682326171875,0.3819431960582733,1.200120210647583,0.1505018174648285
1772721576169922000,0.700922119140625,0.2658788859844208,0.9664644598960876,-0.028787001967430115
1772721576188518100,0.71951806640625,0.0334448479115963,-0.09827287495136261,-0.37575820088386536
1772721576207114000,0.738114013671875,0.10155627131462097,-0.7372374534606934,-0.38705918192863464
1772721576225710000,0.7567099609375,0.29672756791114807,-0.25129449367523193,0.3206276595592499
1772721576244306000,0.775305908203125,0.6443096399307251,0.2044106274843216,1.049389362335205
1772721576262902000,0.793902099609375,0.49861836433410645,-0.046654798090457916,1.345658779144287
1772721576281497900,0.812497802734375,0.21426081657409668,-0.5713876485824585,0.8930079340934753
1772721576300094000,0.831093994140625,-0.30802857875823975,-1.3474913835525513,-0.3836994469165802
1772721576318689800,0.849689697265625,-1.060613989830017,-1.6452878713607788,-1.3781872987747192
1772721576337286000,0.868285888671875,-1.4805835485458374,-0.8429170250892639,-1.5196025371551514
1772721576355881700,0.8868818359375,-1.4598140716552734,0.12835796177387238,-0.9973130822181702
1772721576374477800,0.905477783203125,-1.1653772592544556,0.2407570779323578,-0.12347104400396347
1772721576393073700,0.92407373046875,-0.8153517842292786,-0.4067595899105072,0.6007091403007507
1772721576411669800,0.942669677734375,-0.4045451879501343,-0.780303418636322,0.7674752473831177
1772721576430265600,0.961265625,-0.18677189946174622,-0.6113992929458618,0.5622246861457825
1772721576448861700,0.97986181640625,-0.19440771639347076,-0.08666644245386124,0.2986365258693695
1772721576467457500,0.99845751953125,-0.2603811025619507,0.21113014221191406,0.24518585205078125
1772721576486053600,1.0170537109375,-0.30833399295806885,0.1014799103140831,0.37896522879600525
1772721576504649500,1.0356494140625,-0.11316270381212234,-0.15172353386878967,0.3563632369041443
1772721576523245600,1.05424560546875,0.16997312009334564,-0.2952767610549927,0.1495855152606964
1772721576541841400,1.07284130859375,0.2964221239089966,-0.39973464608192444,-0.0077121676877141
1772721576560437500,1.0914375,0.2542724609375,-0.45043641328811646,-0.07521272450685501
1772721576579033300,1.110033447265625,0.14401137828826904,-0.38263043761253357,-0.19616395235061646
1772721576597629400,1.12862939453125,0.0642935186624527,-0.29588761925697327,-0.49273881316185
1772721576616225300,1.147225341796875,-0.02214384824037552,-0.0939968153834343,-0.7489965558052063
1772721576634821400,1.1658212890625,-0.16752967238426208,0.27863070368766785,-0.7380009889602661
1772721576653417200,1.184417236328125,-0.2029598206281662,0.2868773639202118,-0.8910226225852966
1772721576672013300,1.203013427734375,-0.10858121514320374,-0.2778671085834503,-1.4160609245300293
1772721576690609200,1.221609130859375,-0.2738201320171356,-0.5872701406478882,-1.5773292779922485
1772721576709205200,1.240205322265625,-0.37949973344802856,0.6048324704170227,-0.9062942862510681
1772721576727801300,1.25880126953125,0.15317434072494507,2.233397960662842,-0.07124210149049759
1772721576746397200,1.277397216796875,0.9989166259765625,1.9401829242706299,0.722882091999054
1772721576764993000,1.295992919921875,1.5260928869247437,0.1628718227148056,1.7836488485336304
1772721576783589000,1.314589111328125,1.6384921073913574,-1.4831032752990723,2.4452154636383057
1772721576802185000,1.33318505859375,1.253036379814148,-1.7234786748886108,2.089081287384033
1772721576820781000,1.351781005859375,0.4857902228832245,-0.7500655651092529,0.8844558596611023
1772721576839377000,1.370376953125,-0.22495095431804657,0.367511510848999,-0.07185296714305878
1772721576857973000,1.388972900390625,-0.6956222653388977,0.6766090989112854,-0.24808746576309204
1772721576876568800,1.40756884765625,-0.8575014472007751,0.3992764949798584,-0.10911571979522705
1772721576895165000,1.4261650390625,-0.7896954417228699,0.30337071418762207,-0.05719221383333206
1772721576913760800,1.4447607421875,-0.5804742574691772,0.4521162807941437,-0.08834631741046906
1772721576932356900,1.46335693359375,-0.40546149015426636,0.5333613157272339,-0.07307469844818115
1772721576950952700,1.48195263671875,-0.34987279772758484,0.47288569808006287,0.05367974191904068
1772721576969548800,1.500548828125,-0.41584619879722595,0.28779366612434387,0.24060437083244324
1772721576988144600,1.51914453125,-0.44669488072395325,0.18455752730369568,0.22319471836090088
1772721577006740700,1.53774072265625,-0.3966039717197418,0.21876594424247742,-0.0602465383708477
1772721577025336600,1.556336669921875,-0.3199404180049896,0.3229183852672577,-0.4606684148311615
1772721577043932700,1.5749326171875,-0.24022257328033447,0.22640176117420197,-0.7541889548301697
1772721577062528500,1.593528564453125,-0.22128576040267944,-0.20822852849960327,-0.7893136739730835
1772721577081124600,1.61212451171875,-0.21517711877822876,-0.5753582715988159,-0.6393463611602783
1772721577099720400,1.630720458984375,-0.14431680738925934,-0.5216021537780762,-0.38095054030418396
1772721577118316500,1.649316650390625,-0.06490438431501389,-0.24518585205078125,-0.2404516488313675
1772721577136912400,1.667912353515625,0.11927134543657303,0.07460185885429382,-0.2755763828754425
1772721577155508500,1.686508544921875,0.19898919761180878,-0.2897789776325226,-0.3161988854408264
1772721577174104300,1.705104248046875,0.2585485279560089,-0.8056542873382568,-0.2648862302303314
1772721577192700200,1.7237001953125,0.2897026240825653,-1.2946515083312988,-0.48449212312698364
1772721577211296300,1.742296142578125,0.2704603672027588,-1.0154863595962524,-0.6723330616950989
1772721577229892400,1.760892333984375,0.12476912885904312,0.2603047490119934,-0.455781489610672
1772721577248488200,1.77948828125,0.20662501454353333,0.9854012727737427,-0.3378845751285553
1772721577267084000,1.798083984375,0.4033234715461731,0.6118574142456055,-0.43867728114128113
1772721577285680000,1.81668017578125,0.26618432998657227,-1.002963662147522,-0.6109411120414734
1772721577304276200,1.835276123046875,-0.014813470654189587,-2.915275812149048,-1.007086992263794
1772721577322872000,1.8538720703125,0.12965604662895203,-2.502025842666626,-0.8012255430221558
1772721577341468000,1.872468017578125,0.15409064292907715,-0.7470112442970276,-0.3800342381000519
1772721577360064000,1.89106396484375,-0.11713331937789917,0.3992764949798584,-0.1430187225341797
1772721577378659800,1.909659912109375,-0.46807512640953064,0.3888917863368988,-0.0962875634431839
1772721577397256000,1.928255859375,-0.43020153045654297,0.11827868968248367,-0.23861905932426453
1772721577415851800,1.946851806640625,-0.11591159552335739,0.0965929925441742,-0.26794055104255676
1772721577434448000,1.96544775390625,0.08567378669977188,0.29848378896713257,0.09246965497732162
1772721577453043700,1.984043701171875,0.06490438431501389,0.6341540217399597,0.6361393332481384
1772721577471639800,2.002639892578125,-0.2237292230129242,0.820773184299469,0.9699769020080566
1772721577490235600,2.021235595703125,-0.5688678026199341,0.7233402729034424,0.825507402420044
1772721577508831700,2.039831787109375,-0.735633909702301,0.4756345748901367,0.226859912276268
1772721577527427600,2.058427490234375,-0.7893900275230408,0.31864234805107117,-0.4457022249698639
1772721577546023700,2.077023681640625,-0.8052725195884705,0.44325876235961914,-0.8962149620056152
1772721577564619500,2.09561962890625,-0.6815723776817322,0.6500364542007446,-1.0580941438674927
1772721577583215600,2.114215576171875,-0.5899426341056824,0.31864234805107117,-0.9295071363449097
1772721577601811500,2.1328115234375,-0.7093667387962341,-0.10590868443250656,-0.3736201822757721
1772721577620407600,2.151407470703125,-0.7267763614654541,-0.10743584483861923,0.14805835485458374
1772721577639003400,2.17000341796875,-0.49831295013427734,0.24258968234062195,0.24885104596614838
1772721577657599200,2.18859912109375,-0.04841103404760361,0.6799688339233398,0.09521854668855667
1772721577676195300,2.2071953125,0.12385283410549164,0.19463679194450378,-0.2092975378036499
1772721577694791400,2.22579150390625,0.04169152304530144,-0.8080977201461792,-0.30398157238960266
1772721577713387300,2.24438720703125,-0.3040579557418823,-1.029841661453247,-0.173256516456604
1772721577731983000,2.262983154296875,-0.4897608458995819,0.9368374943733215,-0.010155626572668552
1772721577750579200,2.2815791015625,0.01908952370285988,2.703458547592163,0.2372446060180664
1772721577769175300,2.30017529296875,0.5248855352401733,2.090761184692383,0.9788344502449036
1772721577787771100,2.318771240234375,0.57008957862854,-0.24396412074565887,1.7008765935897827
1772721577806367000,2.337366943359375,0.5422952175140381,-2.2240822315216064,1.742415428161621
1772721577824963000,2.355963134765625,0.301003634929657,-2.36824631690979,1.2088249921798706
1772721577843559000,2.374558837890625,-0.08567378669977188,-1.195996880531311,0.6343067288398743
1772721577862155000,2.393155029296875,-0.5450441241264343,-0.41897687315940857,0.16730059683322906
1772721577880750800,2.411750732421875,-0.8107702732086182,-0.2274707704782486,-0.12927426397800446
1772721577899347000,2.430346923828125,-0.7295252680778503,-0.2775616943836212,-0.21296273171901703
1772721577917942800,2.44894287109375,-0.5108356475830078,-0.6892845630645752,-0.07490729540586472
1772721577936539000,2.467538818359375,-0.3168860971927643,-1.0054070949554443,0.22563818097114563
1772721577955134700,2.486134765625,-0.19868376851081848,-0.8658244609832764,0.538706362247467
1772721577973730800,2.504730712890625,-0.15867212414741516,-0.44096800684928894,0.6752346754074097
1772721577992326700,2.52332666015625,-0.13240493834018707,0.10025817900896072,0.48525571823120117
1772721578010922500,2.541922607421875,-0.12446369975805283,0.4658607542514801,0.06620246917009354
1772721578029518600,2.5605185546875,-0.212733656167984,0.5358047485351562,-0.34429866075515747
1772721578048114400,2.579114501953125,-0.42195484042167664,0.38217228651046753,-0.6543125510215759
1772721578066710500,2.59771044921875,-0.6131555438041687,0.2505309283733368,-0.8702532649040222
1772721578085306400,2.616306396484375,-0.6452259421348572,0.261526495218277,-1.0770310163497925
1772721578103902500,2.63490234375,-0.4995346665382385,0.3833940029144287,-1.0403790473937988
1772721578122498300,2.653498291015625,-0.33887723088264465,0.5348884463310242,-0.655228853225708
1772721578141094400,2.672094482421875,-0.32849252223968506,0.3418551981449127,-0.22884522378444672
1772721578159690200,2.690690185546875,-0.3220784664154053,0.32047492265701294,-0.05261072888970375
1772721578178286300,2.709286376953125,-0.29306238889694214,0.32383468747138977,-0.542829692363739
1772721578196882200,2.727882080078125,-0.09208786487579346,-0.3710239827632904,-1.3280963897705078
1772721578215478300,2.746478271484375,-0.15347976982593536,-1.6755257844924927,-1.2709804773330688
1772721578234074000,2.76507421875,-0.7463240623474121,-1.9186499118804932,-0.6100248694419861
1772721578252670000,2.783669921875,-0.7203623056411743,0.10789398849010468,-0.36690065264701843
1772721578271266000,2.80226611328125,0.031001387163996696,2.269744396209717,-0.682412326335907
1772721578289862000,2.82086181640625,0.42623090744018555,2.3812272548675537,-0.6420952677726746
1772721578308458000,2.8394580078125,0.5853611826896667,0.8073341846466064,0.029856016859412193
1772721578327053800,2.8580537109375,0.5297724604606628,-1.2121847867965698,0.4232529401779175
1772721578345650000,2.87664990234375,0.41034841537475586,-2.2778384685516357,0.630946934223175
1772721578364245800,2.895245849609375,0.5422952175140381,-1.7390556335449219,0.6065123677253723
1772721578382841900,2.913841796875,0.485484778881073,-0.441884309053421,0.31787875294685364
1772721578401437700,2.932437744140625,0.29367324709892273,0.9927316308021545,0.17829616367816925
1772721578420033800,2.95103369140625,0.11285726726055145,1.6433025598526,0.3597230017185211
1772721578438629600,2.969629638671875,0.19837833940982819,1.376354694366455,0.6694314479827881
1772721578457225500,2.9882255859375,0.5010618567466736,0.7407498955726624,1.002963662147522
1772721578475821600,3.006821533203125,0.7982475757598877,0.20044000446796417,1.233259677886963
1772721578494417700,3.025417724609375,0.9653190970420837,0.09567669779062271,1.195691466331482
1772721578513013500,3.044013427734375,0.8972076177597046,0.3644571900367737,0.8157335519790649
1772721578531609300,3.062609375,0.6482802629470825,0.645455002784729,0.20761767029762268
1772721578550205400,3.081205322265625,0.44119709730148315,0.8342122435569763,-0.4252382516860962
1772721578568801300,3.09980126953125,0.4405862092971802,0.9841794967651367,-0.7633519172668457
1772721578587397400,3.1183974609375,0.5154171586036682,0.9692133069038391,-0.7517454624176025
1772721578605993200,3.1369931640625,0.6119337677955627,0.6002510190010071,-0.6094139814376831
1772721578624589300,3.15558935546875,0.6217076182365417,0.07429642975330353,-0.4725802540779114
1772721578643185200,3.17418505859375,0.5444332361221313,-0.40920305252075195,-0.33452481031417847
1772721578661781000,3.192781005859375,0.6036871075630188,-0.4580722153186798,-0.22151483595371246
1772721578680377000,3.211377197265625,0.9103412628173828,0.12713623046875,-0.11827868968248367
1772721578698973200,3.22997314453125,1.2328778505325317,0.5920043587684631,-0.0758235901594162
1772721578717569000,3.248569091796875,1.3959786891937256,0.3739255964756012,-0.004657844081521034
1772721578736164900,3.267164794921875,1.374598503112793,-0.3771326541900635,0.42539095878601074
1772721578754761000,3.285760986328125,1.22402024269104,-1.0613012313842773,1.09520423412323
1772721578773356800,3.304356689453125,1.3293944597244263,-1.1999675035476685,1.3691771030426025
1772721578791953000,3.322952880859375,1.3895646333694458,-0.685924768447876,0.8844558596611023
1772721578810548700,3.341548828125,1.1201733350753784,-0.34231334924697876,0.029856016859412193
1772721578829144800,3.360144775390625,0.634230375289917,-0.31787875294685364,-0.5416079759597778
1772721578847740700,3.37874072265625,0.21212279796600342,-0.18684826791286469,-0.4408152997493744
1772721578866336500,3.39733642578125,-0.19898919761180878,-0.07597630470991135,-0.4301251769065857
1772721578884932600,3.4159326171875,-0.4943423271179199,0.22365286946296692,-0.8030580878257751
1772721578903528700,3.43452880859375,-0.6892082095146179,0.36018115282058716,-1.394069790840149
1772721578922124500,3.45312451171875,-0.6971494555473328,0.16562071442604065,-1.7511202096939087
1772721578940720400,3.471720458984375,-0.6800451874732971,0.034895651042461395,-1.7095814943313599
1772721578959316500,3.49031640625,-0.5862774848937988,0.235564723610878,-1.3442842960357666
1772721578977912300,3.508912353515625,-0.3013090491294861,0.45272716879844666,-0.6631700992584229
1772721578996508400,3.52750830078125,0.014202605932950974,0.45364347100257874,0.1401171088218689
1772721579015104300,3.546104248046875,0.2338084876537323,0.2404516488313675,0.73204505443573
1772721579033700400,3.564700439453125,0.449138343334198,-0.0029779658652842045,1.0390046834945679
1772721579052296200,3.583296142578125,0.6262891292572021,-0.20853395760059357,1.0554980039596558
1772721579070892000,3.60189208984375,0.7502946853637695,-0.2543488144874573,0.898200273513794
1772721579089488100,3.620488037109375,0.772591233253479,-0.1553887277841568,0.5136609077453613
1772721579108084000,3.639083984375,0.6873756051063538,0.183030366897583,0.014584396965801716
1772721579126680000,3.65768017578125,0.5086976289749146,0.616744339466095,-0.35040730237960815
1772721579145276000,3.67627587890625,0.3572031855583191,1.0498474836349487,-0.3177260458469391
1772721579163872000,3.6948720703125,0.28237223625183105,1.2071452140808105,-0.008017600513994694
1772721579182467800,3.7134677734375,0.212733656167984,1.0962731838226318,0.24396412074565887
1772721579201064000,3.73206396484375,0.3061959743499756,0.5880337357521057,0.31115925312042236
1772721579219659800,3.75065966796875,0.3828594982624054,-0.16882775723934174,0.17676898837089539
1772721579238255600,3.769255615234375,0.5963567495346069,-0.9788344502449036,0.16363540291786194
1772721579256851700,3.787851806640625,0.8636100888252258,-1.4479786157608032,0.3917934000492096
1772721579275447600,3.806447509765625,0.6852375864982605,-1.3511565923690796,0.6743183732032776
1772721579294043600,3.825043701171875,0.2380845546722412,-0.8181769847869873,0.47548186779022217
1772721579312639500,3.843639404296875,-0.16966769099235535,0.0907897800207138,-0.15065452456474304
1772721579331235600,3.862235595703125,-0.5248855352401733,0.7001274228096008,-0.7056251764297485
1772721579349831400,3.88083154296875,-0.9268345832824707,0.6005564332008362,-0.9737948179244995
1772721579368427300,3.89942724609375,-1.327256441116333,0.0859028622508049,-0.9826523661613464
1772721579387023400,3.9180234375,-1.4912736415863037,-0.2381609082221985,-0.6992111206054688
1772721579405619500,3.936619384765625,-1.1107048988342285,-0.4531853199005127,-0.32414013147354126
1772721579424215300,3.95521533203125,-0.45769044756889343,-0.5270999670028687,0.18959715962409973
1772721579442811100,3.97381103515625,0.10613775253295898,-0.4846448302268982,0.8474985361099243
1772721579461407200,3.9924072265625,0.20662501454353333,-0.46570804715156555,1.5557962656021118
1772721579480003000,4.011003173828125,0.044440411031246185,-0.2372446060180664,2.0344088077545166
1772721579498599000,4.029598876953125,-0.021838415414094925,0.13568833470344543,2.1736860275268555
1772721579517195000,4.048195068359375,0.09453132748603821,0.46799877285957336,2.00478196144104
1772721579535790800,4.066790771484375,0.3019199073314667,0.5868119597434998,1.6804126501083374
1772721579554387000,4.085386962890625,0.5190823674201965,0.49487683176994324,1.3117557764053345
1772721579572982800,4.103982666015625,0.5410735011100769,0.3415497839450836,1.0160971879959106
1772721579591579000,4.122578857421875,0.2991710305213928,0.17905974388122559,0.8016836643218994
1772721579610174700,4.1411748046875,-0.08567378669977188,0.04528035223484039,0.5576431751251221
1772721579628770800,4.159770751953125,-0.5670352578163147,0.04130972921848297,0.1804341822862625
1772721579647366700,4.17836669921875,-1.0267109870910645,0.2294560819864273,-0.39255696535110474
1772721579665962500,4.19696240234375,-1.2576178312301636,0.4808269441127777,-0.9838740825653076
1772721579684558600,4.21555859375,-1.3266456127166748,0.3287216126918793,-1.1992039680480957
1772721579703154400,4.234154541015625,-1.1995856761932373,-0.00603228947147727,-0.681801438331604
1772721579721750300,4.252750244140625,-0.8791871070861816,-0.0322994738817215,0.15874847769737244
1772721579740346400,4.271346435546875,-0.458301305770874,-0.14347685873508453,0.4534907341003418
1772721579758942200,4.289942138671875,-0.2692386507987976,-0.7638100385665894,0.33284494280815125
1772721579777538300,4.308538330078125,-0.5832231640815735,-1.1456005573272705,0.44585493206977844
1772721579796134100,4.327134033203125,-1.0172425508499146,-0.8731548190116882,0.2787834107875824
1772721579814730200,4.345730224609375,-1.363908290863037,-0.40339982509613037,-0.3782016634941101
1772721579833326000,4.364326171875,-1.6207770109176636,-0.07567087560892105,-0.7667116522789001
1772721579851922200,4.382922119140625,-1.770133376121521,-0.24610215425491333,-0.9453896284103394
1772721579870518000,4.40151806640625,-1.9955425262451172,-0.5869646668434143,-1.088331937789917
1772721579889113900,4.42011376953125,-2.1140503883361816,-0.7845794558525085,-1.1662172079086304
1772721579907710000,4.4387099609375,-1.7661627531051636,-0.835281252861023,-1.1714096069335938
1772721579926305800,4.457305908203125,-1.144302487373352,-0.9070578217506409,-0.9337831735610962
1772721579944901600,4.475901611328125,-0.49800750613212585,-1.1168898344039917,-0.450589120388031
1772721579963497700,4.494497802734375,-0.14523309469223022,-1.3364957571029663,0.17249293625354767
1772721579982093600,4.513093505859375,-0.16508620977401733,-1.0154863595962524,0.7002801299095154
1772721580000689700,4.531689697265625,-0.22220206260681152,-0.21800236403942108,0.9223294854164124
1772721580019285500,4.550285400390625,-0.1464548259973526,0.5333613157272339,0.8300888538360596
1772721580037881600,4.568881591796875,-0.037720900028944016,0.9304234385490417,0.6059014797210693
1772721580056477400,4.5874775390625,0.05177079141139984,0.9652426838874817,0.3759109079837799
1772721580075073300,4.6060732421875,0.02306014485657215,0.6390409469604492,0.20395247638225555
1772721580093669400,4.62466943359375,-0.1107192412018776,0.17936517298221588,-0.014431680552661419
1772721580112265200,4.64326513671875,-0.2176205813884735,-0.15966477990150452,-0.3482692837715149
1772721580130861300,4.661861328125,-0.2900080680847168,-0.21922409534454346,-0.7056251764297485
1772721580149457200,4.68045703125,-0.34468045830726624,-0.13370302319526672,-0.9276745319366455
1772721580168053000,4.699052978515625,-0.4689914286136627,-0.3597230017185211,-0.8103885054588318
1772721580186649000,4.717649169921875,-0.5077813267707825,0.3827831447124481,-0.1527925580739975
1772721580205245000,4.736244873046875,-0.6204859018325806,1.1307870149612427,0.6532435417175293
1772721580223841000,4.754841064453125,-0.36942046880722046,1.2123374938964844,0.7155517339706421
1772721580242436900,4.773436767578125,0.08139773458242416,0.543440580368042,-0.013820815831422806
1772721580261033000,4.792032958984375,0.013897174037992954,-0.7005855441093445,-0.2514472007751465
1772721580279628800,4.81062890625,-0.30314165353775024,-1.7986149787902832,-0.10697769373655319
1772721580298224600,4.829224609375,-0.2283107042312622,-1.1003965139389038,-0.004963276442140341
1772721580316820700,4.84782080078125,0.24022257328033447,-0.054901473224163055,-0.42798712849617004
1772721580335416600,4.86641650390625,0.5682569742202759,-0.22288928925991058,-0.8326850533485413
1772721580354012700,4.8850126953125,0.5670352578163147,-0.65935218334198,-0.3216966688632965
1772721580372608500,4.9036083984375,0.5145008563995361,-0.4846448302268982,0.44157886505126953
1772721580391204400,4.922204345703125,0.5597048401832581,0.11950042098760605,0.46601346135139465
1772721580409800400,4.940800537109375,0.8385646343231201,0.40294167399406433,0.008781181648373604
1772721580428396300,4.959396240234375,0.8529199361801147,-0.01672242395579815,-0.16714787483215332
1772721580446992400,4.977992431640625,0.6403390169143677,-0.5512291193008423,-0.04894553869962692
1772721580465588200,4.996588134765625,0.22220206260681152,-0.5579485893249512,0.27633994817733765
1772721580484184000,5.01518408203125,-0.0639880821108818,-0.09521854668855667,0.46112653613090515
1772721580502780200,5.0337802734375,-0.09056070446968079,0.3687332570552826,0.44524407386779785
1772721580521376000,5.0523759765625,-0.05513054504990578,0.5935314893722534,0.5576431751251221
1772721580539971800,5.070971923828125,-0.11438442766666412,0.5272526741027832,0.798323929309845
1772721580558568000,5.08956787109375,-0.2548833191394806,0.3644571900367737,0.8908699154853821
1772721580577163800,5.108163818359375,-0.41095927357673645,0.4182133078575134,0.6627119183540344
1772721580595759900,5.126759765625,-0.5416843295097351,0.6598103046417236,0.10713040828704834
1772721580614355700,5.145355712890625,-0.6885973215103149,0.8088613152503967,-0.5327504277229309
1772721580632951600,5.16395166015625,-0.9097303748130798,0.8317687511444092,-1.0205259323120117
1772721580651547600,5.182547607421875,-1.1229221820831299,0.9432515501976013,-1.2526545524597168
1772721580670143500,5.2011435546875,-1.2664754390716553,1.19156813621521,-1.1927897930145264
1772721580688739300,5.2197392578125,-1.2090541124343872,1.292360782623291,-0.8943824172019958
1772721580707335400,5.23833544921875,-0.8990402221679688,0.9050725102424622,-0.7337249517440796
1772721580725931300,5.25693115234375,-0.634230375289917,0.07307469844818115,-0.579787015914917
1772721580744527400,5.27552734375,-0.2903134822845459,-0.6905062794685364,-0.19646938145160675
1772721580763123200,5.294123291015625,0.32879796624183655,-0.8661298751831055,0.3807978332042694
1772721580781719300,5.31271923828125,0.7200568318367004,-1.2317324876785278,0.43516480922698975
1772721580800315100,5.331315185546875,0.6598866581916809,-1.5634320974349976,0.4021781086921692
1772721580818911200,5.3499111328125,0.18432845175266266,-1.9223151206970215,0.44432777166366577
1772721580837507000,5.368507080078125,-0.4650208055973053,-1.1880556344985962,0.14744748175144196
1772721580856103000,5.38710302734375,-0.938746452331543,0.021456625312566757,-0.42615455389022827
1772721580874699000,5.405698974609375,-1.0093013048171997,0.4160752594470978,-0.6989056468009949
1772721580893294800,5.424294921875,-0.6696605086326599,-0.40920305252075195,-0.30978479981422424
1772721580911890700,5.442890625,-0.10980294644832611,-1.9339215755462646,0.3862956166267395
1772721580930486500,5.461486572265625,0.11621702462434769,-2.9168028831481934,0.9513455629348755
1772721580949082600,5.48008251953125,0.18493930995464325,-2.22286057472229,1.1801143884658813
1772721580967678500,5.498678466796875,0.04108065739274025,-0.7897717952728271,1.2653300762176514
1772721580986274600,5.517274658203125,-0.3068068325519562,-0.1242346242070198,1.3038145303726196
1772721581004870400,5.535870361328125,-0.781754195690155,-0.4431060254573822,1.3844486474990845
1772721581023466200,5.55446630859375,-1.1000148057937622,-0.5356520414352417,1.204548954963684
1772721581042062300,5.573062255859375,-1.1388046741485596,0.004352411720901728,0.5875755548477173
1772721581060658200,5.591658203125,-0.9909753799438477,0.7535780668258667,-0.17997603118419647
1772721581079254000,5.61025390625,-0.8510873317718506,1.1109340190887451,-0.6918807029724121
1772721581097850000,5.62885009765625,-0.8220712542533875,0.9343940615653992,-0.8739184141159058
1772721581116446000,5.647446044921875,-0.8978185057640076,0.6008618474006653,-0.9017127752304077
1772721581135042000,5.6660419921875,-0.8016073107719421,0.47960519790649414,-1.0315215587615967
1772721581153638000,5.684637939453125,-0.5694786906242371,0.7144827246665955,-1.0312161445617676
1772721581172233700,5.703233642578125,-0.4021017551422119,1.0635919570922852,-0.7661007642745972
1772721581190829800,5.721829833984375,-0.27320927381515503,1.4722604751586914,-0.36598435044288635
1772721581209425700,5.74042578125,-0.05818486958742142,1.6607122421264648,-0.02542724646627903
1772721581228021800,5.759021728515625,0.2383899837732315,1.49486243724823,0.22960880398750305
1772721581246617600,5.77761767578125,0.5707004070281982,0.8815542459487915,0.284586638212204
1772721581265213400,5.79621337890625,0.9182825088500977,0.3314704895019531,0.34322965145111084
1772721581283809500,5.8148095703125,1.2689188718795776,-0.3291797637939453,0.46112653613090515
1772721581302405400,5.8334052734375,1.1122320890426636,-0.9962440729141235,0.6483566164970398
1772721581321001200,5.852001220703125,0.662330150604248,-0.7821359634399414,0.7824414372444153
1772721581339597300,5.870597412109375,0.3202458620071411,0.2196822464466095,0.5060251355171204
1772721581358193200,5.889193115234375,0.03130681812763214,1.0107520818710327,0.040546149015426636
1772721581376789000,5.9077890625,-0.08109229803085327,0.7343358397483826,-0.45303258299827576
1772721581395385000,5.926385009765625,-0.012370011769235134,-0.2992473840713501,-0.7208967804908752
1772721581413981000,5.94498095703125,0.48701193928718567,-1.3187806606292725,-0.5446622967720032
1772721581432576800,5.96357666015625,0.9085086584091187,-1.7726532220840454,-0.04650207981467247
1772721581451172900,5.9821728515625,0.7750346660614014,-1.4009419679641724,0.4675406217575073
1772721581469768700,6.000768798828125,0.23044873774051666,-0.7027235627174377,0.9070578217506409
1772721581488364500,6.019364501953125,-0.4644099473953247,-0.2641226649284363,1.0448077917099
1772721581506960600,6.037960693359375,-0.8752164840698242,0.20746494829654694,0.7937424182891846
1772721581525556500,6.056556396484375,-0.985783040523529,0.8354339599609375,0.23663374781608582
1772721581544152300,6.07515234375,-0.9610430002212524,1.2517383098602295,-0.35651594400405884
1772721581562748400,6.09374853515625,-0.8779653906822205,0.8476512432098389,-0.3723984360694885
1772721581581344300,6.11234423828125,-0.5658134818077087,-0.1712712198495865,0.045738499611616135
1772721581599940000,6.130940185546875,-0.21609342098236084,-0.418366014957428,0.032910339534282684
1772721581618536200,6.1495361328125,-0.07620538026094437,0.15004366636276245,-0.5975021123886108
1772721581637132000,6.168132080078125,-0.2542724609375,1.0648136138916016,-1.3247365951538086
1772721581655727900,6.186727783203125,-0.5682569742202759,1.664072036743164,-1.7361540794372559
1772721581674324000,6.205323974609375,-0.782365083694458,1.6979750394821167,-1.7272964715957642
1772721581692919800,6.223919921875,-0.8055779337882996,1.4264456033706665,-1.2138646841049194
1772721581711515600,6.242515625,-0.7115047574043274,0.9389755129814148,-0.5324450135231018
1772721581730111700,6.26111181640625,-0.6262891292572021,0.8809433579444885,-0.029703300446271896
1772721581748707600,6.27970751953125,-0.4396699368953705,1.0104466676712036,-0.03733910992741585
1772721581767303400,6.298303466796875,-0.16478078067302704,0.43745553493499756,-0.6051379442214966
1772721581785899500,6.3168994140625,-0.3507890999317169,-0.9928843379020691,-0.9612720608711243
1772721581804495400,6.335495361328125,-0.7567087411880493,-2.0423500537872314,-0.5849793553352356
1772721581823091200,6.35409130859375,-1.167820692062378,-2.225304126739502,-0.13599377870559692
1772721581841687000,6.37268701171875,-1.6421571969985962,-1.2347867488861084,-0.4350120723247528
1772721581860283100,6.391283203125,-2.0691516399383545,0.3946950137615204,-0.9200387001037598
1772721581878879000,6.40987890625,-2.260352373123169,1.4832561016082764,-0.9887610077857971
1772721581897475000,6.42847509765625,-2.086866855621338,1.4689006805419922,-0.5916988849639893
1772721581916071000,6.44707080078125,-1.8321361541748047,0.6778308153152466,0.25526511669158936
1772721581934666800,6.465666748046875,-1.4900518655776978,-0.2629009187221527,1.416519045829773
1772721581953262600,6.4842626953125,-0.9127846956253052,-0.9162207841873169,2.686201572418213
1772721581971858700,6.502858642578125,-0.3303251266479492,-0.94523686170578,3.5685956478118896
1772721581990454500,6.52145458984375,-0.0951421856880188,-0.07047852128744125,3.563403367996216
1772721582009050400,6.54005029296875,-0.145843967795372,0.7859538793563843,3.1241915225982666
1772721582027646200,6.558646240234375,-0.3379609286785126,1.10635244846344,2.546313524246216
1772721582046242300,6.5772421875,-0.33979353308677673,1.0987166166305542,1.3765074014663696
1772721582064838100,6.595838134765625,-0.3715584874153137,0.9411135315895081,0.09827287495136261
1772721582083434000,6.61443408203125,-0.6724094152450562,0.6268236041069031,-0.6408734917640686
1772721582102030000,6.633030029296875,-0.984255850315094,0.30245441198349,-0.9469167590141296
1772721582120626000,6.6516259765625,-1.124449372291565,0.2716057598590851,-1.201647400856018
1772721582139221800,6.6702216796875,-1.1662936210632324,0.395305871963501,-1.328707218170166
1772721582157817600,6.688817626953125,-1.1562143564224243,0.3326922357082367,-1.117348074913025
1772721582176413700,6.70741357421875,-1.2881611585617065,-0.10254892706871033,-0.607581377029419
1772721582195009500,6.726009521484375,-1.3242021799087524,-0.1703549176454544,-0.2774089574813843
1772721582213605400,6.74460546875,-1.2136355638504028,0.24778202176094055,-0.3336085379123688
1772721582232201200,6.763201171875,-1.1782054901123047,0.4200458824634552,-0.6830231547355652
1772721582250797300,6.78179736328125,-1.1962260007858276,0.17967060208320618,-0.9377537965774536
1772721582269393200,6.80039306640625,-1.0621411800384521,-0.2729802131652832,-0.5950586795806885
1772721582287989200,6.8189892578125,-0.9503529071807861,-0.8172607421875,-0.2755763828754425
1772721582306585000,6.837585205078125,-0.929888904094696,-0.2378554791212082,-0.30459246039390564
1772721582325181000,6.856180908203125,-0.5209149122238159,0.12163844704627991,-0.46341729164123535
1772721582343776800,6.87477685546875,0.19593487679958344,-0.4895317554473877,-0.04253146052360535
1772721582362372900,6.893372802734375,0.9882264733314514,-2.010585069656372,0.7274636030197144
1772721582380968700,6.91196875,1.327256441116333,-3.055469274520874,1.3856704235076904
1772721582399564500,6.930564453125,1.2496765851974487,-2.565861225128174,1.5799254179000854
1772721582418160400,6.949160400390625,0.9332486391067505,-1.2402845621109009,1.352378249168396
1772721582436756200,6.967756103515625,0.5001455545425415,-0.3646099269390106,1.138575553894043
1772721582455352300,6.986352294921875,0.0899498388171196,-0.10468695312738419,0.9400445222854614
1772721582473948200,7.0049482421875,-0.05971203371882439,0.1521816849708557,0.6266708970069885
1772721582492544300,7.023544189453125,-0.0539088174700737,0.6417897939682007,0.3771326541900635
1772721582511139800,7.042139892578125,0.022754713892936707,1.3528363704681396,0.3560578227043152
1772721582529736000,7.06073583984375,0.23716825246810913,1.8341978788375854,0.4522690176963806
1772721582548331800,7.079331787109375,0.46807512640953064,1.9465969800949097,0.49166980385780334
1772721582566927600,7.097927734375,0.6183478832244873,1.624671220779419,0.3468948304653168
1772721582585523700,7.116523681640625,0.6965385675430298,1.0379356145858765,0.004199695307761431
1772721582604119600,7.13511962890625,0.689513623714447,0.4304305911064148,-0.45822495222091675
1772721582622715400,7.15371533203125,0.5664243698120117,-0.009697478264570236,-0.8678097724914551
1772721582641311200,7.172311279296875,0.3730856776237488,-0.10010546445846558,-1.2410482168197632
1772721582659907300,7.1909072265625,0.1718057245016098,0.09231694042682648,-1.6048181056976318
1772721582678503200,7.209503173828125,-0.029474224895238876,0.497320294380188,-1.887648582458496
1772721582697099000,7.22809912109375,-0.3052796721458435,1.125900149345398,-1.9991313219070435
1772721582715694800,7.24669482421875,-0.5276344418525696,1.563584804534912,-2.027536630630493
1772721582734290700,7.265290771484375,-0.44150251150131226,1.8671845197677612,-1.829005479812622
1772721582752886800,7.28388671875,0.2542724609375,2.010126829147339,-1.015333652496338
1772721582771482600,7.302482666015625,0.8596394658088684,1.8595486879348755,-0.05108356848359108
1772721582790078500,7.321078369140625,1.1714859008789062,0.5736783742904663,0.14805835485458374
1772721582808674600,7.339674560546875,1.2408190965652466,-0.6162862181663513,0.04390590637922287
1772721582827270400,7.3582705078125,0.9778417944908142,-1.1688133478164673,0.2225838601589203
1772721582845866200,7.3768662109375,0.7044798135757446,-1.4223222732543945,0.18379394710063934
1772721582864462000,7.395462158203125,0.2842048406600952,-1.686215877532959,-0.47868892550468445
1772721582883058200,7.41405810546875,0.1815795600414276,-0.9782235622406006,-1.0104466676712036
1772721582901654000,7.432654052734375,0.3422369956970215,-0.584826648235321,-1.0086140632629395
1772721582920249900,7.451249755859375,0.6382009983062744,-0.9525672793388367,-0.5874228477478027
1772721582938845700,7.469845703125,0.8981239199638367,-1.4113267660140991,-0.04955640435218811
1772721582957441500,7.488441650390625,1.0633628368377686,-1.1642318964004517,0.4944186806678772
1772721582976037600,7.50703759765625,1.1601849794387817,-0.24060437083244324,1.1419353485107422
1772721582994633500,7.525633544921875,1.1452187299728394,0.30031639337539673,1.7625739574432373
1772721583013229300,7.544229248046875,1.014493703842163,0.00923932995647192,2.29555344581604
1772721583031825400,7.562825439453125,1.0548107624053955,-0.5362629294395447,2.4384958744049072
1772721583050421000,7.5814208984375,1.2777763605117798,-0.6804270148277283,1.8334342241287231
1772721583069017000,7.60001708984375,1.4662281274795532,-0.4632645845413208,0.7097485065460205
1772721583087613000,7.618613037109375,1.3413063287734985,-0.5319868922233582,-0.37636905908584595
1772721583106208800,7.637208740234375,0.9414953589439392,-0.7015018463134766,-1.1042144298553467
1772721583124804900,7.655804931640625,0.5429060459136963,-0.46540260314941406,-1.4652355909347534
1772721583143400700,7.674400634765625,0.15531237423419952,0.2963457703590393,-1.3424516916275024
1772721583161996500,7.69299658203125,-0.06551524996757507,1.097800374031067,-0.9331722855567932
1772721583180592400,7.71159228515625,0.09544762223958969,1.476841926574707,-0.5257254838943481
1772721583199188200,7.730188232421875,0.6235402226448059,1.348254919052124,-0.21113014221191406
1772721583217784300,7.748784423828125,1.264337420463562,0.7169261574745178,-0.14698933064937592
1772721583236380200,7.767380126953125,1.6827797889709473,-0.2369391769170761,-0.03520108386874199
1772721583254976000,7.78597607421875,1.838550329208374,-0.9605085253715515,0.27572908997535706
1772721583273571800,7.80457177734375,2.033721685409546,-1.5597668886184692,0.36766424775123596
1772721583292167700,7.823167724609375,2.173915147781372,-2.1064908504486084,0.26626068353652954
1772721583310763800,7.841763671875,1.8858922719955444,-1.7775402069091797,0.6566032767295837
1772721583329359600,7.860359619140625,1.4491239786148071,-1.2234858274459839,0.8939242362976074
1772721583347955500,7.87895556640625,0.9332486391067505,-0.4385245442390442,0.5976548194885254
1772721583366551300,7.89755126953125,0.3370446562767029,-0.17829616367816925,-0.116751529276371
1772721583385147100,7.916147216796875,-0.29733842611312866,-0.283975750207901,-0.8507055640220642
1772721583403743000,7.934742919921875,-0.6925679445266724,-0.14378230273723602,-1.328401803970337
1772721583422339000,7.953339111328125,-0.7029526233673096,0.3895026445388794,-1.6158137321472168
1772721583440935000,7.971934814453125,-0.5774199366569519,0.6008618474006653,-1.4362194538116455
1772721583459530800,7.99053076171875,-0.6834049820899963,0.3073413372039795,-0.7273108959197998
1772721583478126800,8.009126953125,-1.0248783826828003,0.051389001309871674,-0.0910952091217041
1772721583496722700,8.02772265625,-1.167820692062378,0.4041634202003479,-0.09048434346914291
1772721583515318500,8.046318603515624,-0.9686788320541382,0.9270636439323425,-0.49854201078414917
1772721583533914400,8.064914306640626,-0.6348412036895752,0.9673807621002197,-0.6417897939682007
1772721583552510200,8.08351025390625,-0.31902414560317993,0.617660641670227,-0.2774089574813843
1772721583571106000,8.10210595703125,-0.10430516302585602,0.22701261937618256,0.25007277727127075
1772721583589702100,8.1207021484375,0.04657844081521034,-0.150196373462677,0.6037634611129761
1772721583608298000,8.139298095703126,0.13209950923919678,-0.44432777166366577,0.5784125924110413
1772721583626893800,8.157893798828125,0.20204351842403412,-0.4174497127532959,0.2515999376773834
1772721583645489700,8.17648974609375,0.19349141418933868,-0.11995857208967209,-0.0758235901594162
1772721583664085500,8.19508544921875,0.0899498388171196,0.17172935605049133,-0.04039343446493149
1772721583682681300,8.213681396484375,-0.03588830679655075,0.1937204897403717,0.28550294041633606
1772721583701277400,8.23227734375,-0.2890917658805847,0.12011128664016724,0.3850739002227783
1772721583719873300,8.250873291015624,-0.291229784488678,0.5107592940330505,0.17799071967601776
1772721583738469000,8.26946923828125,-0.07895427197217941,0.811610221862793,-0.19769111275672913
1772721583757065000,8.28806494140625,0.030695954337716103,0.5190060138702393,-0.3833940029144287
1772721583775660800,8.306660888671875,0.017256930470466614,0.2975675165653229,-0.12041672319173813
1772721583794256600,8.325256591796874,-0.08567378669977188,0.9163735508918762,0.4290561378002167
1772721583812852700,8.343852783203126,-0.11652245372533798,1.117958903312683,0.44554948806762695
1772721583831448600,8.362448486328125,0.2029598206281662,0.8992693424224854,0.35361436009407043
1772721583850044400,8.38104443359375,0.7869465351104736,0.2709949016571045,0.8016836643218994
1772721583868640300,8.39964013671875,1.2597558498382568,-0.7241038084030151,1.298011302947998
1772721583887236000,8.418236083984375,1.246316909790039,-1.4311797618865967,1.6614758968353271
1772721583905832000,8.43683203125,0.836121141910553,-1.0808488130569458,1.4391210079193115
1772721583924428000,8.455427978515624,0.2331976294517517,-0.30291256308555603,0.6462185978889465
1772721583943023900,8.47402392578125,-0.20693044364452362,0.35529422760009766,-0.15706861019134521
1772721583961619700,8.49261962890625,-0.32360562682151794,0.572151243686676,-0.5791761875152588
1772721583980215600,8.511215576171875,-0.3724747896194458,0.3898080885410309,-0.5015963315963745
1772721583998811400,8.529811279296876,-0.3935496211051941,0.21326816082000732,-0.05169443041086197
1772721584017407500,8.548407470703125,-0.2707658112049103,0.0862082913517952,0.3615556061267853
1772721584036003000,8.567003173828125,-0.1256854236125946,-0.11293362826108932,0.5310705900192261
1772721584054599200,8.58559912109375,0.0001527161948615685,-0.3001636862754822,0.47639816999435425
1772721584073195000,8.604195068359376,0.02764163166284561,-0.33223408460617065,0.12637265026569366
1772721584091790800,8.622790771484375,-0.18432845175266266,-0.1404225379228592,-0.35101816058158875
1772721584110386700,8.64138671875,-0.5447386503219604,0.28473934531211853,-0.6967676281929016
1772721584128982500,8.659982421875,-0.6708822250366211,0.7395281791687012,-0.8375719785690308
1772721584147578600,8.67857861328125,-0.4589121639728546,0.8696423768997192,-0.7325032353401184
1772721584166174500,8.697174560546875,-0.11285726726055145,0.3901135325431824,-0.36537349224090576
1772721584184770300,8.715770263671875,0.17455461621284485,-0.2213621288537979,0.1758527010679245
1772721584203366100,8.7343662109375,0.2952004075050354,-0.47151124477386475,0.8945351243019104
1772721584221962000,8.7529619140625,0.6253728270530701,-0.23052509129047394,1.3731476068496704
1772721584240557800,8.771557861328125,0.9216422438621521,-0.08819360285997391,0.9363793730735779
1772721584259153700,8.790153564453124,0.7631227970123291,-0.630946934223175,0.09185878932476044
1772721584277749800,8.808749755859376,0.13973531126976013,-1.0680207014083862,-0.06635518372058868
1772721584296345600,8.827345703125,-0.25579962134361267,-0.1611919403076172,0.3249036967754364
1772721584314941400,8.84594140625,-0.5031998753547668,0.8632283210754395,0.05459604039788246
1772721584333537300,8.864537353515624,-0.57008957862854,0.9673807621002197,-0.6372083425521851
1772721584352133000,8.883133056640625,-0.6864593029022217,-0.16241367161273956,-1.2639555931091309
1772721584370729000,8.90172900390625,-0.6470585465431213,-1.1410191059112549,-1.4426335096359253
1772721584389324800,8.92032470703125,-0.5514581799507141,-1.0616066455841064,-1.504636287689209
1772721584407920600,8.938920654296876,-0.6354520916938782,-0.34292420744895935,-1.3274855613708496
1772721584426516500,8.9575166015625,-0.7790052890777588,0.2596938908100128,-0.9133192300796509
1772721584445112600,8.976112548828125,-0.9271399974822998,0.24136795103549957,-0.5846739411354065
1772721584463708400,8.99470849609375,-0.9137009978294373,0.028787001967430115,-0.5522981286048889
1772721584482304300,9.01330419921875,-0.6748528480529785,-0.19265148043632507,-0.73830646276474
1772721584500900000,9.031900146484375,-0.5820014476776123,-0.22624903917312622,-1.016860842704773
1772721584519496000,9.050495849609375,-0.5801688432693481,0.2801578640937805,-1.137201189994812
1772721584538091800,9.069091796875,-0.38469210267066956,0.922176718711853,-0.8965204358100891
1772721584556687600,9.0876875,-0.02519817277789116,0.8739184141159058,-0.4304305911064148
1772721584575283500,9.106283447265625,0.24266603589057922,0.12499820441007614,-0.014126247726380825
1772721584593879600,9.124879638671874,0.40546149015426636,-0.6727911829948425,0.19753839075565338
1772721584612475400,9.143475341796876,0.49739664793014526,-0.8368083834648132,0.13248129189014435
1772721584631071200,9.1620712890625,0.559399425983429,-0.2931387424468994,-0.08162680268287659
1772721584649667000,9.1806669921875,0.5884155035018921,0.45242172479629517,-0.05047270283102989
1772721584668263000,9.199262939453124,0.6479747891426086,1.2273037433624268,0.29130613803863525
1772721584686858800,9.217858642578125,0.7515164017677307,1.3916263580322266,0.7085267901420593
1772721584705454600,9.23645458984375,0.7475457787513733,0.2297615110874176,0.8737657070159912
1772721584724050400,9.255050537109375,0.5890263915061951,-0.8771254420280457,1.1599558591842651
1772721584742646300,9.273646240234376,0.34956738352775574,-1.8047236204147339,1.1116975545883179
1772721584761242000,9.2922421875,0.1418733447790146,-2.3920700550079346,0.7354048490524292
1772721584779838000,9.310837890625,-0.12171480804681778,-1.4452297687530518,0.48250681161880493
1772721584798434000,9.32943408203125,-0.8904881477355957,0.36109745502471924,0.19020801782608032
1772721584817029600,9.348029541015626,-1.5932880640029907,0.8430697321891785,-0.3943895697593689
1772721584835625500,9.36662548828125,-1.641851782798767,0.05933023989200592,-0.7951168417930603
1772721584854221600,9.3852216796875,-1.2090541124343872,-0.8132901191711426,-0.8045852780342102
1772721584872817400,9.4038173828125,-0.6559160351753235,-0.871016800403595,-0.26824599504470825
1772721584891413200,9.422413330078125,-0.22647811472415924,-0.9308815598487854,0.44066259264945984
1772721584910009000,9.441009033203125,-0.20082180202007294,-1.0292308330535889,0.8041270971298218
1772721584928605000,9.45960498046875,-0.6519454121589661,-0.40889760851860046,0.6257545948028564
1772721584947200800,9.47820068359375,-1.047785758972168,0.5700132250785828,0.1242346242070198
1772721584965796600,9.496796630859375,-1.0664172172546387,1.0669517517089844,-0.1833357959985733
1772721584984392400,9.515392333984375,-0.8407026529312134,0.747469425201416,-0.11278090626001358
1772721585002988300,9.53398828125,-0.45158177614212036,0.1323285847902298,0.11995857208967209
1772721585021584100,9.552584228515625,-0.03283398225903511,-0.34903284907341003,0.1807396113872528
1772721585040180000,9.571179931640625,0.29886558651924133,-0.5246564745903015,0.0683404952287674
1772721585058775800,9.58977587890625,0.3663661479949951,-0.5606974959373474,-0.03825540840625763
1772721585077371600,9.60837158203125,0.21731515228748322,-0.3517817556858063,-0.17172935605049133
1772721585095967700,9.6269677734375,0.20143266022205353,0.29878923296928406,-0.5199222564697266
1772721585114563600,9.6455634765625,0.4442514181137085,1.2914445400238037,-0.8986584544181824
1772721585133159400,9.664159423828124,0.7576250433921814,2.033034324645996,-0.9844849705696106
1772721585151755300,9.68275537109375,0.6443096399307251,1.57060968875885,-0.5672643184661865
1772721585170351000,9.70135107421875,-0.05696314200758934,0.009850194677710533,0.11018473654985428
1772721585188947000,9.719947021484375,-0.6317868828773499,-1.1492657661437988,0.3508654534816742
1772721585207542800,9.738542724609376,-0.6125446557998657,-0.4797579348087311,-0.3183369040489197
1772721585226138600,9.757138671875,-0.08781181275844574,1.5858813524246216,-1.2163081169128418
1772721585244734500,9.775734375,0.39965829253196716,2.28440523147583,-1.3140465021133423
1772721585263330300,9.794330322265624,0.45616328716278076,1.0953569412231445,-0.20196716487407684
1772721585281926100,9.812926025390626,0.20662501454353333,-0.5124391913414001,0.8432224988937378
1772721585300522000,9.83152197265625,0.12721258401870728,-1.1706459522247314,0.586048424243927
1772721585319117800,9.850117919921875,0.4967857897281647,-0.6572141647338867,-0.17172935605049133
1772721585337713700,9.868713623046874,0.817184329032898,-0.09185878932476044,0.09705114364624023
1772721585356309500,9.8873095703125,0.9744820594787598,-0.4748710095882416,1.046334981918335
1772721585374905300,9.9059052734375,0.9405790567398071,-1.363373875617981,1.890550136566162
1772721585393501200,9.924501220703124,0.36942046880722046,-1.622075080871582,2.0673954486846924
1772721585412097000,9.943096923828126,-0.5816959738731384,-0.49747300148010254,1.1346049308776855
1772721585430692900,9.96169287109375,-1.2603667974472046,1.3158791065216064,-0.07490729540586472
1772721585449288700,9.980288818359375,-1.6766711473464966,2.3277766704559326,-0.45242172479629517
1772721585467884500,9.998884521484374,-1.7230968475341797,1.8546618223190308,-0.020540328696370125
1772721585486480400,10.01748046875,-1.272584080696106,0.6830231547355652,0.3649153411388397
1772721585505076200,10.036076171875,-0.5923861265182495,0.00923932995647192,0.23571744561195374
1772721585523672000,10.054672119140625,-0.025809036567807198,-0.2479347437620163,-0.18486295640468597
1772721585542268000,10.073267822265626,0.2906189262866974,-0.3878227770328522,-0.5938369035720825
1772721585560863700,10.09186376953125,0.18982623517513275,-0.6065123677253723,-0.719369649887085
1772721585579459600,10.11045947265625,-0.010842849500477314,-0.5329031348228455,-0.673249363899231
1772721585598055700,10.1290556640625,-0.0948367565870285,-0.2635118067264557,-0.571540355682373
1772721585616651500,10.147651611328126,0.02519817277789116,0.28412848711013794,-0.4295142889022827
1772721585635247400,10.166247314453125,0.3168860971927643,0.4466184973716736,-0.203799769282341
1772721585653843200,10.18484326171875,0.4741837978363037,-0.054901473224163055,0.07567087560892105
1772721585672439000,10.20343896484375,0.6944005489349365,-0.5710822343826294,0.39393141865730286
1772721585691035000,10.222034912109375,0.9723440408706665,-0.5891027450561523,0.8123738169670105
1772721585709630500,10.24063037109375,0.8526145219802856,-0.3365101218223572,1.1284962892532349
1772721585728226300,10.259226318359374,0.6495019793510437,0.21784965693950653,0.7781654000282288
1772721585746822100,10.277822265625,0.5734493136405945,0.0077121676877141,-0.07765618711709976
1772721585765418000,10.29641796875,0.2900080680847168,-0.53931725025177,-0.29359689354896545
1772721585784013800,10.315013916015625,0.023365577682852745,-0.861853837966919,-0.09048434346914291
1772721585802609700,10.333609619140624,0.18646647036075592,-0.760755717754364,-0.12072215229272842
1772721585821205500,10.35220556640625,0.3223838806152344,-0.14256057143211365,0.08544471114873886
1772721585839801300,10.37080126953125,0.06307178735733032,-0.14317142963409424,0.27175846695899963
1772721585858397200,10.389397216796874,-0.3507890999317169,-0.2586248815059662,0.06039925664663315
1772721585876993000,10.407992919921876,-0.6708822250366211,-0.05978839099407196,-0.4108829200267792
1772721585895588900,10.4265888671875,-0.8342885971069336,0.49365508556365967,-0.7563269734382629
1772721585914184700,10.445184814453125,-0.680350661277771,0.839709997177124,-1.0660353899002075
1772721585932780500,10.463780517578124,-0.5422952175140381,0.6640864014625549,-1.1240675449371338
1772721585951376400,10.48237646484375,-0.360868364572525,0.36048656702041626,-1.086804747581482
1772721585969972200,10.50097216796875,-0.23075416684150696,0.2514472007751465,-1.1851540803909302
1772721585988568000,10.519568115234375,-0.11835505068302155,0.34002259373664856,-1.3048834800720215
1772721586007164000,10.538163818359376,0.20387612283229828,0.331165075302124,-1.1307870149612427
1772721586025759700,10.556759765625,0.6436987519264221,0.20013457536697388,-0.5904771685600281
1772721586044355600,10.57535546875,1.124754786491394,0.13355031609535217,0.05917752534151077
1772721586062951400,10.593951416015624,1.4970768690109253,-0.027107125148177147,0.4495201110839844
1772721586081547300,10.61254736328125,1.530979871749878,-0.32337653636932373,0.5500074028968811
1772721586100143000,10.63114306640625,1.3614648580551147,-0.26045745611190796,0.48159050941467285
1772721586118739000,10.649739013671875,1.3477203845977783,0.35559967160224915,0.3313177824020386
1772721586137334800,10.668334716796876,1.5422807931900024,1.1124610900878906,0.124845489859581
1772721586155930600,10.6869306640625,1.6739221811294556,1.1399500370025635,0.03138317912817001
1772721586174526500,10.7055263671875,1.3614648580551147,-0.5267944931983948,0.037491824477910995
1772721586193122300,10.724122314453124,1.0596976280212402,-1.8572579622268677,0.11476621776819229
1772721586211718100,10.74271826171875,1.1143701076507568,-1.1987457275390625,0.25495967268943787
1772721586230314000,10.76131396484375,1.0438151359558105,0.041615162044763565,0.2381609082221985
1772721586248909800,10.779909912109375,0.8700241446495056,0.026343543082475662,-0.07276926934719086
1772721586267505700,10.798505615234374,0.34987279772758484,-0.7946587204933167,-0.13049599528312683
1772721586286101500,10.8171015625,-0.04413498193025589,-0.6538543701171875,0.029245151206851006
1772721586304697300,10.835697265625,-0.18524473905563354,0.38583746552467346,-0.09506583213806152
1772721586323293200,10.854293212890624,-0.2530507445335388,1.2896119356155396,-0.14149154722690582
1772721586341889000,10.872888916015626,-0.45738500356674194,1.0193042755126953,0.08177952468395233
1772721586360484900,10.89148486328125,-0.5300779342651367,0.021151192486286163,0.09949459880590439
1772721586379080700,10.910080810546875,-0.5456549525260925,-0.6288089156150818,-0.27435463666915894
1772721586397676500,10.928676513671874,-0.4812087416648865,-0.48067423701286316,-0.8995747566223145
1772721586416272400,10.9472724609375,-0.4558578431606293,0.21784965693950653,-1.4750093221664429
1772721586434868000,10.965867919921875,-0.5258018374443054,0.6170498132705688,-1.6833142042160034
1772721586453463800,10.9844638671875,-0.5429060459136963,0.4878518879413605,-1.2331069707870483
1772721586472059600,11.0030595703125,-0.3828594982624054,0.1787542998790741,-0.36506807804107666
1772721586490655500,11.021655517578125,-0.09941824525594711,0.015958841890096664,0.557337760925293
1772721586509251300,11.040251220703125,0.20357069373130798,-0.13064870238304138,1.075961947441101
1772721586527847200,11.05884716796875,0.4335612654685974,-0.2876409590244293,1.2500584125518799
1772721586546443000,11.077443115234376,0.4656316637992859,-0.2934441566467285,0.9809724688529968
1772721586565038800,11.096038818359375,0.3196350038051605,-0.21281002461910248,0.6230056881904602
1772721586583634700,11.114634765625,0.20448698103427887,-0.31757333874702454,0.4470766484737396
1772721586602230500,11.13323046875,0.14767655730247498,-0.9204968810081482,0.4886154532432556
1772721586620826400,11.151826416015625,0.08872810751199722,-1.1538472175598145,0.55672687292099
1772721586639422200,11.170422119140625,0.30314165353775024,-1.703320026397705,0.6682097315788269
1772721586658018000,11.18901806640625,0.5661189556121826,-1.2268455028533936,0.9528726935386658
1772721586676614000,11.20761376953125,0.6769908666610718,-0.08116865903139114,0.36369362473487854
1772721586695209700,11.226209716796875,0.41462448239326477,1.1139882802963257,-0.8589522242546082
1772721586713805600,11.2448056640625,-0.33979353308677673,1.0376302003860474,-1.4945570230484009
1772721586732401400,11.2634013671875,-0.31719154119491577,0.026343543082475662,-1.1952333450317383
1772721586750997200,11.281997314453125,-0.0902552679181099,-0.3132972717285156,-0.33971717953681946
1772721586769593000,11.300593017578125,0.23441936075687408,-0.14103341102600098,0.5384009480476379
1772721586788189000,11.31918896484375,0.36422812938690186,0.15981750190258026,0.982194185256958
1772721586806784800,11.33778466796875,0.28328853845596313,0.21754421293735504,0.779692530632019
1772721586825380600,11.356380615234375,0.00045814859913662076,0.07124210149049759,0.2592357397079468
1772721586843976400,11.3749765625,-0.11713331937789917,0.020540328696370125,-0.04894553869962692
1772721586862572000,11.393572021484376,0.13179408013820648,-0.09246965497732162,-0.09964732080698013
1772721586881168000,11.41216796875,0.29733842611312866,-0.0066431546583771706,0.12209659814834595
1772721586899763700,11.430763671875,0.3116937577724457,0.024816380813717842,0.26687154173851013
1772721586918359600,11.449359619140624,0.1663079410791397,0.0006872228696011007,0.17951788008213043
1772721586936955400,11.467955322265626,0.145843967795372,0.26946771144866943,0.23999349772930145
1772721586955551200,11.48655126953125,0.2234237939119339,0.42279478907585144,0.4263072609901428
