time,seconds_elapsed,z,y,x
1772795345992012000,0.092011962890625,0.13887772481441496,-0.03649769292250275,0.08673121186122297
1772795346002005000,0.1020048828125,0.06963818437159061,-0.04480813288912177,0.05578180071562528
1772795346011997000,0.111996826171875,-0.03393617187142372,-0.03304572583772242,0.028642449377477168
1772795346021990100,0.121990234375,-0.06189093124568462,-0.02941416440233588,0.02748772638440132
1772795346031981800,0.13198193359375,-0.06716974843144416,-0.04401420603245496,0.00320559110827744
1772795346041975000,0.14197509765625,-0.02013034935891628,-0.040622517767548556,-0.023408859572932122
1772795346051967000,0.151967041015625,-0.0036678748577833173,-0.0641037119243294,-0.03369184172153473
1772795346061960000,0.1619599609375,0.01920680477321148,-0.07412007902599871,-0.027588556410372257
1772795346071952100,0.1719521484375,0.020942834785580632,-0.10376732153184712,-0.021637027594819665
1772795346081944000,0.181944091796875,-0.00936287162899971,-0.11892002860866487,-0.03990530940890312
1772795346091937000,0.19193701171875,0.007653729623556137,-0.12479673862233757,-0.042450244651362296
1772795346101929000,0.201928955078125,0.0023287352085113525,-0.14471929044947027,-0.050839814268797634
1772795346111922000,0.211921875,-0.0002174421429634094,-0.15724274500124155,-0.057075420722737906
1772795346121913900,0.221913818359375,0.010190554624795914,-0.14374971476495266,-0.05628668149784207
1772795346131907000,0.231906982421875,-0.01038636945784092,-0.13956468416526913,-0.07063377128019928
1772795346141899000,0.24189892578125,0.0003565583527088165,-0.11274382419176399,-0.051083194570615886
1772795346151892000,0.25189208984375,0.012135843473672867,-0.0679004738587886,-0.049581119444593785
1772795346161884200,0.26188427734375,-0.0018850830942392348,-0.028372619460150596,-0.05586929633598774
1772795346171876900,0.271876953125,0.014894786792993544,-0.015732625856623054,-0.04647255897000432
1772795346181869000,0.281869140625,0.017913842353224754,0.014788257678598165,-0.07503982421942054
1772795346191862000,0.291862060546875,-0.0005804302364587784,0.016968670457601545,-0.057781011708825825
1772795346201854000,0.30185400390625,0.0016693945169448852,0.008263824345916508,-0.04960106625407934
1772795346211847200,0.31184716796875,0.005261281529068946,0.00035706980936229225,-0.04292041944637894
1772795346221838800,0.3218388671875,-0.01823591391444206,-0.020281009875982997,-0.02896678596101701
1772795346231831000,0.3318310546875,-0.01835924803316593,-0.04672397644780576,-0.022161855186522007
1772795346241824000,0.341823974609375,-0.004693126252293587,-0.048000206928700204,-0.006197101074457168
1772795346251816000,0.35181591796875,0.0326952318996191,-0.07853811466395855,0.009556275309249759
1772795346261809200,0.36180908203125,0.04204349048137664,-0.07511522754319011,0.026208354098349807
1772795346271801000,0.371801025390625,0.004365209472179413,-0.07842398676499723,0.031260303725674746
1772795346281794000,0.3817939453125,-0.011169044268131256,-0.098168770872429,0.05099120543822646
1772795346291786000,0.391785888671875,-0.03855915549695491,-0.10222557198256253,0.06420848747305571
1772795346301779000,0.401779052734375,-0.012713351100683211,-0.09793452372513711,0.05923990528024733
1772795346311771000,0.41177099609375,-0.01636369030177593,-0.10000928417257963,0.06008972704261541
1772795346321764000,0.42176416015625,0.015240239229798317,-0.06774060712195933,0.0468639694403857
1772795346331755800,0.431755859375,0.02690261997282505,-0.07748261426165699,0.05875372919850051
1772795346341749000,0.4417490234375,0.0020148469537496568,-0.06351056833676993,0.04693513498045504
1772795346351741200,0.4517412109375,-0.016571780094504357,-0.07984079476036131,0.0175300306674093
1772795346361734000,0.46173388671875,-0.04306757283210754,-0.1161146157991141,0.03793218270502984
1772795346371726000,0.47172607421875,-0.09988894572854042,-0.136392118543759,0.06210377027876675
1772795346381718000,0.481718017578125,-0.021183657804131506,-0.11411715837158262,0.04410027688071132
1772795346391711000,0.4917109375,0.15119243198633192,-0.0941938028268516,-0.08244860263857991
1772795346401703000,0.501702880859375,0.24184359377026557,-0.06057407649345695,-0.22385438462588936
1772795346411695900,0.51169580078125,0.09682722007036208,-0.032352044485136865,-0.2491469755861908
1772795346421688000,0.52168798828125,-0.10666998417079449,-0.05090286956764757,-0.1268917746728286
1772795346431681000,0.531680908203125,-0.20010873084664343,-0.05342135519459843,-0.01940057377964258
1772795346441673000,0.5416728515625,-0.12282909181118011,-0.01612659361027181,0.016585881685093045
1772795346451666000,0.551666015625,-0.01308159989118576,-0.01135053831487894,0.005115370252355933
1772795346461658000,0.561658203125,0.03505027059316635,-0.001446910872682929,-0.022368775935471055
1772795346471651000,0.571651123046875,0.04932955583631992,-0.024857743206992744,-0.051439022270962594
1772795346481643000,0.58164306640625,0.038384967973828316,-0.026320947627350686,-0.06977298973239958
1772795346491636000,0.591635986328125,0.0145002345174551,-0.004648118066787719,-0.08899374996572733
1772795346501628000,0.6016279296875,0.015184125128388404,0.014230989122018218,-0.09748407654389739
1772795346511621000,0.61162109375,0.0036830724269151685,0.007710062920674682,-0.05658464153110981
1772795346521612800,0.62161279296875,-0.013710545444488525,-0.02344663430005312,-0.021389190313592554
1772795346531605000,0.63160498046875,-0.017893968608975408,-0.053966056530550116,-0.016169775164872408
1772795346541598200,0.64159814453125,-0.022806875091791152,-0.09493928743191063,-0.019589922339282927
1772795346551590000,0.65158984375,-0.022024784803390502,-0.11259959341548383,-0.01432221106942743
1772795346561583000,0.6615830078125,-0.009695464584231376,-0.11837474275082349,-0.023697540321201086
1772795346571575000,0.671574951171875,0.011127543213963509,-0.10657141916714608,-0.025012276181578634
1772795346581568000,0.681568115234375,0.017153963896632193,-0.11954985094480215,-0.05439915071818977
1772795346591560000,0.691559814453125,0.010817746612429619,-0.12951463398970664,-0.03449307510182261
1772795346601553000,0.701552978515625,-0.0017956512451171875,-0.1361560447655618,-0.01856945671774447
1772795346611545000,0.711545166015625,0.0047129999965429305,-0.11437098700217901,-0.021228191065602003
1772795346621538000,0.7215380859375,-0.0008154080361127853,-0.09216200473830104,-0.02147971814125776
1772795346631530000,0.731530029296875,0.005220364996790886,-0.08624525497518479,-0.023650267113372682
1772795346641523000,0.74152294921875,0.00564063623547554,-0.07598762646354734,-0.04088350679129362
1772795346651515000,0.751514892578125,0.021238602861762046,-0.0705650168929249,-0.02864091500751674
1772795346661508000,0.761508056640625,0.022951836520433425,-0.08254340478256345,-0.030971915238350627
1772795346671500000,0.7715,0.019884850165247915,-0.07892791769914329,-0.005893515018001199
1772795346681492000,0.781491943359375,0.03399462406039238,-0.07102927340380848,0.019156024434044957
1772795346691485000,0.79148486328125,0.012828501912951469,-0.05810892848894,0.02365077857002616
1772795346701477000,0.80147705078125,0.001194178220629692,-0.04488616656139493,0.004054463022574782
1772795346711469800,0.8114697265625,-0.006215221253037452,-0.02375679622776806,0.0010594824576750396
1772795346721462000,0.8214619140625,-0.00781739575266838,-0.014106485959514975,-0.017402458764985203
1772795346731455000,0.831455078125,-0.013180384090542792,0.010216785044595599,-0.04023508935254067
1772795346741447000,0.841447021484375,0.01958791304528713,0.004550722106918693,-0.058736083943955596
1772795346751440100,0.851440185546875,0.029327801293134687,-0.006770443983003496,-0.06269881356246769
1772795346761431800,0.861431884765625,-0.004697217905521392,-0.0065837623044848435,-0.03864657805208117
1772795346771425000,0.871425048828125,-0.009417816686630248,-0.03483312071114778,-0.05012545545436441
1772795346781417000,0.8814169921875,-0.007237550038099288,-0.0722688982013613,-0.042000637720339
1772795346791410000,0.891409912109375,-0.007242810735106468,-0.1003323786471039,-0.016152093377709387
1772795346801402000,0.901402099609375,0.005413841742277145,-0.14215579663701355,-0.000020969722792506218
1772795346811394800,0.911394775390625,0.01982932058572769,-0.14570895907394588,-0.018775792944803832
1772795346821387000,0.921386962890625,0.013707622835040092,-0.1269106620363891,-0.009041603785380721
1772795346831380000,0.9313798828125,0.012315291693806648,-0.1283242551613599,-0.011508359225094317
1772795346841372000,0.941371826171875,0.01295826577246189,-0.11457995357774198,-0.01622318585254252
1772795346851363800,0.95136376953125,0.006148585757613182,-0.11003303086310624,-0.024251447876915334
1772795346861357000,0.961357177734375,-0.00741524469256401,-0.09736958331875502,-0.014285568853467701
1772795346871349000,0.971348876953125,0.00007423427999019622,-0.05841989413425326,-0.027530652210675178
1772795346881342000,0.981342041015625,0.022743162205815314,-0.055607832388207316,-0.019878347359225154
1772795346891334100,0.991334228515625,0.00928746830523014,-0.043075171616673465,-0.009379822763800621
1772795346901326800,1.001326904296875,0.017150456765294073,-0.03576579845137894,-0.02082399417888373
1772795346911319000,1.011319091796875,0.01115793835222721,-0.032335166415572165,-0.00961757704243064
1772795346921312000,1.02131201171875,0.018248773396015164,-0.03092420363910496,-0.04008179848697036
1772795346931304000,1.031303955078125,-0.01258183367550373,-0.04134294099658727,-0.01630596876516938
1772795346941297200,1.041297119140625,-0.009621814826130866,-0.03223528623767197,-0.00856046920493245
1772795346951288800,1.051288818359375,-0.006361936247348785,-0.04429689543135464,0.012495251370593905
1772795346961283000,1.061282958984375,0.008167524364590645,-0.060106239785999056,0.006326791868731379
1772795346971274800,1.071274658203125,0.007954173874855041,-0.06473061165101826,0.023392200699076056
1772795346981268000,1.08126806640625,0.015206336960196494,-0.07605572326369583,0.029688743560016155
1772795346991260000,1.091260009765625,0.007459083834290504,-0.0775434045381844,0.015420198906585574
1772795347001251800,1.101251953125,-0.005981997019052505,-0.08002813402600586,0.012970686862617731
1772795347011245000,1.1112451171875,0.00013853168785572052,-0.08317709957621991,0.006067118019238114
1772795347021237000,1.121237060546875,-0.010859832188487052,-0.07704568414911628,-0.015978563441708685
1772795347031230000,1.13122998046875,-0.00821954681277275,-0.07849142597801984,-0.014905308187007903
1772795347041222000,1.141221923828125,0.005800795233249664,-0.07694777673259377,-0.020942286796309054
1772795347051214800,1.15121484375,0.0030120412975549694,-0.08589731832034886,-0.03313157749027013
1772795347061206800,1.161206787109375,-0.009985971963405608,-0.09255706847049296,-0.028931020527891812
1772795347071200000,1.171199951171875,0.021365444111824033,-0.08301204520761966,-0.03433456007186323
1772795347081192000,1.18119189453125,0.019642273581027984,-0.07712327942997217,-0.05897833173461258
1772795347091185000,1.191184814453125,0.008362754675745964,-0.06112243109121918,-0.06565828442256898
1772795347101177000,1.201177001953125,-0.0005015197813510895,-0.0541373945094645,-0.05820047922991216
1772795347111169800,1.211169677734375,-0.00258241770863533,-0.03888130012340844,-0.06354227864928544
1772795347121162000,1.221161865234375,-0.013830372431874275,-0.06306903511434793,-0.056550337402708824
1772795347131155000,1.231155029296875,-0.015962123763561247,-0.07168554535545409,-0.05373666822146624
1772795347141147000,1.24114697265625,-0.014036124137043951,-0.05540295746587216,-0.056678384229168294
1772795347151140000,1.25114013671875,0.018175123637914656,-0.05170066888183355,-0.04338884067572653
1772795347161131800,1.2611318359375,0.030832945159077644,-0.05550181473046541,-0.039326998064294454
1772795347171124000,1.2711240234375,0.029759178447723387,-0.0825687584195286,-0.028160949470847844
1772795347181117000,1.281116943359375,0.026039281141757964,-0.08101480697579681,0.00100669282451272
1772795347191108900,1.29110888671875,-0.00639876112639904,-0.08556969380117953,0.009922478273138403
1772795347201102000,1.30110205078125,0.0006558335602283477,-0.09133549078628421,0.02328610997609794
1772795347211094000,1.311093994140625,0.0003612345278263092,-0.08564202838502824,0.031379984582588075
1772795347221087000,1.3210869140625,-0.015218027397990226,-0.09826287889666854,0.033851781523600216
1772795347231079000,1.331078857421875,0.005869184294342994,-0.06652275576479733,0.02479636840857565
1772795347241071900,1.34107177734375,0.0016799159109592437,-0.0574345363587141,0.02065831875577569
1772795347251063800,1.351063720703125,0.016381225958466528,-0.044013183119148015,0.011108911578729747
1772795347261057000,1.36105712890625,0.002112462109327316,-0.02259893142953515,0.01779284632205963
1772795347271049000,1.371049072265625,-0.014319032731652259,-0.010524243558570743,0.01878821403495967
1772795347281042000,1.3810419921875,0.0021329203754663468,-0.03344539267979562,0.008212824811041354
1772795347291033900,1.391033935546875,-0.004943301621079445,-0.041852863280102605,-0.024220541281998156
1772795347301026800,1.40102685546875,-0.0034001638323068618,-0.040008915913850064,-0.01922214847281575
1772795347311019000,1.41101904296875,-0.015734744748473167,-0.052864890355616805,-0.03736738842912018
1772795347321011000,1.421010986328125,0.006194762986898422,-0.07879479283876717,-0.0416118210658431
1772795347331004000,1.43100390625,-0.0024690204620361326,-0.08450118778683245,-0.04756492078397423
1772795347340996000,1.44099609375,0.018407178828120232,-0.09936272989735007,-0.048091976865381
1772795347350988800,1.45098876953125,0.02495148590505123,-0.09351108125969768,-0.02560801358502358
1772795347360981000,1.46098095703125,-0.01381225225329399,-0.09824461258761584,-0.03182425775136798
1772795347370974000,1.470973876953125,-0.011546060886979102,-0.10144340862892567,-0.03593085281997919
1772795347380966000,1.4809658203125,-0.002350362518429756,-0.08803257678337395,-0.03170636699274182
1772795347390959000,1.490958984375,-0.004142506632208824,-0.08184957729950547,-0.0424590124797076
1772795347400950800,1.50095068359375,0.010797872868180274,-0.05857983393631875,-0.0369395184058696
1772795347410944000,1.510944091796875,0.006443769311904907,-0.0551041206497699,-0.026598960851132867
1772795347420936000,1.52093603515625,-0.010898410633206367,-0.052244347304478286,-0.022919176359847186
1772795347430929000,1.530928955078125,0.006835398977994918,-0.04874897946938872,-0.03436579546034336
1772795347440920800,1.5409208984375,-0.0024058920979499816,-0.030346769077330825,-0.00022175299189984798
1772795347450913000,1.5509130859375,0.01745733075737953,-0.03220350285992026,0.009490881922841072
1772795347460905700,1.56090576171875,-0.0021188918501138685,-0.031780893533676864,0.015754253166541457
1772795347470898000,1.57089794921875,0.004570376655459404,-0.028213410310447214,-0.0011569149501621722
1772795347480891000,1.580890869140625,0.01834405046403408,-0.039234424410015345,-0.006560819820314645
1772795347490882800,1.5908828125,0.022405893075466154,-0.05714066797867417,-0.005580138219892978
1772795347500876000,1.6008759765625,0.001319265905022621,-0.07564122417867183,-0.0066771396763622756
1772795347510867700,1.61086767578125,0.0008382043898105621,-0.09088679717071353,-0.010730579785630107
1772795347520861000,1.62086083984375,-0.011402268502116203,-0.0692020579766482,-0.0063311027176678174
1772795347530852900,1.630852783203125,-0.01549976694881916,-0.08311609010398388,-0.010931363054737448
1772795347540845800,1.640845703125,-0.01636369030177593,-0.07420783037468791,-0.021038038788363335
1772795347550838000,1.650838134765625,0.0047381344377994536,-0.06798851746842265,-0.016845409404113887
1772795347560830700,1.660830810546875,0.0021650690793991088,-0.0517239766921848,-0.008028335089609026
1772795347570823000,1.670822998046875,0.014395020577311514,-0.05637012199759483,-0.009645487962663173
1772795347580816000,1.68081591796875,-0.003441664886474609,-0.029523908387124535,-0.009670622403919697
1772795347590807800,1.690807861328125,0.005257774397730827,-0.04271532532833516,-0.014658493819087744
1772795347600799700,1.7007998046875,-0.003202595433592796,-0.029890330546721813,-0.032671120371669526
1772795347610793000,1.71079296875,0.014742226579785345,-0.01641249787956476,-0.02247230937518179
1772795347620785000,1.720784912109375,0.009555179330706596,-0.03561586858667433,-0.0188464470282197
1772795347630777900,1.73077783203125,0.0034989480316638946,-0.02968465190678835,-0.018789163883030414
1772795347640770000,1.74077001953125,0.001356090784072876,-0.021504706452041864,-0.015860782280936837
1772795347650762800,1.7507626953125,-0.003957213193178177,-0.03009133301153779,-0.026972689534351228
1772795347660755000,1.7607548828125,-0.02738309696614742,-0.038839433743059634,-0.02821392176710069
1772795347670748000,1.770747802734375,-0.025600305202603337,-0.05676270151175558,-0.009482844746857882
1772795347680739800,1.78073974609375,-0.019207389295101164,-0.07572926778830587,-0.00726348819695413
1772795347690733000,1.790733154296875,-0.025258944419026375,-0.070395578610152,-0.03397599242515862
1772795347700724700,1.800724853515625,0.009640519526600838,-0.07576477749310434,-0.027693916480988262
1772795347710718000,1.810718017578125,0.02542202602624893,-0.07821502018943428,-0.03604278876185417
1772795347720710000,1.8207099609375,-0.00215630125105381,-0.07711845712438226,-0.050620545494928955
1772795347730701800,1.830701904296875,0.00723228934109211,-0.09257650382332504,-0.048998497251048684
1772795347740695000,1.840695068359375,0.004230769437551498,-0.08671455298736691,-0.05519347943365573
1772795347750687000,1.85068701171875,-0.012070961543917656,-0.07487645035125315,-0.03970993296727538
1772795347760680000,1.860679931640625,-0.004991232416033745,-0.0687308602683246,-0.058032136925682425
1772795347770671900,1.870671875,0.009041384589672088,-0.06887903656736016,-0.037590821921452876
1772795347780664800,1.880664794921875,-0.002366144609451294,-0.045807226929068565,-0.03105455202050507
1772795347790656800,1.89065673828125,-0.020365327158570288,-0.037475013522058724,-0.013215236208215355
1772795347800650000,1.90064990234375,-0.018815759629011154,-0.02047740923091769,-0.02224916814379394
1772795347810642000,1.910641845703125,-0.0013584288716316222,-0.014897709402441978,-0.01575030764378607
1772795347820635000,1.920634765625,-0.011516834792494773,-0.0034877690505236386,-0.028390008986368773
1772795347830627000,1.930626953125,0.003829787421226501,-0.016093495058268306,-0.019369082662835716
1772795347840619800,1.940619873046875,0.012685294049978256,-0.004665288397297263,-0.016552198611199855
1772795347850612000,1.950612060546875,0.014184008175134658,-0.021746625449135897,-0.011651932414248585
1772795347860605000,1.96060498046875,-0.020683891588449476,-0.017128317998722196,-0.017551657977327703
1772795347870596900,1.970596923828125,-0.01725216357409954,-0.024291560691595077,-0.011950988426059484
1772795347880589000,1.980589111328125,0.0005997194588184357,-0.044803310583531854,-0.009998831444978713
1772795347890581800,1.990581787109375,0.0022241057902574538,-0.06557809532582759,-0.0038869244359433647
1772795347900574000,2.000573974609375,-0.0032271453529596327,-0.07815422991290688,0.0023242051638662814
1772795347910567000,2.01056689453125,-0.002884615525603294,-0.06700710521563887,0.015159136817604302
1772795347920558800,2.020558837890625,-0.018603578183054924,-0.07896868810094892,0.026884645924717187
1772795347930552000,2.030552001953125,0.0022504092752933503,-0.07124569263346493,0.02690349675565958
1772795347940544000,2.0405439453125,-0.011429156509041785,-0.08352832416668533,0.008189151674509048
1772795347950537000,2.050536865234375,-0.01554068348109722,-0.06793006527945399,0.006597936960309744
1772795347960528000,2.06052783203125,0.016997896552085875,-0.06158040399178862,0.0009878419935703277
1772795347970520800,2.070520751953125,0.014893617749214171,-0.04677775246165693,-0.02261668628193438
1772795347980512800,2.0805126953125,0.024535306319594382,-0.01716872307434678,-0.013275588093325495
1772795347990505700,2.090505615234375,-0.0022825579792261123,-0.007326908821985125,0.007724383706972002
1772795348000498000,2.100497802734375,-0.0030050270348787305,0.01154408812560141,-0.005687105725705624
1772795348010491000,2.110490966796875,0.017463760498166083,0.026087504197657107,-0.002740896205976605
1772795348020482800,2.12048291015625,0.02429097616970539,0.03656155193895101,0.016872443541511892
1772795348030475000,2.13047509765625,0.013152911561727524,0.04868855451904237,0.008241831709817052
1772795348040467700,2.1404677734375,-0.009055413115024566,0.045493192543834444,0.0005211743298918008
1772795348050460000,2.1504599609375,-0.024641104781627652,0.013270400461554527,0.01629778545871377
1772795348060452600,2.16045263671875,-0.023552725023031233,-0.005149930109083652,0.022002865232527254
1772795348070444800,2.17044482421875,-0.010828268006443978,-0.03256203397400677,-0.002486994510143995
1772795348080438000,2.18043798828125,-0.007432780349254608,-0.06540631895549595,0.004671060550957918
1772795348090429700,2.1904296875,-0.0027379005312919615,-0.09948701386414467,0.018727935215085745
1772795348100423000,2.2004228515625,0.009971358916163443,-0.12007986616827547,0.022564590768516062
1772795348110414800,2.210414794921875,0.02002455089688301,-0.12539280481934548,0.024799364083260295
1772795348120407800,2.22040771484375,-0.004335983377695083,-0.11084244754984975,0.014238953232765196
1772795348130399700,2.230399658203125,-0.024543489626049995,-0.09402202645651996,-0.0012898206148296593
1772795348140392700,2.240392822265625,-0.024303835651278496,-0.07731602552309631,-0.008445537588372826
1772795348150384600,2.250384521484375,-0.021423896300792694,-0.06808971282057463,-0.027370164419338105
1772795348160376800,2.260376953125,-0.002452069327235222,-0.03537387652434409,-0.04936535780206323
1772795348170369800,2.270369873046875,-0.012446224597096442,-0.030960736257210374,-0.04373385472111404
1772795348180361700,2.28036181640625,0.010111644169688225,-0.017793796170130372,-0.05697517521865666
1772795348190355000,2.29035498046875,0.009846855753660202,-0.003516410623118281,-0.073179583305493
1772795348200346600,2.3003466796875,-0.0018669629156589508,-0.003873991889134049,-0.04833155777491629
1772795348210339800,2.31033984375,-0.007930208477377892,-0.015182298497483133,-0.03570033199973404
1772795348220331800,2.320331787109375,-0.018317746978998184,-0.021421485147997736,-0.04033201038837433
1772795348230324700,2.33032470703125,-0.0027601123631000517,-0.03477912550158799,-0.03394968894012272
1772795348240317000,2.34031689453125,0.009009820407629012,-0.06024586745239794,-0.011316124588623641
1772795348250309600,2.3503095703125,0.014138999989628791,-0.07960296741649509,-0.025418299699202177
1772795348260301800,2.3603017578125,0.014874913048744201,-0.09597593700326978,-0.035065248966589566
1772795348270294800,2.370294677734375,0.01656768844127655,-0.11331358690373598,-0.031999504720419646
1772795348280286700,2.38028662109375,0.024092823249101638,-0.10788849311508238,-0.027716493638977407
1772795348290280000,2.390280029296875,-0.0023638065218925474,-0.10855762454830109,-0.04916669342480599
1772795348300271900,2.40027197265625,0.015738836401700974,-0.0721298550568521,-0.0398497798293829
1772795348310263800,2.410263916015625,0.0017699322819709777,-0.03733005209341645,-0.030998364853858946
1772795348320256800,2.4202568359375,-0.015556465572118759,-0.008053761791810393,-0.03172397571466863
1772795348330249000,2.4302490234375,-0.011410451808571816,0.020642828925698995,-0.038584143807739016
1772795348340241700,2.44024169921875,-0.013928572109341621,0.04854549278654158,-0.057982890956476324
1772795348350233900,2.45023388671875,-0.0024690204620361326,0.05418306028209626,-0.051937181051447984
1772795348360226800,2.460226806640625,0.002942483192682266,0.06422339278124273,-0.03001673340536654
1772795348370218800,2.47021875,0.013720482316613197,0.052090837243199344,-0.04371463856399059
1772795348380211700,2.480211669921875,0.005340191984176635,0.026383637600019574,-0.029118761652335522
1772795348390203600,2.49020361328125,-0.0009042553633451461,-0.00687098174802959,-0.03533544421009719
1772795348400196900,2.50019677734375,-0.02070610342025757,-0.062414370597898956,-0.027166239345073697
1772795348410188800,2.510188720703125,-0.014574468797445296,-0.07686565140709281,-0.00606587591022253
1772795348420181800,2.520181640625,-0.03682487905025482,-0.0784446642268449,0.005144377151131629
1772795348430174000,2.530174072265625,-0.03074409783184528,-0.08908040533587336,0.012680471744388341
1772795348440166700,2.540166748046875,0.00575695609152317,-0.07912029846608638,0.009155366358160971
1772795348450158800,2.550158935546875,0.005785597664117813,-0.06096468324624001,0.010660217963159083
1772795348460150800,2.56015087890625,0.00027647885382175443,-0.05039448165409267,0.01772431113049388
1772795348470143700,2.570143798828125,-0.006738952866196632,-0.021353388347849247,0.014234203992411494
1772795348480135700,2.5801357421875,0.00028758476972579955,-0.01925919254757464,0.02055792712122202
1772795348490128600,2.590128662109375,0.013705869269371031,-0.015611264499276875,0.019119637946411965
1772795348500120800,2.600120849609375,0.0037573067069053647,-0.01908624713346362,0.006027005204558372
1772795348510113800,2.61011376953125,0.01641512822806835,-0.0369840881999582,0.003530950605124235
1772795348520105700,2.620105712890625,0.03522504263818264,-0.04744235385023057,0.014409049102663994
1772795348530098700,2.6300986328125,0.03253039672672749,-0.0756727152954787,0.009806231482326984
1772795348540091000,2.6400908203125,0.014896540358662605,-0.09812843886204063,0.01657667546533048
1772795348550083800,2.650083740234375,-0.006897358298301696,-0.09950849504359066,0.008972484071925283
1772795348560075800,2.66007568359375,-0.0054985974162817,-0.09723894267641008,-0.006215440448746085
1772795348570068700,2.67006884765625,-0.011575286981463432,-0.08189517000690102,-0.013156784019246697
1772795348580060700,2.680060791015625,0.004086977052688599,-0.07146773788630963,-0.004049056195095181
1772795348590052900,2.690052978515625,0.0010445406168699263,-0.06315678646303713,0.0028050474833697077
1772795348600045600,2.700045654296875,-0.01593406671285629,-0.05255662812404334,-0.015894319224357602
1772795348610037800,2.710037841796875,-0.025323826348781584,-0.03720269938670098,-0.013546440923959017
1772795348620031000,2.720031005859375,-0.029954408758878705,-0.0025802257515490055,-0.031588512766733766
1772795348630022700,2.730022705078125,-0.004088730618357658,0.0004503741160035133,-0.02796243122406304
1772795348640016000,2.740015869140625,-0.011768763726949691,0.006563304038345813,-0.04201426438689232
1772795348650007800,2.7500078125,0.004345335727930068,-0.0004085808008909225,-0.03366780325882136
1772795348660000800,2.760000732421875,0.013446926072239875,0.001832183863222599,-0.029601942059397694
1772795348669992700,2.76999267578125,-0.01293254680931568,-0.000294818228110671,-0.0320836028072983
1772795348679985700,2.779985595703125,-0.02089899564385414,-0.01891403237171471,-0.02640979495458305
1772795348689977900,2.789977783203125,-0.00028758476972579955,-0.0243477478582412,-0.05293386393859982
1772795348699970800,2.799970703125,0.01749824728965759,-0.02503587625287473,-0.038979792061820624
1772795348709962800,2.809962646484375,-0.0013490765213966369,-0.029810689439252018,-0.032739071041345595
1772795348719955700,2.819955810546875,-0.01627659654021263,-0.034901582837477324,-0.02666815362982452
1772795348729948000,2.829947998046875,-0.020741174733638762,-0.027270576502382755,-0.016575944812968372
1772795348739939600,2.839939697265625,-0.02549918291568756,-0.027160394126176834,-0.023219839806854724
1772795348749932800,2.849932861328125,-0.00015080664753913878,-0.011220847520604729,-0.012396247975528239
1772795348759925000,2.859925048828125,0.006900865429639816,-0.015434227431938051,-0.0206583918210119
1772795348769917700,2.869917724609375,0.006824293062090874,-0.023812471937760708,-0.023713541607931255
1772795348779910000,2.879909912109375,-0.003348725906014442,-0.04351378222964704,-0.02583491767607629
1772795348789902600,2.889902587890625,0.0006529109507799148,-0.03973119495101273,-0.010762143967673181
1772795348799894800,2.899894775390625,-0.005521393769979476,-0.09225655115395784,0.015107041304185985
1772795348809888000,2.909887939453125,0.005493921241164207,-0.09776347800716757,0.009906988443061709
1772795348819879700,2.919879638671875,0.0012590601503849029,-0.08310819905847311,0.007268456633016467
1772795348829873000,2.929872802734375,0.007526303851604461,-0.07836728814169765,0.013957652073353527
1772795348839864800,2.93986474609375,0.005150222370028495,-0.06383329748511314,0.025162352176755665
1772795348849857800,2.94985791015625,0.007605798828601837,-0.05115034152269363,0.018552943974360823
1772795348859849700,2.959849609375,-0.00291442614197731,-0.020307240295782684,-0.0008148235142230987
1772795348869842000,2.969842041015625,0.012923194459080696,-0.009500891860201954,0.015505319906771182
1772795348879835000,2.9798349609375,0.004673252508044242,0.006441504289582371,-0.019821721801161766
1772795348889826800,2.989826904296875,-0.01749649372398853,0.01680208171904087,-0.022741335574910045
1772795348899819800,2.99981982421875,0.017028291690349577,0.024306685195490715,-0.028782077043876052
1772795348909811700,3.009811767578125,0.026224574580788612,0.01678987982459366,-0.03938829979747534
1772795348919805000,3.019804931640625,0.006471826362609863,0.002493570381402969,-0.031048049214482305
1772795348929796600,3.029796630859375,0.0044458734929561615,-0.024625541886314748,-0.004310118284076452
1772795348939789800,3.039789794921875,0.0007990414232015609,-0.05068272401094436,-0.005659121740236878
1772795348949782000,3.049781982421875,-0.02789163101017475,-0.05901033430807292,-0.002397124269604683
1772795348959774700,3.059774658203125,-0.01994037974476814,-0.05661291777752339,0.0080065616492182
1772795348969766400,3.069766357421875,0.005966799449920654,-0.063655456700176,0.004467354672402143
1772795348979759400,3.07975927734375,-0.02225976260304451,-0.05625891670808196,-0.010241700290143489
1772795348989751600,3.08975146484375,-0.01717676025032997,-0.06596702157817781,-0.005685425225272774
1772795348999744500,3.09974462890625,0.004459902018308639,-0.06327924379892647,-0.016484613267704843
1772795349009736400,3.109736328125,0.006442015746235847,-0.06720460054911673,-0.026147563821822404
1772795349019728400,3.119728271484375,-0.0127443307608366,-0.07211889527142047,-0.024517040010541676
1772795349029721600,3.1297216796875,0.013881225836277006,-0.06655548899061978,-0.028189517978206274
1772795349039713300,3.13971337890625,0.01808218465745449,-0.06350187357366084,-0.020283932485431432
1772795349049706500,3.14970654296875,-0.010375263541936873,-0.03703143447302282,-0.009844663796573876
1772795349059698700,3.15969873046875,-0.012710428491234778,-0.029393267744779586,-0.014115984440222381
1772795349069691400,3.16969140625,-0.0006412205129861831,-0.03494286469593644,-0.008096285759285091
1772795349079683600,3.17968359375,-0.0006079027652740478,-0.026487536365911363,-0.028168036798760294
1772795349089676300,3.18967626953125,0.0043301381587982175,-0.018728373606503007,0.00007357669286429881
1772795349099668500,3.19966845703125,0.007776479220390319,0.007582417953014373,0.008501724755018949
1772795349109661700,3.20966162109375,-0.006341477981209755,0.00003609422668814659,0.009764292036741971
1772795349119653400,3.2196533203125,0.007026537635922431,0.00703610918186605,0.01623034624569118
1772795349129646600,3.229646484375,-0.018358663511276244,0.004547214975580573,0.012270429638773202
1772795349139638500,3.239638427734375,0.0035790275305509567,-0.01400762869492173,0.026056159211322663
1772795349149630500,3.24963037109375,0.013915128105878829,-0.005933554767444729,0.041046515333279965
1772795349159623400,3.25962353515625,0.004734627306461334,-0.008636237854883074,0.042329467815905804
1772795349169615600,3.26961572265625,-0.0008744447469711303,-0.011860533663630485,0.03567249414473772
1772795349179608600,3.279608642578125,0.00006663549542427062,-0.016737638180702924,0.05430164516046643
1772795349189600500,3.2896005859375,0.0035001170754432676,-0.008803922571986913,0.05723163419775665
1772795349199593500,3.299593505859375,-0.005541852036118507,-0.014092311303690075,0.05099683146141469
1772795349209585400,3.30958544921875,0.0065963295251131055,-0.018520137683302164,0.024822306567430494
1772795349219578600,3.31957861328125,0.019951485660672185,-0.012998890043795107,0.00009586158990859984
1772795349229570300,3.3295703125,0.016041618740558622,-0.010903744395449756,0.006032850423455238
1772795349239563500,3.3395634765625,0.010243746116757392,0.0026522680744528767,0.027632103291153905
1772795349249555700,3.3495556640625,-0.036519174101948736,0.007321428929269313,0.0030512773294001814
1772795349259548400,3.35954833984375,-0.03233984259068966,-0.005267419008910656,0.0009593465514481067
1772795349269540600,3.36954052734375,-0.010250760379433631,-0.014220394662767647,-0.012432269136980175
1772795349279532500,3.379532470703125,0.01152092644572258,-0.02771934318318963,-0.023786752974614498
1772795349289525500,3.389525390625,-0.002638531810045242,-0.06638020548895002,-0.02105783946737647
1772795349299517400,3.399517333984375,-0.008270400217175483,-0.08832892938144504,-0.01465381764397025
1772795349309510400,3.409510498046875,-0.006992050844430923,-0.11279591970518231,-0.01710223370939493
1772795349319502600,3.419502685546875,0.01135842936038971,-0.1234170477669686,-0.030776246535778044
1772795349329495600,3.42949560546875,0.014742226579785345,-0.11936835689805447,-0.0064699997317045925
1772795349339487500,3.439487548828125,-0.019441782572865485,-0.08508826695978641,0.007390110251307487
1772795349349480400,3.44948046875,-0.003620528584718704,-0.05762267934195697,0.003756283793598413
1772795349359472600,3.45947265625,0.010123334607481957,-0.04889730189889669,-0.020183175524696707
1772795349369465600,3.469465576171875,0.01655015278458595,-0.004425196031108498,-0.0068230509530752895
1772795349379457500,3.47945751953125,-0.0138379712164402,0.022629399633035063,-0.005400543869286775
1772795349389450500,3.489450439453125,-0.008338789278268813,0.04994381527714431,0.007886807727068661
1772795349399442400,3.4994423828125,0.007895721685886382,0.06839154531136155,-0.01921769149340689
1772795349409434600,3.5094345703125,-0.0013379706054925918,0.08634338158741593,-0.02150163771212101
1772795349419427300,3.51942724609375,0.006021159985661506,0.08790661231614649,-0.02649878841228783
1772795349429419500,3.52941943359375,0.0014104513198137283,0.0718787298399955,-0.042613253193348646
1772795349439412500,3.53941259765625,-0.002434533670544624,0.05183686248213053,-0.04977079679779708
1772795349449404400,3.549404296875,-0.006385901644825935,0.03565444703139364,-0.015951456239074468
1772795349459397600,3.559397705078125,-0.03875029415488243,0.012929331938922404,-0.019832389325648545
1772795349469389300,3.569389404296875,-0.02409399229288101,-0.01939692051783204,-0.015761925016343593
1772795349479382500,3.579382568359375,-0.0027098434805870055,-0.03842296189665794,0.0030248277138918635
1772795349489374500,3.58937451171875,0.004025017732381821,-0.04871551559120416,-0.0029128917720168826
1772795349499367400,3.599367431640625,0.011850596791505814,-0.057642406955733895,-0.001621171461045742
1772795349509359600,3.609359619140625,-0.0006523264288902282,-0.046095907677337525,-0.01814260960780084
1772795349519352300,3.619352294921875,-0.009824059399962424,-0.051391968258842825,-0.0021630963180214167
1772795349529344500,3.629344482421875,-0.0026858780831098554,-0.04630765073187649,-0.0054308659423142665
1772795349539337500,3.63933740234375,-0.011251461854577064,-0.03183934572264552,-0.03209726600646973
1772795349549329400,3.649329345703125,-0.004257657444477081,-0.02286715391166508,-0.02433803018182516
1772795349559321300,3.6593212890625,0.005986088672280311,-0.027409035125002264,-0.024408611200004815
1772795349569314600,3.669314453125,0.013372107270359992,-0.04989259654656052,-0.012855389919877051
1772795349579306500,3.679306396484375,-0.02193476843237877,-0.056053822590038174,-0.01738879556581378
1772795349589299500,3.689299560546875,-0.00595043283700943,-0.05867569552622735,-0.0286366041585803
1772795349599291600,3.699291748046875,0.005913023436069489,-0.05496653880998492,-0.0071906421564519405
1772795349609284400,3.709284423828125,0.0006190086811780929,-0.058053764235600824,0.01605645098350942
1772795349619276500,3.719276611328125,0.028269232150912284,-0.058831397544592615,0.01697605004645884
1772795349629269500,3.72926953125,0.007094926697015762,-0.026799671055004,-0.00976947966851294
1772795349639261400,3.739261474609375,-0.003042436435818672,-0.01876929013878107,0.03741846102923155
1772795349649254700,3.749254638671875,0.003989361897110939,0.014340806172043084,0.054398018207028505
1772795349659246300,3.759246337890625,-0.007069207733869552,0.030890958956629036,0.03517170501574874
1772795349669239600,3.769239501953125,-0.008791793742775916,0.030204511062428354,0.04819711774028838
1772795349679231500,3.7792314453125,0.006200023683905601,0.04031177131794393,0.02232639809846878
1772795349689223400,3.789223388671875,-0.015960954719781876,0.030059768829494713,0.02818542632497847
1772795349699216600,3.799216552734375,0.002374327915906906,0.009285568609088659,0.053119888029992575
1772795349709208600,3.80920849609375,0.0006505728632211685,-0.02394815408140421,0.03050064446479082
1772795349719201500,3.819201416015625,0.0035223289072513577,-0.04088189935609698,0.027060587013512848
1772795349729193500,3.829193359375,-0.009110358172655104,-0.0587779868569225,0.015598624213412403
1772795349739186400,3.8391865234375,-0.01391162097454071,-0.07524016909711062,0.002615370130166411
1772795349749178400,3.849178466796875,0.007007832935452461,-0.06631780777722597,-0.00012267653159797192
1772795349759171600,3.859171630859375,0.013536357921361923,-0.05583820707798004,-0.012265168941766023
1772795349769163500,3.86916357421875,0.0011129296779632568,-0.040503421432524916,-0.028119521481916307
1772795349779156500,3.879156494140625,-0.01889876173734665,-0.022110344194993376,-0.01676554910093546
1772795349789148700,3.889148681640625,-0.02782674908041954,0.006183584005758166,-0.021976123356074094
1772795349799141400,3.899141357421875,-0.023864275190234183,0.040225992730632425,-0.03401245197802782
1772795349809133600,3.909133544921875,0.005738835912942886,0.049955213453993196,-0.05116663507036864
1772795349819126500,3.91912646484375,0.02794482250213623,0.052055254473164676,-0.05506678431406617
1772795349829118500,3.929118408203125,0.009422492861747742,0.03618278175443411,-0.03751593005433678
1772795349839110400,3.9391103515625,0.008826280534267424,0.0032419775959104296,-0.04146883239857852
1772795349849103400,3.949103271484375,-0.012717442753911018,-0.017622896582633257,-0.023702947148680684
1772795349859095600,3.959095458984375,0.012860066094994545,-0.0541482081644237,-0.010079203204810618
1772795349869088500,3.969088623046875,0.0058580783784389495,-0.08732325947023928,-0.01042823583818972
1772795349879080400,3.97908056640625,0.010012275448441505,-0.09160181357227265,-0.0023890870936214923
1772795349889073700,3.98907373046875,0.002451484805345535,-0.11140504986867308,0.035492753663659095
1772795349899065600,3.999065673828125,-0.004383329650759697,-0.11476122842878103,0.01320858727172017
1772795349909058600,4.00905859375,-0.007988076144456863,-0.10816628714315593,0.02263729067854583
1772795349919050500,4.019050537109375,0.0010123919129371643,-0.09566979366354644,0.025309724758192896
1772795349929043500,4.02904345703125,-0.006462474012374877,-0.057630351191759105,0.03492211416885257
1772795349939035400,4.039035400390625,-0.01112520512640476,-0.029618966259434817,0.028231895815208553
1772795349949027600,4.049027587890625,0.020969722792506217,0.015540829611569643,0.006363616747781634
1772795349959020300,4.059020263671875,0.001378302615880966,0.03590893324911594,-0.006623217532038688
1772795349969013000,4.069012939453125,-0.002277297282218933,0.030664675920084115,-0.013839286390691995
1772795349979005700,4.079005615234375,-0.0043313072025775905,0.02769355115480721,-0.00940371509604156
1772795349988998000,4.088997802734375,-0.0011795651733875275,0.01750526155233383,-0.033432533198222515
1772795349998990800,4.098990966796875,-0.009421323817968367,0.03124189128614962,-0.0007609013698995113
1772795350008982800,4.108982666015625,-0.014061258578300475,0.015251856602355836,-0.027732641056179997
1772795350018976000,4.11897607421875,0.00033317747712135315,0.011849720008671284,-0.004720233454927802
1772795350028968000,4.128968017578125,-0.0031640169888734818,0.008910890077799558,0.004277458123490214
1772795350038961000,4.1389609375,-0.0032838439762592313,0.023320669832825658,0.016563231461867688
1772795350048952800,4.148952880859375,-0.00004676175117492675,0.023722601697221398,0.0052924073196947575
1772795350058945800,4.15894580078125,0.0038607670813798904,0.014785481199622154,-0.0023163871835917235
1772795350068937700,4.168937744140625,0.0015296937853097915,-0.019481456996127963,-0.01302928518205881
1772795350078931000,4.178930908203125,0.001924246060848236,-0.02979052343405783,-0.029537279325351117
1772795350088923000,4.1889228515625,-0.008022562935948371,-0.02346636191383004,-0.02632218973636627
1772795350098914800,4.198914794921875,0.003370353215932846,-0.047467415226250885,-0.04663907464332878
1772795350108908000,4.208907958984375,0.004082885399460792,-0.0677255556832999,-0.03394851989634335
1772795350118899700,4.218899658203125,-0.001994388687610626,-0.0705960696183145,-0.02788439755178988
1772795350128893000,4.228892822265625,-0.004400865307450294,-0.06133505092859268,-0.016251023707538843
1772795350138884900,4.238884765625,0.00646715018749237,-0.04225253012217581,-0.031656755697354676
1772795350148877800,4.2488779296875,-0.01082768348455429,-0.03638992169909179,-0.01360182437300682
1772795350158870000,4.2588701171875,0.0031219314128160475,-0.017216507738828657,-0.030240751419588922
1772795350168862700,4.26886279296875,-0.0011783961296081542,0.0003705868780612945,-0.023548194978386162
1772795350178855000,4.27885498046875,0.006510989329218864,0.0016870763041079043,-0.01817373539842665
1772795350188847900,4.288847900390625,0.0064268181771039955,0.030146935656294224,-0.029375512892380357
1772795350198839800,4.29883984375,0.011003040051460265,0.024427096704766154,-0.0139986416708678
1772795350208833000,4.3088330078125,-0.0005500350981950759,0.024932562008872627,-0.0024107874687761066
1772795350218825000,4.318824951171875,-0.008064648512005805,0.014175532607734203,-0.008838628559187054
1772795350228818000,4.32881787109375,-0.007201309680938721,-0.0078154960565269,0.014919702038541436
1772795350238809900,4.338809814453125,0.00127834937274456,-0.021220555748417972,0.018313216934353112
1772795350248802000,4.348802001953125,0.0017974048107862472,-0.035718452178314326,0.006123085990175604
1772795350258794800,4.358794677734375,-0.006514496460556984,-0.03424341118969023,0.013005392849817872
1772795350268787000,4.368786865234375,-0.013176292437314987,-0.05791494028680026,0.01934621324390173
1772795350278780000,4.37877978515625,-0.0009568623334169388,-0.0669734952069819,0.008206322005018592
1772795350288771800,4.388771728515625,0.004112696015834808,-0.0679551266554743,0.02401398585923016
1772795350298765000,4.39876513671875,-0.004848024553060532,-0.05663498347885906,0.019421032045781612
1772795350308756700,4.4087568359375,-0.0040939913153648375,-0.06273322728872299,0.013256810327619313
1772795350318750000,4.41875,0.006246200913190841,-0.07062770686559379,0.002880158546194434
1772795350328742000,4.428741943359375,0.006389408776164054,-0.05210355059430003,0.014137611750140786
1772795350338734800,4.43873486328125,0.010565233156085013,-0.03033047552965581,0.02687792392298579
1772795350348726800,4.448726806640625,0.0004909983873367309,-0.014740399948880075,0.03699380587637424
1772795350358719700,4.4587197265625,-0.01289864453971386,0.012073372696712612,0.03869279181398451
1772795350368712000,4.4687119140625,-0.01223112054169178,0.023312048134952783,0.0359194546431303
1772795350378704000,4.478703857421875,-0.0045066637694835664,0.0425366808257997,0.0021156039144843816
1772795350388696800,4.48869677734375,-0.008567921859025955,0.03447451653182507,-0.007749810409173369
1772795350398688800,4.498688720703125,-0.012151041042804718,0.028388328485935924,-0.0152218998555094
1772795350408682000,4.508681884765625,0.0037672435790300366,-0.0006279957052320242,-0.0007801175270229577
1772795350418673700,4.518673583984375,0.011491115829348563,-0.01731273465491831,-0.004022168188169598
1772795350428667000,4.5286669921875,0.020578093126416206,-0.048069618903100485,-0.028128508505970238
1772795350438659000,4.5386591796875,-0.0014472761988639832,-0.05332381310425698,-0.018163725461065768
1772795350448651800,4.54865185546875,0.00912497121989727,-0.09568250701464712,-0.013153861409798264
1772795350458644000,4.55864404296875,-0.0139729957729578,-0.08514584236592054,-0.00945515302233398
1772795350468636700,4.56863671875,-0.005078326177597046,-0.08249766594469547,0.004166618160158396
1772795350478628900,4.57862890625,-0.0011725509107112884,-0.05949833702072501,0.009871624868735671
1772795350488621800,4.588621826171875,-0.012720949885249137,-0.0484045499458909,0.00753594846278429
1772795350498613800,4.59861376953125,-0.013530512702465056,-0.021038550245016812,-0.011941416880115865
1772795350508606000,4.60860595703125,0.005531915163993835,0.00867306273393333,0.0010343114838004112
1772795350518599000,4.618598876953125,-0.007727963903546333,0.0365925315991044,-0.011132803910970688
1772795350528590800,4.6285908203125,-0.0028606501281261444,0.039384573470428584,-0.021032339699938892
1772795350538583800,4.638583740234375,0.0006628478229045867,0.038651583020761604,-0.024531945318728685
1772795350548576000,4.648575927734375,0.010650573351979255,0.041053894922137256,-0.012202552034333347
1772795350558569000,4.65856884765625,0.004794248539209366,0.032325375673919916,0.005411722850427031
1772795350568561000,4.668560791015625,-0.0028448680371046067,0.012637217124551533,0.003116670715808868
1772795350578553900,4.678553955078125,-0.004959083712100983,0.010316519092023371,0.01966930771842599
1772795350588545800,4.6885458984375,-0.0010971475869417189,-0.008379413549602031,-0.004061915676668286
1772795350598538800,4.698538818359375,0.018180384334921834,-0.04982501120306551,0.007545373878255486
1772795350608530700,4.70853076171875,0.010244915160536765,-0.050459290518611664,0.02823613359890878
1772795350618524000,4.71852392578125,-0.010071896681189536,-0.05681698898226022,0.032084041198715565
1772795350628515800,4.728515869140625,-0.015413842231035231,-0.025894611974060535,0.027885639660805463
1772795350638507800,4.7385078125,-0.013707622835040092,-0.02819609384946525,0.010131517913937568
1772795350648501000,4.7485009765625,-0.008387889117002487,-0.03591507072895765,0.013760229805111884
1772795350658493000,4.758492919921875,-0.0053033671051263805,-0.0284819981187582,0.019967194686457513
1772795350668486000,4.76848583984375,0.002598199799656868,-0.035059915204346176,0.0052460839599370954
1772795350678477800,4.778477783203125,0.017980477848649024,-0.026929507979750633,-0.0009147767573595046
1772795350688470800,4.788470703125,-0.007504676541686057,-0.02699687412753701,-0.006974953579157591
1772795350698463000,4.798462890625,0.002896305963397026,-0.04690232868939638,-0.004230769437551498
1772795350708455700,4.80845556640625,0.0030716625303030013,-0.04991458918265998,-0.018996888349577783
1772795350718447900,4.81844775390625,0.008581950384378433,-0.049385889133438464,-0.02212693000361323
1772795350728440800,4.82844091796875,0.009693711018562316,-0.046650180559232826,-0.008493979839980601
1772795350738432800,4.838432861328125,-0.0019441198050975798,-0.05337503183484077,-0.0026627164032310244
1772795350748426000,4.848426025390625,-0.013753215542435646,-0.050698798362910746,0.004775689969211816
1772795350758418000,4.85841796875,-0.009379238241910934,-0.01605615872256458,-0.00039184886179864404
1772795350768409900,4.868409912109375,-0.00005377601385116577,-0.014763269367814063,0.00633124884814024
1772795350778402800,4.87840283203125,-0.0069265843927860254,-0.01109217963963747,0.006703370096161961
1772795350788395000,4.88839501953125,-0.01666881072819233,0.027195100113376974,-0.008941139085590839
1772795350798387700,4.8983876953125,0.007305354577302932,0.033070348822325464,-0.006045782970264554
1772795350808380000,4.9083798828125,0.009933949515223502,0.04037036963738501,0.010408362093940377
1772795350818372900,4.918372802734375,0.005866846206784248,0.02563340375460684,-0.015573270576447248
1772795350828364800,4.92836474609375,-0.010306289958953857,0.010173603489995003,-0.007786123831570148
1772795350838358000,4.93835791015625,0.0010983166307210921,-0.0006014730244874954,-0.021005159432068467
1772795350848349700,4.948349609375,0.0074216744333505625,-0.029485256877169012,-0.015997487337887285
1772795350858343000,4.958343017578125,0.004459902018308639,-0.022312661834061144,-0.014247063473984599
1772795350868334800,4.9683349609375,-0.0025251345634460447,-0.040801235335320235,-0.035049832201749086
1772795350878327800,4.978327880859375,-0.006837152543663978,-0.035919162382185454,-0.03232910200096667
1772795350888320000,4.988320068359375,0.003938508492708206,-0.034497093689814205,-0.05858750578612089
1772795350898312000,4.99831201171875,-0.004491466200351715,-0.022683687103539706,-0.05605046158917248
1772795350908305000,5.008304931640625,-0.005785013142228126,-0.021520269347354768,-0.04376410372890532
1772795350918296800,5.018296875,-0.021664719319343564,-0.006796236011385917,-0.013604235525801776
1772795350928289800,5.028289794921875,-0.014439444240927695,0.013122004966810345,-0.016386048264056444
1772795350938281700,5.03828173828125,0.007975801184773444,0.03734481127113104,-0.04422967541404068
1772795350948275000,5.04827490234375,0.011037526842951773,0.04455795752033591,-0.021140110923349855
1772795350958267000,5.058266845703125,0.006305822145938873,0.04468194922618568,-0.01518288301937282
1772795350968259300,5.06825927734375,0.016959902629256247,0.03999656788893044,-0.01694251310303807
1772795350978251500,5.07825146484375,-0.012798691296577453,0.022636852287128566,-0.000055675709992647165
1772795350988244200,5.088244140625,-0.012451485294103622,-0.013400091255828738,0.02613127027414739
1772795350998236400,5.098236328125,-0.016394085440039632,-0.030070874745398758,0.014955284808576106
1772795351008229400,5.1082294921875,-0.019193945291638374,-0.03528670969754457,0.013760522066056727
1772795351018221300,5.11822119140625,-0.010960369953513144,-0.060111646613478655,0.02788381302990019
1772795351028213500,5.128213623046875,0.0016980360895395277,-0.062225862288475035,0.00863316911496222
1772795351038206500,5.13820654296875,0.009217910200357437,-0.07368672911003231,0.03126753718405962
1772795351048198400,5.148198486328125,-0.0017588263660669326,-0.07355068164020777,0.03403210652656853
1772795351058191400,5.15819140625,-0.008097966259717941,-0.08189056689701973,0.027884762877970933
1772795351068183300,5.168183349609375,0.0028927988320589064,-0.08348265839405357,0.028700536240264772
1772795351078176500,5.178176513671875,0.007692892590165138,-0.07551825538612902,0.03589000935293734
1772795351088168400,5.18816845703125,0.020666940453648565,-0.057984279195964335,0.0414889253385365
1772795351098161400,5.198161376953125,0.0036491701573133466,-0.030952406820282337,0.02213920496329665
1772795351108153300,5.2081533203125,-0.003980009546875953,0.0026739684496074915,0.0031045418865978717
1772795351118146300,5.218146240234375,-0.0004366378515958786,0.034154856123402716,0.00542933157235384
1772795351128138200,5.22813818359375,-0.0017056348741054533,0.04129559472352266,-0.0010664601877331734
1772795351138131500,5.23813134765625,0.009434183299541472,0.07090725445933639,0.010114274518191814
1772795351148123400,5.248123291015625,0.01715630198419094,0.07403875741809605,0.0010225479807704687
1772795351158115300,5.258115234375,-0.003516483688354492,0.06547974951788783,-0.0018810645062476395
1772795351168108500,5.268108642578125,-0.0002034136176109314,0.03541932310126722,-0.024747122439369558
1772795351178100200,5.278100341796875,-0.01735153229534626,0.007384484228119254,-0.02540953187085688
1772795351188093400,5.288093505859375,-0.013976502904295921,0.002786415848135948,-0.023396438482776283
1772795351198085400,5.29808544921875,0.00016717326045036316,-0.017635975259914994,-0.031156258829310536
1772795351208078300,5.308078369140625,0.012183774268627165,-0.03139627813026309,-0.02328895952031016
1772795351218070500,5.318070556640625,0.004109773406386375,-0.04618994263634085,-0.0016164952859282493
1772795351228063200,5.328063232421875,-0.0021960487395524977,-0.05406038375049829,0.004720014259219169
1772795351238055400,5.338055419921875,-0.0037450317472219464,-0.048319794271886346,-0.011571195328235626
1772795351248048400,5.34804833984375,-0.02087152311503887,-0.03123056617453694,0.006151727562770247
1772795351258040300,5.358040283203125,-0.0022328736186027526,-0.007008344392105937,0.014279869765043259
1772795351268033500,5.368033447265625,-0.020690905851125718,-0.009098886930570005,-0.031379034734517336
1772795351278025500,5.378025390625,-0.01665653576850891,0.0011344108574092389,-0.02154262730963528
1772795351288017400,5.388017333984375,-0.0006043956339359284,0.002310176638513803,-0.021270678500458596
1772795351298010400,5.39801025390625,0.003515314644575119,0.007433072610199451,-0.03398227603547275
1772795351308002600,5.40800244140625,-0.005063713130354881,-0.002986249269172549,-0.04485993614159524
1772795351317995300,5.417995361328125,-0.0032820904105901718,-0.026357334114983675,-0.032529593009129165
1772795351327987500,5.427987548828125,0.003723404437303543,-0.03724829209409654,-0.028708208090066908
1772795351337980400,5.43798046875,-0.0028957214415073393,-0.03743650814257562,-0.0159489720210433
1772795351347972400,5.447972412109375,0.0024538228929042814,-0.05758804641999304,-0.01749444789737463
1772795351357965600,5.457965576171875,-0.008696516674757003,-0.04008315019384026,-0.004737403785437346
1772795351367957200,5.467957275390625,-0.008663198927044868,-0.03789974174015224,-0.02167041840776801
1772795351377950500,5.477950439453125,-0.010748773029446601,-0.01562587754651904,-0.019182693245261905
1772795351387942400,5.4879423828125,0.004776128360629081,0.008403598142787813,-0.025953429489210245
1772795351397935400,5.497935302734375,0.012599953854084014,0.0048695057325065134,-0.030469737869873642
1772795351407927600,5.507927490234375,0.02516366735100746,0.024354396794736385,-0.009081059012934566
1772795351417920300,5.517920166015625,0.017629180192947385,0.03128653414547443,-0.005131371539086103
1772795351427912400,5.527912353515625,0.008258709779381751,0.033581440149620174,-0.015203560481220483
1772795351437904400,5.537904296875,0.0053308396339416505,0.02108633490949869,-0.010027473017573356
1772795351447897300,5.5478974609375,0.004664484679698944,0.014379749942943453,0.0018003274202346802
1772795351457889300,5.55788916015625,-0.00943476782143116,-0.012376593426987529,0.01669204547330737
1772795351467882500,5.567882568359375,0.002697568520903587,-0.02636814776994288,0.024502061637118457
1772795351477874400,5.57787451171875,0.00421498734652996,-0.04176189706102013,0.020725684903562067
1772795351487867400,5.587867431640625,0.011712649625539778,-0.055203197110071774,0.01705254934877157
1772795351497859600,5.597859619140625,-0.0030523733079433437,-0.06141819916740059,0.02901895453967154
1772795351507852300,5.607852294921875,-0.009532382977008818,-0.049654696137458085,0.019947540137916803
1772795351517844500,5.617844482421875,-0.01940495769381523,-0.03768456461951136,0.029889015372470018
1772795351527837400,5.62783740234375,-0.011549568018317222,-0.03477503384836018,0.03655124974064529
1772795351537829400,5.637829345703125,-0.010190554624795914,-0.03041895753070712,0.03530965218171477
1772795351547821600,5.647821533203125,-0.0021557167291641234,-0.017757848073914645,0.020806495054811237
1772795351557814300,5.657814208984375,0.0011497545570135115,0.00020209844335913657,0.004847659226879477
1772795351567806500,5.667806396484375,-0.009001637101173401,-0.0006925123088061809,-0.0016202216129750013
1772795351577799400,5.67779931640625,0.0012993921607732772,-0.014922259321808814,-0.0037860213447362184
1772795351587791400,5.687791259765625,0.009398527464270591,-0.01503909063450992,-0.02942753534056246
1772795351597784600,5.69778466796875,0.011881576451659203,0.014708178179711102,-0.048378319526091215
1772795351607776500,5.707776611328125,0.004801847323775291,0.004922112702578306,-0.03917385332919657
1772795351617769500,5.71776953125,0.004051321217417717,0.0023353110797703263,-0.023954145430773496
1772795351627761400,5.727761474609375,-0.003809329155087471,-0.004747779048979282,0.004722279281541705
1772795351637754400,5.73775439453125,-0.0037836101919412612,0.01408558930195868,-0.0009255173470824956
1772795351647746300,5.747746337890625,-0.02293722347319126,0.01669577180035412,0.0063535337451845406
1772795351657739500,5.757739501953125,-0.005447744011878967,0.003356324690580368,-0.0008512830670922994
1772795351667731500,5.7677314453125,0.005648235020041466,0.008185498412698507,-0.0004667407289147377
1772795351677723400,5.777723388671875,0.01217617548406124,0.02010704154856503,-0.005248641243204474
1772795351687716600,5.787716552734375,0.002809212201833725,-0.005001826875284314,0.011313055848702788
1772795351697708300,5.797708251953125,-0.02124853973388672,-0.001126885138079524,0.032431831723079084
1772795351707701500,5.807701416015625,-0.022462591698765754,-0.015181713975593447,0.03673895433247089
1772795351717693400,5.817693359375,-0.016727847439050675,-0.023547537391260264,0.03780548758544028
1772795351727686400,5.827686279296875,0.0073345806717872615,-0.0335275910705328,0.024086685769259927
1772795351737678300,5.83767822265625,0.018673136287927626,-0.057294762561842794,0.022119112023338675
1772795351747671300,5.84767138671875,0.037621582385897634,-0.06619206250570714,-0.0002691723302006721
1772795351757663500,5.85766357421875,0.007899228817224503,-0.08506276719234883,-0.0050609366513788695
1772795351767656400,5.867656494140625,-0.007236380994319915,-0.07306677058078348,-0.001955517981946468
1772795351777648400,5.8776484375,-0.01868950290083885,-0.07050342289879917,-0.004352715316787362
1772795351787641600,5.8876416015625,0.0006026420682668685,-0.04952938925735652,-0.01602349856197834
1772795351797633500,5.897633544921875,0.020446575701236723,-0.0018828180719166992,0.0006613865181803703
1772795351807625200,5.907625244140625,0.00658171647787094,0.02336502043120563,-0.010431377643346786
1772795351817618400,5.917618408203125,0.01258183367550373,0.05184424207098782,-0.012533172228187322
1772795351827610400,5.9276103515625,-0.0039998832911252976,0.054021293849125504,0.017339549596607683
1772795351837603300,5.937603271484375,-0.002893383353948593,0.06110781804397702,0.003945449690148234
1772795351847595500,5.947595458984375,-0.025670447829365728,0.05312587937936186,-0.016024448410049078
1772795351857588200,5.957588134765625,-0.012435703203082083,0.03171959180049598,-0.014759543040767311
1772795351867580400,5.967580322265625,-0.007495908713340759,0.021694603000953792,-0.016579159683361648
1772795351877573400,5.977573486328125,-0.001889174747467041,-0.009351765713095664,-0.025687764290347692
1772795351887565300,5.9875654296875,0.0018295535147190092,-0.025556319930404425,-0.016695698735117913
1772795351897558500,5.99755859375,0.010623100823163985,-0.019368863467127084,-0.009265840995311737
1772795351907550200,6.00755029296875,0.002141688203811645,0.001647182685136795,-0.01786371960118413
1772795351917543400,6.01754345703125,0.004984218153357506,-0.0075919164337217805,-0.02376037642434239
1772795351927535400,6.027535400390625,-0.0038940848290920254,0.0024529461100697516,-0.019223975103721022
1772795351937527300,6.03752734375,-0.0023749124377965927,-0.019454203663021325,-0.0036938130166381594
1772795351947520500,6.0475205078125,-0.01753916382193565,-0.01190707621909678,-0.019225874799862503
1772795351957512400,6.057512451171875,-0.005367079991102218,-0.01833791298419237,-0.02356573063507676
1772795351967505700,6.067505615234375,0.010194646278023719,-0.03449197912327945,-0.01656695778891444
1772795351977497600,6.07749755859375,0.007319967624545097,-0.03803915021084249,-0.02104373787678778
1772795351987490600,6.087490478515625,0.01506838979423046,-0.047876945875212545,-0.019993863497674465
1772795351997482500,6.097482421875,-0.0018511808246374128,-0.05248853132389485,-0.019063523845002053
1772795352007475700,6.107475830078125,0.0017529811471700667,-0.03666296648681164,0.01134703118354082
1772795352017467400,6.11746728515625,0.003438742277026176,-0.038052009692415595,0.014655132818222045
1772795352027460600,6.127460693359375,-0.005126256972551346,-0.041780455631017684,0.025993250042945146
1772795352037452800,6.137452880859375,0.004018587991595268,-0.03951404506899416,0.025078911677002904
1772795352047445500,6.147445556640625,-0.0017389526218175887,-0.040263475196808576,0.011595672182366252
1772795352057437700,6.157437744140625,0.0009346505016088485,-0.03943403863534331,0.01706234009042382
1772795352067429600,6.1674296875,-0.009707739543914795,-0.039718408534675835,0.002625380067527294
1772795352077422600,6.177422607421875,-0.0021007716715335844,-0.03310856194086373,0.015512991756573318
1772795352087414500,6.18741455078125,-0.011601005944609642,-0.019037951012328264,0.009992036378011106
1772795352097407500,6.197407470703125,0.014148352339863775,-0.00814750448986888,0.027548370530456303
1772795352107399700,6.207399658203125,-0.0032873511075973507,0.011046513867005706,0.012552607581019401
1772795352117392600,6.217392578125,-0.010481062003970145,0.008739040642231702,0.00009958791695535182
1772795352127384600,6.227384521484375,-0.016923077750205993,0.019085808742046354,-0.008652969793975352
1772795352137377500,6.23737744140625,0.002524550041556358,0.027584757018089292,-0.022846257254108784
1772795352147369700,6.24736962890625,0.0002624503284692764,0.013847908088564872,-0.0065990329388529055
1772795352157362700,6.25736279296875,0.00038929157853126526,0.025056553714722395,-0.021131854551658034
1772795352167354600,6.267354736328125,0.003387304350733757,0.017406915744394062,0.003951002648100257
1772795352177347600,6.27734765625,-0.004054828348755837,0.012433876572176813,0.0060460021659731866
1772795352187339500,6.287339599609375,0.001297054073214531,-0.01135419157668948,0.014226093751192092
1772795352197331700,6.297331787109375,-0.00315232655107975,0.0007690846763551234,-0.004187807078659535
1772795352207324400,6.307324462890625,-0.02881926724910736,-0.027383535357564687,-0.01914469932243228
1772795352217316600,6.317316650390625,-0.01908522422015667,-0.021839564429596066,-0.01397116914205253
1772795352227309800,6.327309814453125,0.003643909460306167,-0.022788243456557392,-0.0015029519088566301
1772795352237301500,6.337301513671875,0.04947510178685188,0.0027419921845197675,-0.01647182685136795
1772795352247294700,6.347294677734375,0.06959259166419506,0.018906798913329838,-0.032170915764570235
1772795352257286700,6.35728662109375,0.0056862289428710935,0.03451587145552039,-0.0226843446906656
1772795352267279600,6.367279541015625,-0.06764028855264187,0.015766601191461085,-0.0513749440588057
1772795352277271600,6.377271484375,-0.1237310090869665,-0.09365582349263131,-0.06197546772398054
1772795352287264500,6.387264404296875,-0.1144727668762207,-0.14469773620478807,-0.04487023833990097
1772795352297256700,6.397256591796875,-0.013776011896133422,-0.06931231341809034,-0.006616057138890028
