time,seconds_elapsed,z,y,x
1772795345992012000,0.092011962890625,0.019849760457873344,-0.09466473013162613,0.01865064539015293
1772795346002005000,0.1020048828125,0.012201466597616673,-0.09524454176425934,0.02418775111436844
1772795346011997000,0.111996826171875,0.0011056724470108747,-0.08314793556928635,0.02341943047940731
1772795346021990100,0.121990234375,-0.010834687389433384,-0.061996687203645706,0.017888156697154045
1772795346031981800,0.13198193359375,-0.01811870001256466,-0.041832830756902695,0.005565442144870758
1772795346041975000,0.14197509765625,-0.026800816878676414,-0.02370809018611908,-0.004997555632144213
1772795346051967000,0.151967041015625,-0.028372880071401596,-0.011341966688632965,-0.009142765775322914
1772795346061960000,0.1619599609375,-0.026673022657632828,-0.004224289208650589,-0.01342568825930357
1772795346071952100,0.1719521484375,-0.021496638655662537,-0.0069425771944224834,-0.006097734440118074
1772795346081944000,0.181944091796875,-0.01217875350266695,-0.01593535952270031,0.005563319660723209
1772795346091937000,0.19193701171875,-0.002397495089098811,-0.03355509787797928,0.008146319538354874
1772795346101929000,0.201928955078125,0.004650263115763664,-0.04832641780376434,0.005514043383300304
1772795346111922000,0.211921875,0.011035457253456116,-0.06011010333895683,0.0037270626053214073
1772795346121913900,0.221913818359375,0.017023589462041855,-0.06289932131767273,-0.0024420134723186493
1772795346131907000,0.231906982421875,0.018470484763383865,-0.050835199654102325,-0.0035046148113906384
1772795346141899000,0.24189892578125,0.020914187654852867,-0.03013356402516365,-0.004609963390976191
1772795346151892000,0.25189208984375,0.017362330108880997,0.0034989644773304462,-0.0033657343592494726
1772795346161884200,0.26188427734375,0.014864316210150719,0.03167636692523956,-0.0021880767308175564
1772795346171876900,0.271876953125,0.00849536620080471,0.06094770506024361,-0.005249913316220045
1772795346181869000,0.281869140625,0.009950979612767696,0.08769252151250839,-0.009727786295115948
1772795346191862000,0.291862060546875,0.015228832140564919,0.10349651426076889,-0.011660708114504814
1772795346201854000,0.30185400390625,0.021050117909908295,0.1111491248011589,-0.01568678766489029
1772795346211847200,0.31184716796875,0.02421155758202076,0.11136510968208313,-0.019919082522392273
1772795346221838800,0.3218388671875,0.02842181921005249,0.10594635456800461,-0.013853966258466244
1772795346231831000,0.3318310546875,0.02583642117679119,0.09531421214342117,-0.010792129673063755
1772795346241824000,0.341823974609375,0.020984815433621407,0.08185508847236633,-0.008513194508850574
1772795346251816000,0.35181591796875,0.016709109768271446,0.06628677994012833,-0.003987152595072985
1772795346261809200,0.36180908203125,0.011427326127886772,0.04986058920621872,-0.002776729641482234
1772795346271801000,0.371801025390625,0.0027606007643043995,0.029802462086081505,-0.0012166498927399516
1772795346281794000,0.3817939453125,-0.002030974021181464,0.011693052016198635,-0.0032021740917116404
1772795346291786000,0.391785888671875,-0.009249738417565823,-0.0042406409047544,-0.0011163863819092512
1772795346301779000,0.401779052734375,-0.009595980867743492,-0.02230948396027088,-0.003404848976060748
1772795346311771000,0.41177099609375,-0.011193078011274338,-0.04232447221875191,-0.0003459419822320342
1772795346321764000,0.42176416015625,-0.007990055717527866,-0.05814695358276367,0.004859500098973513
1772795346331755800,0.431755859375,-0.006997495889663696,-0.07693635672330856,0.003132972866296768
1772795346341749000,0.4417490234375,-0.0018262241501361132,-0.09541689604520798,0.004006857983767986
1772795346351741200,0.4517412109375,0.008817898109555244,-0.11898721009492874,0.0004033349687233567
1772795346361734000,0.46173388671875,0.015829484909772873,-0.15237267315387726,-0.005501022562384605
1772795346371726000,0.47172607421875,0.02104528620839119,-0.20337779819965363,-0.021125255152583122
1772795346381718000,0.481718017578125,0.01862683705985546,-0.2139088213443756,-0.019599005579948425
1772795346391711000,0.4917109375,0.008667679503560066,-0.16702041029930115,0.013525924645364285
1772795346401703000,0.501702880859375,-0.00019970652647316456,-0.0875951498746872,0.04090222343802452
1772795346411695900,0.51169580078125,-0.00849545281380415,-0.011839400976896286,0.04609272629022598
1772795346421688000,0.52168798828125,-0.011593258008360863,0.05972328782081604,0.03731667250394821
1772795346431681000,0.531680908203125,-0.008450728841125965,0.11298570781946182,0.00675903121009469
1772795346441673000,0.5416728515625,-0.005495033692568541,0.14069534838199615,-0.03245583549141884
1772795346451666000,0.551666015625,-0.0050420300103724,0.13967429101467133,-0.06430910527706146
1772795346461658000,0.561658203125,-0.005262861028313637,0.11843951046466827,-0.06950695812702179
1772795346471651000,0.571651123046875,-0.0032963827252388,0.08084340393543243,-0.04944910109043121
1772795346481643000,0.58164306640625,-0.00325401546433568,0.035957928746938705,-0.013728230260312557
1772795346491636000,0.591635986328125,-0.0001117517240345478,-0.02215517871081829,0.02346654236316681
1772795346501628000,0.6016279296875,-0.00005650636740028858,-0.07362530380487442,0.04053492099046707
1772795346511621000,0.61162109375,-0.0005060478579252958,-0.11881062388420105,0.045495592057704926
1772795346521612800,0.62161279296875,0.001834361581131816,-0.14104832708835602,0.030219854786992073
1772795346531605000,0.63160498046875,-0.0016927290707826614,-0.14466142654418945,0.01232527568936348
1772795346541598200,0.64159814453125,-0.003807866247370839,-0.12394263595342636,0.0009108037338592112
1772795346551590000,0.65158984375,-0.005465950351208448,-0.08125109225511551,-0.007118892855942249
1772795346561583000,0.6615830078125,-0.00782760325819254,-0.029876170679926872,-0.0035603498108685017
1772795346571575000,0.671574951171875,-0.009294206276535988,0.02520599029958248,-0.002793625695630908
1772795346581568000,0.681568115234375,-0.010519243776798248,0.07164131104946136,-0.003238503821194172
1772795346591560000,0.691559814453125,-0.011572523973882198,0.10786189883947372,-0.005733352620154619
1772795346601553000,0.701552978515625,-0.014316770248115063,0.12383843213319778,-0.009487010538578033
1772795346611545000,0.711545166015625,-0.017563696950674057,0.12148471921682358,-0.012156296521425247
1772795346621538000,0.7215380859375,-0.014626529067754745,0.09908159077167511,-0.01682189479470253
1772795346631530000,0.731530029296875,-0.013420915231108665,0.0605565682053566,-0.015722543001174927
1772795346641523000,0.74152294921875,-0.010529441758990288,0.019128266721963882,-0.009173943661153316
1772795346651515000,0.751514892578125,-0.009681224822998047,-0.022385619580745697,-0.0007503647939302027
1772795346661508000,0.761508056640625,-0.00755072757601738,-0.05890351161360741,0.011677800677716732
1772795346671500000,0.7715,-0.004015914164483547,-0.09031203389167786,0.016340728849172592
1772795346681492000,0.781491943359375,0.0006141010671854019,-0.10228468477725983,0.014713599346578121
1772795346691485000,0.79148486328125,0.004471157677471638,-0.09962578117847443,0.012854712083935738
1772795346701477000,0.80147705078125,0.005507909692823887,-0.08616634458303452,0.009136003442108631
1772795346711469800,0.8114697265625,0.010580964386463165,-0.059254035353660583,0.008245975710451603
1772795346721462000,0.8214619140625,0.008735127747058868,-0.023022791370749474,0.004281061701476574
1772795346731455000,0.831455078125,0.0032823055516928434,0.010559668764472008,0.0009627629187889397
1772795346741447000,0.841447021484375,-0.00007567391730844975,0.04000091552734375,-0.0006564390496350825
1772795346751440100,0.851440185546875,-0.0006016483530402184,0.05812612175941467,-0.00005696143489331007
1772795346761431800,0.861431884765625,-0.001915157656185329,0.06950166076421738,-0.006907704286277294
1772795346771425000,0.871425048828125,-0.0012006314937025309,0.07297176122665405,-0.00811278447508812
1772795346781417000,0.8814169921875,-0.00034841999877244234,0.06332579255104065,-0.00754180271178484
1772795346791410000,0.891409912109375,0.0024984441697597504,0.04975931718945503,-0.006885231472551823
1772795346801402000,0.901402099609375,0.0045975325629115105,0.03191622346639633,-0.004503170493990183
1772795346811394800,0.911394775390625,0.004692606627941132,0.00892568752169609,-0.0034424334298819304
1772795346821387000,0.921386962890625,0.0046952152624726295,-0.011168193072080612,0.00030899784178473055
1772795346831380000,0.9313798828125,0.0012791785411536694,-0.026609469205141068,0.0001710460928734392
1772795346841372000,0.941371826171875,-0.000557728810235858,-0.038614775985479355,0.004055867437273264
1772795346851363800,0.95136376953125,-0.0031439245212823153,-0.04145530238747597,0.004208200611174107
1772795346861357000,0.961357177734375,-0.006263355724513531,-0.0370703861117363,0.004672088660299778
1772795346871349000,0.971348876953125,-0.003993543330579996,-0.024923175573349,0.0037762015126645565
1772795346881342000,0.981342041015625,-0.0037583475932478905,-0.011815477162599564,0.0039480021223425865
1772795346891334100,0.991334228515625,0.0004515773616731167,0.003972274251282215,-0.0009061413002200425
1772795346901326800,1.001326904296875,0.005579259246587753,0.020233094692230225,-0.004117373377084732
1772795346911319000,1.011319091796875,0.008218452334403992,0.0390872098505497,-0.005951226223260164
1772795346921312000,1.02131201171875,0.005580270197242498,0.050282012671232224,-0.004908496048301458
1772795346931304000,1.031303955078125,0.004116596654057503,0.05644882842898369,-0.005376413464546204
1772795346941297200,1.041297119140625,0.00468488410115242,0.05933612957596779,-0.004578271880745888
1772795346951288800,1.051288818359375,-0.0022324107121676207,0.054805826395750046,-0.006649412214756012
1772795346961283000,1.061282958984375,-0.0013571549206972122,0.04640217870473862,-0.004598443396389484
1772795346971274800,1.071274658203125,-0.005622739903628826,0.02878670208156109,-0.004197371192276478
1772795346981268000,1.08126806640625,-0.0037402769085019827,0.003228567074984312,-0.0016649028984829783
1772795346991260000,1.091260009765625,-0.004410328343510628,-0.01909404806792736,0.0034760632552206516
1772795347001251800,1.101251953125,-0.00519237294793129,-0.04623294994235039,0.008749053813517094
1772795347011245000,1.1112451171875,-0.002346519147977233,-0.06623248755931854,0.009876903146505356
1772795347021237000,1.121237060546875,-0.003298631403595209,-0.07991830259561539,0.016885537654161453
1772795347031230000,1.13122998046875,-0.0029678670689463615,-0.0863969698548317,0.015978464856743813
1772795347041222000,1.141221923828125,0.0008049949537962675,-0.0812992975115776,0.013738185167312622
1772795347051214800,1.15121484375,0.003768560476601124,-0.06808469444513321,0.008396683260798454
1772795347061206800,1.161206787109375,0.007231257855892181,-0.04965768754482269,0.0006787399761378765
1772795347071200000,1.171199951171875,0.008280809037387371,-0.024570975452661514,-0.0012914666440337896
1772795347081192000,1.18119189453125,0.010843475349247456,0.0029158261604607105,-0.00193134811706841
1772795347091185000,1.191184814453125,0.011599812656641006,0.025563616305589676,-0.004648837726563215
1772795347101177000,1.201177001953125,0.006458587478846312,0.044611670076847076,-0.005065069999545813
1772795347111169800,1.211169677734375,0.0021567833609879017,0.05541025102138519,-0.0024325354024767876
1772795347121162000,1.221161865234375,-0.00007590814493596554,0.06128791347146034,-0.005921501666307449
1772795347131155000,1.231155029296875,-0.0037247049622237682,0.06152121350169182,-0.008131925016641617
1772795347141147000,1.24114697265625,-0.004263979382812977,0.055689334869384766,-0.0054039121605455875
1772795347151140000,1.25114013671875,-0.0035364036448299885,0.044963184744119644,-0.00549712311476469
1772795347161131800,1.2611318359375,0.0038249003700912,0.03581961989402771,-0.005132617894560099
1772795347171124000,1.2711240234375,0.006914699450135231,0.025004787370562553,-0.0022774427197873592
1772795347181117000,1.281116943359375,0.009020336903631687,0.01940331794321537,-0.0010786860948428512
1772795347191108900,1.29110888671875,0.0061257462948560715,0.020524775609374046,0.0013863358180969954
1772795347201102000,1.30110205078125,0.005589629989117384,0.02205398678779602,-0.000762194104027003
1772795347211094000,1.311093994140625,0.0027965069748461246,0.026590416207909584,-0.0006146549130789936
1772795347221087000,1.3210869140625,-0.00024173688143491745,0.030730968341231346,-0.003886142745614052
1772795347231079000,1.331078857421875,-0.0032250098884105682,0.031152011826634407,-0.005868599750101566
1772795347241071900,1.34107177734375,-0.00582748232409358,0.025560081005096436,-0.004147139843553305
1772795347251063800,1.351063720703125,-0.0039337086491286755,0.016461124643683434,-0.004100268241018057
1772795347261057000,1.36105712890625,-0.005785302259027958,0.001030575018376112,0.0005624360055662692
1772795347271049000,1.371049072265625,-0.0027852514758706093,-0.016474649310112,0.0034434436820447445
1772795347281042000,1.3810419921875,-0.001120682107284665,-0.04183385148644447,0.006157661322504282
1772795347291033900,1.391033935546875,-0.0019425335340201855,-0.05919419974088669,0.007535847369581461
1772795347301026800,1.40102685546875,0.001284128986299038,-0.07622028887271881,0.00818204041570425
1772795347311019000,1.41101904296875,-0.00017741392366588116,-0.07901793718338013,0.009547443129122257
1772795347321011000,1.421010986328125,-0.0025176352355629206,-0.07285518944263458,0.011221463792026043
1772795347331004000,1.43100390625,-0.002004976850003004,-0.05915003642439842,0.010613197460770607
1772795347340996000,1.44099609375,-0.003522876650094986,-0.034729842096567154,0.007155658211559057
1772795347350988800,1.45098876953125,-0.004758317023515701,-0.011461801826953888,0.002541731810197234
1772795347360981000,1.46098095703125,-0.0013393983244895935,0.01207041461020708,-0.0016728653572499752
1772795347370974000,1.470973876953125,-0.0021247644908726215,0.03455575183033943,-0.006098240148276091
1772795347380966000,1.4809658203125,-0.0036837789230048656,0.05415555089712143,-0.009021858684718609
1772795347390959000,1.490958984375,-0.0008989115012809634,0.0642840787768364,-0.013757757842540741
1772795347400950800,1.50095068359375,-0.0005632824031636119,0.06345581263303757,-0.010533700697124004
1772795347410944000,1.510944091796875,-0.0005696740699931979,0.05678912624716759,-0.00854778103530407
1772795347420936000,1.52093603515625,0.0026227496564388275,0.04431590437889099,-0.006957681849598885
1772795347430929000,1.530928955078125,0.004032626748085022,0.029999548569321632,-0.005132351536303759
1772795347440920800,1.5409208984375,0.00723927840590477,0.012358905747532845,-0.0014539118856191635
1772795347450913000,1.5509130859375,0.005809427239000797,-0.003666133154183626,0.003465479239821434
1772795347460905700,1.56090576171875,0.004876059480011463,-0.01720779575407505,0.00501414155587554
1772795347470898000,1.57089794921875,0.0061666276305913925,-0.028550200164318085,0.004975525662302971
1772795347480891000,1.580890869140625,0.002575519261881709,-0.03405608981847763,0.004744587931782007
1772795347490882800,1.5908828125,0.0012636459432542324,-0.03331653028726578,0.004962434526532888
1772795347500876000,1.6008759765625,0.004310552030801773,-0.03135156258940697,0.004532730206847191
1772795347510867700,1.61086767578125,0.00291638751514256,-0.01879049651324749,0.00419663917273283
1772795347520861000,1.62086083984375,0.0018036642577499151,-0.0060332221910357475,0.0039480021223425865
1772795347530852900,1.630852783203125,0.0012760921381413937,0.008375811390578747,-0.0023003059905022383
1772795347540845800,1.640845703125,0.0012337795924395323,0.01863306760787964,-0.004256656859070063
1772795347550838000,1.650838134765625,0.0020074278581887484,0.030095845460891724,-0.006554165855050087
1772795347560830700,1.660830810546875,0.003717952175065875,0.03234492242336273,-0.007563923951238394
1772795347570823000,1.670822998046875,0.005139014683663845,0.0305294431746006,-0.007853143848478794
1772795347580816000,1.68081591796875,0.0039774226024746895,0.028706541284918785,-0.00805842224508524
1772795347590807800,1.690807861328125,0.005257071927189827,0.016315117478370667,-0.00557928578928113
1772795347600799700,1.7007998046875,0.0055134473368525505,0.004614096134901047,-0.002187121659517288
1772795347610793000,1.71079296875,0.006544357165694237,-0.006528037134557962,-0.0023013714235275984
1772795347620785000,1.720784912109375,0.01057920977473259,-0.017751729115843773,0.004237181972712278
1772795347630777900,1.73077783203125,0.008054266683757305,-0.02399311400949955,0.0025945440866053104
1772795347640770000,1.74077001953125,0.008249540813267231,-0.02313299849629402,0.000635801930911839
1772795347650762800,1.7507626953125,0.007376556284725666,-0.01681038737297058,0.00020383720402605832
1772795347660755000,1.7607548828125,0.008141759783029556,-0.007282888516783714,-0.001910657505504787
1772795347670748000,1.770747802734375,0.004855419043451548,0.004925308283418417,-0.0025074719451367855
1772795347680739800,1.78073974609375,0.003406338393688202,0.016389351338148117,-0.007076289039105177
1772795347690733000,1.790733154296875,0.0035685249604284763,0.020293544977903366,-0.008228106424212456
1772795347700724700,1.800724853515625,0.004891686141490936,0.02073676325380802,-0.005565969739109278
1772795347710718000,1.810718017578125,0.002918816404417157,0.01645919494330883,-0.005955590400844812
1772795347720710000,1.8207099609375,0.003009706735610962,0.009727565571665764,-0.0005964554729871452
1772795347730701800,1.830701904296875,0.0016493641305714846,0.0017050588503479958,0.0007481746142730117
1772795347740695000,1.840695068359375,-0.0017124046571552753,-0.007531977724283934,0.005606128368526697
1772795347750687000,1.85068701171875,-0.005138827487826347,-0.013413835316896439,0.007530262228101492
1772795347760680000,1.860679931640625,-0.005490788258612156,-0.021804794669151306,0.004023472312837839
1772795347770671900,1.870671875,-0.005658567417412996,-0.02277951128780842,0.00010542970267124474
1772795347780664800,1.880664794921875,0.000896113459020853,-0.025218835100531578,-0.0008284792420454323
1772795347790656800,1.89065673828125,0.006387018598616123,-0.01479415688663721,-0.004643457476049662
1772795347800650000,1.90064990234375,0.011449649930000305,-0.0030521664302796125,-0.004242146387696266
1772795347810642000,1.910641845703125,0.012470971792936325,0.013109227642416954,-0.003226150758564472
1772795347820635000,1.920634765625,0.017520271241664886,0.02879571169614792,-0.0031855679117143154
1772795347830627000,1.930626953125,0.012409131973981857,0.043450821191072464,-0.005145920906215906
1772795347840619800,1.940619873046875,0.01097509078681469,0.05409705266356468,-0.007995734922587872
1772795347850612000,1.950612060546875,0.007246132008731365,0.05828434228897095,-0.009811212308704853
1772795347860605000,1.96060498046875,0.001580789452418685,0.060615673661231995,-0.009027710184454918
1772795347870596900,1.970596923828125,-0.0008951514028012753,0.052968937903642654,-0.007369359955191612
1772795347880589000,1.980589111328125,-0.0009989050449803472,0.041803233325481415,-0.006953845731914043
1772795347890581800,1.990581787109375,-0.0026362165808677673,0.025083109736442566,-0.0031870706006884575
1772795347900574000,2.000573974609375,-0.0017742542549967766,0.004304524976760149,-0.0017324920045211911
1772795347910567000,2.01056689453125,-0.0025750668719410896,-0.012151146307587624,-0.0029748566448688507
1772795347920558800,2.020558837890625,0.0025488552637398243,-0.026124486699700356,0.0008896562503650784
1772795347930552000,2.030552001953125,0.004651953466236591,-0.035076435655355453,0.0009335984359495342
1772795347940544000,2.0405439453125,0.004665990825742483,-0.0359627790749073,0.0007804115884937346
1772795347950537000,2.050536865234375,0.0025096293538808823,-0.03546743094921112,-0.0009370610350742936
1772795347960528000,2.06052783203125,0.0025407779030501842,-0.027361147105693817,-0.00625231210142374
1772795347970520800,2.070520751953125,-0.0010757946874946356,-0.015858951956033707,-0.007213979493826628
1772795347980512800,2.0805126953125,-0.0007617748342454433,-0.0018069632351398468,-0.00688267732039094
1772795347990505700,2.090505615234375,-0.0037674184422940016,0.011690203100442886,-0.006284797564148903
1772795348000498000,2.100497802734375,-0.004626451525837183,0.022266218438744545,-0.003113730810582638
1772795348010491000,2.110490966796875,-0.0034826237242668867,0.029712414368987083,0.0010447950335219502
1772795348020482800,2.12048291015625,-0.00556024257093668,0.034817274659872055,-0.00035007327096536756
1772795348030475000,2.13047509765625,-0.0034542144276201725,0.031568482518196106,0.0011013494804501534
1772795348040467700,2.1404677734375,-0.0006966145010665059,0.028673825785517693,0.0029929529409855604
1772795348050460000,2.1504599609375,-0.00005372753366827965,0.018566330894827843,0.0031889616511762142
1772795348060452600,2.16045263671875,0.0034618510399013758,0.007659491617232561,0.0020143226720392704
1772795348070444800,2.17044482421875,0.004360667429864407,-0.006373236421495676,0.00018899212591350079
1772795348080438000,2.18043798828125,0.00453334953635931,-0.02394144795835018,0.0019872193224728107
1772795348090429700,2.1904296875,0.0035218812990933657,-0.03849269449710846,-0.0007979145157150924
1772795348100423000,2.2004228515625,0.004720184486359358,-0.05156133323907852,0.002593977376818657
1772795348110414800,2.210414794921875,0.007905058562755585,-0.05768580734729767,0.005465930327773094
1772795348120407800,2.22040771484375,0.006715315859764814,-0.059142157435417175,0.008152464404702187
1772795348130399700,2.230399658203125,0.007727849762886763,-0.05179769545793533,0.008468848653137684
1772795348140392700,2.240392822265625,0.014188036322593689,-0.03965034708380699,0.0067177582532167435
1772795348150384600,2.250384521484375,0.009255597367882729,-0.026744402945041656,-0.00006531312828883529
1772795348160376800,2.260376953125,0.009284484200179577,-0.009552056901156902,-0.0037868826184421778
1772795348170369800,2.270369873046875,0.009959861636161804,0.006433834321796894,-0.004694754257798195
1772795348180361700,2.28036181640625,0.003225846914574504,0.018138226121664047,-0.011499766260385513
1772795348190355000,2.29035498046875,0.0007387206424027681,0.03452332317829132,-0.009824637323617935
1772795348200346600,2.3003466796875,-0.004441361874341965,0.041574664413928986,-0.008374006487429142
1772795348210339800,2.31033984375,-0.00602088263258338,0.04147213324904442,-0.0054898033849895
1772795348220331800,2.320331787109375,-0.005540377926081419,0.035923685878515244,-0.006442381534725428
1772795348230324700,2.33032470703125,-0.006693260744214058,0.023640122264623642,-0.0064551648683846
1772795348240317000,2.34031689453125,-0.0032231933437287807,0.008019790053367615,-0.0051022861152887344
1772795348250309600,2.3503095703125,-0.0012886731419712305,-0.00933363288640976,-0.00046119530452415347
1772795348260301800,2.3603017578125,0.002133646048605442,-0.02511725388467312,-0.004229629412293434
1772795348270294800,2.370294677734375,0.00550813740119338,-0.034237515181303024,0.003650397527962923
1772795348280286700,2.38028662109375,0.004106341861188412,-0.037185948342084885,0.00920700840651989
1772795348290280000,2.390280029296875,0.002963047241792083,-0.03738062456250191,0.008656799793243408
1772795348300271900,2.40027197265625,0.0029013962484896183,-0.026786673814058304,0.0074485717341303825
1772795348310263800,2.410263916015625,-0.0014161203289404511,-0.015224294736981392,0.004119087476283312
1772795348320256800,2.4202568359375,-0.0007681120187044144,0.0010432186536490917,0.001263297745026648
1772795348330249000,2.4302490234375,-0.003129536984488368,0.014336919412016869,-0.0009926659986376762
1772795348340241700,2.44024169921875,-0.0006121383048593998,0.02817268669605255,-0.002106835599988699
1772795348350233900,2.45023388671875,-0.0033519985154271126,0.042096227407455444,-0.002377412747591734
1772795348360226800,2.460226806640625,-0.00019542407244443893,0.047212179750204086,-0.002172649372369051
1772795348370218800,2.47021875,-0.0010401788167655468,0.04535569250583649,0.0005094199441373348
1772795348380211700,2.480211669921875,0.001047380967065692,0.0433780699968338,0.003984917886555195
1772795348390203600,2.49020361328125,-0.00007860339246690273,0.033234089612960815,0.001975563121959567
1772795348400196900,2.50019677734375,-0.00005820603109896183,0.028433077037334442,0.001098788809031248
1772795348410188800,2.510188720703125,-0.0011746031232178211,0.019774073734879494,0.0024157220032066107
1772795348420181800,2.520181640625,-0.0038708422798663378,0.015202161855995655,-0.0005368221318349242
1772795348430174000,2.530174072265625,-0.002708372427150607,0.00470051821321249,-0.0018516246927902102
1772795348440166700,2.540166748046875,-0.0024280440993607044,0.001709718257188797,-0.0026583371218293905
1772795348450158800,2.550158935546875,-0.0020930184982717037,0.000684135127812624,-0.002363258972764015
1772795348460150800,2.56015087890625,-0.002438414143398404,0.0015389216132462025,-0.004137320443987846
1772795348470143700,2.570143798828125,-0.0015137647278606892,0.004255346488207579,-0.004757037851959467
1772795348480135700,2.5801357421875,-0.0017813579179346561,0.0060493177734315395,-0.0022817321587353945
1772795348490128600,2.590128662109375,-0.0030727246776223183,0.012349823489785194,-0.000054264324717223644
1772795348500120800,2.600120849609375,0.00025866134092211723,0.010394953191280365,-0.0006606375682167709
1772795348510113800,2.61011376953125,-0.0001810265239328146,0.0055852849036455154,-0.0008609073120169342
1772795348520105700,2.620105712890625,-0.001031043124385178,0.00481368089094758,-0.003059067763388157
1772795348530098700,2.6300986328125,0.0013809818774461746,-0.002892708405852318,-0.00078339665196836
1772795348540091000,2.6400908203125,0.0020966334268450737,-0.008753128349781036,-0.0003895956324413419
1772795348550083800,2.650083740234375,0.0030417894013226032,-0.013729511760175228,0.0014852697495371103
1772795348560075800,2.66007568359375,0.005560444667935371,-0.012739017605781555,0.004160720854997635
1772795348570068700,2.67006884765625,0.006370311602950096,-0.017365461215376854,0.004481099080294371
1772795348580060700,2.680060791015625,0.004043790511786938,-0.021093174815177917,0.002821020781993866
1772795348590052900,2.690052978515625,0.0030371155589818954,-0.019277431070804596,0.003761915722861886
1772795348600045600,2.700045654296875,0.0012134534772485495,-0.01527019590139389,0.0010998540092259645
1772795348610037800,2.710037841796875,0.0015524737536907196,-0.01039714366197586,0.001208244706504047
1772795348620031000,2.720031005859375,0.0013668353203684092,-0.005747176706790924,0.0002895838988479227
1772795348630022700,2.730022705078125,-0.0015879417769610882,0.002915554214268923,-0.0009293449693359435
1772795348640016000,2.740015869140625,0.0027871537022292614,0.005260533653199673,0.001844767713919282
1772795348650007800,2.7500078125,-0.0009569845860823989,0.007305840961635113,-0.0009853735100477934
1772795348660000800,2.760000732421875,0.003208324545994401,0.006567391101270914,-0.003345801029354334
1772795348669992700,2.76999267578125,0.004403284750878811,0.009573034942150116,-0.003078686073422432
1772795348679985700,2.779985595703125,0.0018646889366209507,0.007467295508831739,-0.0016888162354007363
1772795348689977900,2.789977783203125,0.0017134214285761118,0.006292309146374464,-0.0023354319855570793
1772795348699970800,2.799970703125,0.001053930027410388,0.003985791001468897,0.0018817582167685032
1772795348709962800,2.809962646484375,-0.00031253788620233536,-0.00016527855768799782,-0.0012495866976678371
1772795348719955700,2.819955810546875,-0.00012986105866730213,-0.0011154068633913994,-0.00030643155332654715
1772795348729948000,2.829947998046875,-0.0009032430825755,0.00358906714245677,-0.00374190928414464
1772795348739939600,2.839939697265625,-0.0027270421851426363,0.007638764567673206,-0.00516591127961874
1772795348749932800,2.849932861328125,0.0007763463072478771,0.0108161810785532,-0.008094057440757751
1772795348759925000,2.859925048828125,0.002083790022879839,0.014410382136702538,-0.009976096451282501
1772795348769917700,2.869917724609375,0.004744820762425661,0.015855412930250168,-0.011331378482282162
1772795348779910000,2.879909912109375,0.00988834723830223,0.014776229858398438,-0.008408334106206894
1772795348789902600,2.889902587890625,0.009647064842283726,0.011310657486319542,-0.006844259798526764
1772795348799894800,2.899894775390625,0.008981616236269474,0.0127123286947608,-0.0044497535564005375
1772795348809888000,2.909887939453125,0.006343222223222256,0.00871998444199562,-0.0013655468355864286
1772795348819879700,2.919879638671875,0.0002217784058302641,0.009640637785196304,-0.002687256084755063
1772795348829873000,2.929872802734375,-0.0013454919680953026,0.005105541553348303,-0.003363699186593294
1772795348839864800,2.93986474609375,-0.001802043872885406,-0.001135201659053564,-0.004678673110902309
1772795348849857800,2.94985791015625,-0.00074263836722821,-0.008765690959990025,-0.0033814471680670977
1772795348859849700,2.959849609375,0.0032971652690321207,-0.017861120402812958,-0.0009689919534139335
1772795348869842000,2.969842041015625,0.004682009108364582,-0.024274542927742004,0.0007679217378608882
1772795348879835000,2.9798349609375,0.005440873093903065,-0.026693908497691154,0.0014379291096702218
1772795348889826800,2.989826904296875,0.006937036290764809,-0.023702379316091537,0.006088607013225555
1772795348899819800,2.99981982421875,0.007882563397288322,-0.022227194160223007,0.004609259311109781
1772795348909811700,3.009811767578125,0.006871894001960754,-0.01261771097779274,0.004205523990094662
1772795348919805000,3.019804931640625,0.007892167195677757,-0.0001757768914103508,0.0033944612368941307
1772795348929796600,3.029796630859375,0.003950155805796385,0.017158739268779755,0.0015512874815613031
1772795348939789800,3.039789794921875,0.0010270541533827782,0.036442242562770844,0.0021122796460986137
1772795348949782000,3.049781982421875,0.000014253892004489899,0.04622749611735344,-0.002091253874823451
1772795348959774700,3.059774658203125,-0.0001925488468259573,0.04978659003973007,-0.004610938485711813
1772795348969766400,3.069766357421875,0.0001312915701419115,0.05320741981267929,-0.007666116580367088
1772795348979759400,3.07975927734375,0.0022385744377970695,0.04245779290795326,-0.00745658203959465
1772795348989751600,3.08975146484375,0.008150791749358177,0.0263145100325346,-0.008045140653848648
1772795348999744500,3.09974462890625,0.009642200544476509,0.0059265680611133575,-0.0033909729681909084
1772795349009736400,3.109736328125,0.005944401025772095,-0.013121957890689373,0.0004610233590938151
1772795349019728400,3.119728271484375,0.005322537384927273,-0.02777591161429882,0.006434624083340168
1772795349029721600,3.1297216796875,0.0019310018979012966,-0.03302447125315666,0.006206923630088568
1772795349039713300,3.13971337890625,0.0014003205578774214,-0.03309888392686844,0.006970622111111879
1772795349049706500,3.14970654296875,-0.000983741134405136,-0.02581833489239216,0.008688626810908318
1772795349059698700,3.15969873046875,-0.0009804366854950786,-0.01081608235836029,0.003193523036316037
1772795349069691400,3.16969140625,-0.0023812593426555395,0.004092826042324305,0.003063028212636709
1772795349079683600,3.17968359375,-0.0015101394383236766,0.02144278958439827,-0.004220717586576939
1772795349089676300,3.18967626953125,-0.00016417773440480232,0.03883242979645729,-0.00913424976170063
1772795349099668500,3.19966845703125,-0.0005779139464721084,0.055649738758802414,-0.008950314484536648
1772795349109661700,3.20966162109375,0.002956633223220706,0.06601955741643906,-0.009482946246862411
1772795349119653400,3.2196533203125,0.00210080249235034,0.06926421821117401,-0.008409897796809673
1772795349129646600,3.229646484375,0.0008358010090887547,0.06553924828767776,-0.006523048505187035
1772795349139638500,3.239638427734375,-0.0003343538846820593,0.05451285466551781,-0.006808244623243809
1772795349149630500,3.24963037109375,-0.0035932641476392746,0.04390309005975723,-0.003530425950884819
1772795349159623400,3.25962353515625,-0.004867104347795248,0.02368864044547081,-0.0034205769188702106
1772795349169615600,3.26961572265625,-0.0057632578536868095,0.004940785001963377,-0.0004234552034176886
1772795349179608600,3.279608642578125,-0.002216193825006485,-0.01548619195818901,0.0022929690312594175
1772795349189600500,3.2896005859375,0.0014206189662218094,-0.03553846478462219,0.00574602372944355
1772795349199593500,3.299593505859375,0.0003152450080960989,-0.0465412512421608,0.004399833269417286
1772795349209585400,3.30958544921875,-0.0007391003891825676,-0.052963998168706894,0.002003787085413933
1772795349219578600,3.31957861328125,0.000757269561290741,-0.05436734855175018,0.004951986949890852
1772795349229570300,3.3295703125,-0.0007455522427335382,-0.04261455312371254,0.005990619771182537
1772795349239563500,3.3395634765625,0.0042330315336585045,-0.030238600447773933,0.005586918909102678
1772795349249555700,3.3495556640625,0.0017834559548646212,-0.013195434585213661,0.0063887969590723515
1772795349259548400,3.35954833984375,0.004658839665353298,-0.0015167673118412495,0.0009652619482949376
1772795349269540600,3.36954052734375,0.003416474675759673,0.011623003520071507,-0.003717107931151986
1772795349279532500,3.379532470703125,0.004905893933027983,0.017834138125181198,-0.005947675555944443
1772795349289525500,3.389525390625,0.004587113391608,0.02067173644900322,-0.0057348888367414474
1772795349299517400,3.399517333984375,0.0052004228346049786,0.015873076394200325,-0.003401829395443201
1772795349309510400,3.409510498046875,0.0052366419695317745,0.010884709656238556,-0.00392087921500206
1772795349319502600,3.419502685546875,0.00903582014143467,0.007043479010462761,0.0021203323267400265
1772795349329495600,3.42949560546875,0.008167630061507225,0.007695154286921024,0.004094533622264862
1772795349339487500,3.439487548828125,0.007556945085525513,0.004057827405631542,0.003102879272773862
1772795349349480400,3.44948046875,0.007004871964454651,0.0032586129382252693,0.0013140338705852628
1772795349359472600,3.45947265625,0.009167500771582127,0.007594194728881121,-0.0033600120805203915
1772795349369465600,3.469465576171875,0.009920376352965832,0.00686608674004674,-0.0074109467677772045
1772795349379457500,3.47945751953125,0.006332565099000931,0.008621109649538994,-0.006641825661063194
1772795349389450500,3.489450439453125,0.009203718975186348,0.011885346844792366,-0.0052010552026331425
1772795349399442400,3.4994423828125,0.00766256358474493,0.013687685132026672,-0.0012173624709248543
1772795349409434600,3.5094345703125,0.006756024435162544,0.015762288123369217,0.0021981417667120695
1772795349419427300,3.51942724609375,0.006585565395653248,0.01432054117321968,0.0043905857019126415
1772795349429419500,3.52941943359375,0.004055296536535025,0.011156439781188965,0.005414837505668402
1772795349439412500,3.53941259765625,0.0009546868968755007,0.009092889726161957,0.004605032503604889
1772795349449404400,3.549404296875,-0.0006461392622441053,0.0041937376372516155,0.003982118796557188
1772795349459397600,3.559397705078125,-0.0006168120307847857,0.00005500856786966324,0.004233261104673147
1772795349469389300,3.569389404296875,-0.0038408348336815834,0.0004915008321404457,0.0001242698053829372
1772795349479382500,3.579382568359375,-0.007028508931398392,0.0007182508707046509,0.0011095951776951551
1772795349489374500,3.58937451171875,-0.00809803418815136,-0.0030583778861910105,0.0006770977051928639
1772795349499367400,3.599367431640625,-0.008612138219177723,-0.007971580140292645,-0.0002281959750689566
1772795349509359600,3.609359619140625,-0.005892784334719181,-0.013461420312523842,0.001279153162613511
1772795349519352300,3.619352294921875,-0.005374761298298836,-0.016267972066998482,0.0022661478724330664
1772795349529344500,3.629344482421875,-0.005961455404758453,-0.018829666078090668,0.002946319291368127
1772795349539337500,3.63933740234375,-0.003903006436303258,-0.01974157616496086,0.00239976542070508
1772795349549329400,3.649329345703125,-0.005807699169963598,-0.0193032193928957,0.006853635888546705
1772795349559321300,3.6593212890625,-0.0033174529671669006,-0.016620397567749023,0.008693823590874672
1772795349569314600,3.669314453125,0.002099683042615652,-0.011170237325131893,0.006197908893227577
1772795349579306500,3.679306396484375,0.0011369339190423489,-0.0011561308056116104,0.0009566716616973281
1772795349589299500,3.689299560546875,0.0007249428890645504,0.010261107236146927,-0.0014753269497305155
1772795349599291600,3.699291748046875,0.0016773981042206287,0.021938135847449303,-0.0026963239070028067
1772795349609284400,3.709284423828125,0.004110994748771191,0.03161020204424858,-0.004595424048602581
1772795349619276500,3.719276611328125,0.0034695968497544527,0.040650706738233566,-0.0077505335211753845
1772795349629269500,3.72926953125,0.003666138043627143,0.04770195856690407,-0.009728729724884033
1772795349639261400,3.739261474609375,-0.0003902802709490061,0.0515303798019886,-0.010588868521153927
1772795349649254700,3.749254638671875,-0.0030129612423479557,0.05182413011789322,-0.007207452319562435
1772795349659246300,3.759246337890625,-0.0027339328080415726,0.042393364012241364,-0.005029553547501564
1772795349669239600,3.769239501953125,-0.004225036595016718,0.029180092737078667,-0.004913705866783857
1772795349679231500,3.7792314453125,-0.005428573116660118,0.010686235502362251,-0.0039934818632900715
1772795349689223400,3.789223388671875,-0.00253744563087821,-0.008051232434809208,0.0014297793386504054
1772795349699216600,3.799216552734375,-0.0012892549857497215,-0.027331005781888962,0.0039027859456837177
1772795349709208600,3.80920849609375,-0.00043331505730748177,-0.04465566948056221,0.0014793092850595713
1772795349719201500,3.819201416015625,-0.0005074812797829509,-0.059162020683288574,0.006665860302746296
1772795349729193500,3.829193359375,0.0030217396561056376,-0.06865299493074417,0.004676213022321463
1772795349739186400,3.8391865234375,0.005132404156029224,-0.07187741994857788,0.005481348372995853
1772795349749178400,3.849178466796875,0.0011174222454428673,-0.06577505171298981,0.00607762997969985
1772795349759171600,3.859171630859375,0.002081557409837842,-0.05772220343351364,0.004896019585430622
1772795349769163500,3.86916357421875,-0.005887419916689396,-0.04273499920964241,0.0042398166842758656
1772795349779156500,3.879156494140625,-0.0016419284511357546,-0.021651260554790497,0.001998858293518424
1772795349789148700,3.889148681640625,-0.005178606137633324,0.003052754793316126,-0.0009497936116531491
1772795349799141400,3.899141357421875,-0.0032389387488365173,0.02497045509517193,-0.004105470608919859
1772795349809133600,3.909133544921875,0.000060717808082699776,0.03919466584920883,-0.007910062558948994
1772795349819126500,3.91912646484375,0.004196448251605034,0.048216260969638824,-0.010516434907913208
1772795349829118500,3.929118408203125,0.0058904848992824554,0.0527777224779129,-0.010214964859187603
1772795349839110400,3.9391103515625,0.007651791907846928,0.05169660598039627,-0.008594760671257973
1772795349849103400,3.949103271484375,0.0013174633495509624,0.050782881677150726,-0.00418509915471077
1772795349859095600,3.959095458984375,0.0008397088386118412,0.04142816737294197,0.00010112827294506133
1772795349869088500,3.969088623046875,0.0011092207860201597,0.033025629818439484,0.001658012275584042
1772795349879080400,3.97908056640625,0.002509527141228318,0.020671403035521507,-0.0003786373417824507
1772795349889073700,3.98907373046875,0.0007166871801018715,0.004446360748261213,-0.0008550768834538758
1772795349899065600,3.999065673828125,0.0021974046248942614,-0.009493156336247921,-0.006228803191334009
1772795349909058600,4.00905859375,0.008201234973967075,-0.01915217563509941,-0.0032165017910301685
1772795349919050500,4.019050537109375,0.008882742375135422,-0.021716196089982986,-0.0027008894830942154
1772795349929043500,4.02904345703125,0.006940498948097229,-0.021868262439966202,-0.00044252892257645726
1772795349939035400,4.039035400390625,0.004184090066701174,-0.016998298466205597,0.0019300515996292233
1772795349949027600,4.049027587890625,0.005388637538999319,-0.008731047622859478,0.0012189876288175583
1772795349959020300,4.059020263671875,0.003960596863180399,0.002831531222909689,-0.0025966879911720753
1772795349969013000,4.069012939453125,0.003151262179017067,0.013001611456274986,-0.000519155990332365
1772795349979005700,4.079005615234375,0.00211550435051322,0.020343080163002014,-0.004613131284713745
1772795349988998000,4.088997802734375,0.00014902628026902676,0.026416419073939323,-0.004279703367501497
1772795349998990800,4.098990966796875,-0.0006370139308273792,0.025221237912774086,-0.0037580584175884724
1772795350008982800,4.108982666015625,-0.00199655769392848,0.024050245061516762,-0.001380388275720179
1772795350018976000,4.11897607421875,-0.001700452296063304,0.012754293158650398,-0.0010144978296011686
1772795350028968000,4.128968017578125,0.000861242413520813,0.0052694776095449924,-0.0031687289010733366
1772795350038961000,4.1389609375,0.003286517458036542,-0.0069500780664384365,0.0002600804145913571
1772795350048952800,4.148952880859375,0.006530247628688812,-0.023261407390236855,0.0039008879102766514
1772795350058945800,4.15894580078125,0.00616472028195858,-0.029638299718499184,0.0035162598360329866
1772795350068937700,4.168937744140625,0.004830476362258196,-0.03703442960977554,0.005750918295234442
1772795350078931000,4.178930908203125,0.003267886582762003,-0.04077158495783806,0.006119414232671261
1772795350088923000,4.1889228515625,0.0004744967445731163,-0.035454314202070236,0.006029399577528238
1772795350098914800,4.198914794921875,-0.003908707294613123,-0.02879832312464714,0.0048524742014706135
1772795350108908000,4.208907958984375,-0.006943645887076855,-0.01765672117471695,0.0036519207060337067
1772795350118899700,4.218899658203125,-0.006197069771587849,-0.006413428112864494,0.003471286268904805
1772795350128893000,4.228892822265625,-0.011013929732143879,0.0047952840104699135,-0.0001223832368850708
1772795350138884900,4.238884765625,-0.011025793850421906,0.012926153838634491,-0.0032895063050091267
1772795350148877800,4.2488779296875,-0.006546623073518276,0.018482040613889694,-0.0024527411442250013
1772795350158870000,4.2588701171875,-0.0018765904242172837,0.021126670762896538,-0.0025682258419692516
1772795350168862700,4.26886279296875,-0.0016163995023816824,0.017929546535015106,-0.002585003850981593
1772795350178855000,4.27885498046875,0.001803962280973792,0.012932838872075081,-0.0010728479828685522
1772795350188847900,4.288847900390625,0.0017347203101962805,0.010489387437701225,0.0005847035208716989
1772795350198839800,4.29883984375,0.0029541337862610817,0.005352412350475788,-0.00012969988165423274
1772795350208833000,4.3088330078125,0.002320567611604929,0.0035979226231575012,0.0014117377577349544
1772795350218825000,4.318824951171875,-0.0006239267531782389,0.0021544252522289753,0.0023464683908969164
1772795350228818000,4.32881787109375,0.0010314942337572575,0.005326516460627317,0.0009533688426017761
1772795350238809900,4.338809814453125,-0.004616821184754372,0.007067516446113586,0.002771640196442604
1772795350248802000,4.348802001953125,-0.004777410067617893,0.010712318122386932,0.0019159663934260607
1772795350258794800,4.358794677734375,-0.0035772686824202538,0.010637456551194191,-0.000060191377997398376
1772795350268787000,4.368786865234375,-0.0007950643775984645,0.013662274926900864,-0.0002396884374320507
1772795350278780000,4.37877978515625,0.0009804973378777504,0.009020742028951645,-0.0013211916666477919
1772795350288771800,4.388771728515625,0.002713948953896761,0.0022880039177834988,-0.004532430786639452
1772795350298765000,4.39876513671875,0.004697547294199467,-0.0022302716970443726,-0.00018849305342882872
1772795350308756700,4.4087568359375,0.000135818962007761,-0.001002554316073656,0.0010085977846756577
1772795350318750000,4.41875,-0.0013058586046099663,-0.0009499578736722469,0.00010971832671202719
1772795350328742000,4.428741943359375,-0.002182571217417717,-0.00028736330568790436,-0.0015526269562542439
1772795350338734800,4.43873486328125,-0.0020655011758208275,0.0023173419758677483,-0.0016123433597385883
1772795350348726800,4.448726806640625,-0.002139004413038492,0.004820713773369789,0.0009669280843809247
1772795350358719700,4.4587197265625,-0.002328741131350398,0.007776578888297081,-0.0018668510019779205
1772795350368712000,4.4687119140625,-0.00037904095370322466,0.006806389428675175,-0.00088973727542907
1772795350378704000,4.478703857421875,0.0003118375316262245,0.006923104636371136,-0.001365745672956109
1772795350388696800,4.48869677734375,0.000997068826109171,0.0013179490342736244,-0.0030065192840993404
1772795350398688800,4.498688720703125,0.0012138448655605316,-0.0040105730295181274,-0.001991878030821681
1772795350408682000,4.508681884765625,0.004109766334295273,-0.012061309069395065,-0.0004813330597244203
1772795350418673700,4.518673583984375,0.0078069837763905525,-0.018436115235090256,0.0014064402785152197
1772795350428667000,4.5286669921875,0.0029696179553866386,-0.020356256514787674,0.004335917532444
1772795350438659000,4.5386591796875,0.002958128694444895,-0.022380415350198746,0.006871218327432871
1772795350448651800,4.54865185546875,0.001399380387738347,-0.018336672335863113,0.003519895952194929
1772795350458644000,4.55864404296875,-0.001426815870217979,-0.01481490209698677,0.002536782994866371
1772795350468636700,4.56863671875,-0.0007221434498205781,-0.004033094737678766,0.00030452149803750217
1772795350478628900,4.57862890625,-0.00048349087592214346,0.005142910871654749,-0.005508622154593468
1772795350488621800,4.588621826171875,-0.0008709807880222797,0.013610964640974998,-0.00844395812600851
1772795350498613800,4.59861376953125,-0.00042790151201188564,0.01878817193210125,-0.006493759341537952
1772795350508606000,4.60860595703125,0.0018208716064691544,0.01805819943547249,-0.0023344343062490225
1772795350518599000,4.618598876953125,0.0035049624275416136,0.016222793608903885,-0.005211906041949987
1772795350528590800,4.6285908203125,0.004838407039642334,0.012062937021255493,-0.0004576309002004564
1772795350538583800,4.638583740234375,0.004338428378105164,0.010518768802285194,-0.0027668976690620184
1772795350548576000,4.648575927734375,0.0038177804090082645,0.007972786203026772,-0.0020417189225554466
1772795350558569000,4.65856884765625,0.0025424251798540354,0.0024939533323049545,-0.0028587710112333298
1772795350568561000,4.668560791015625,0.0012792879715561867,0.0037219366058707237,-0.0016427715308964252
1772795350578553900,4.678553955078125,-0.0004517452325671911,0.0037714513018727303,0.000714018358848989
1772795350588545800,4.6885458984375,-0.004571123048663139,0.003168778494000435,0.00219926331192255
1772795350598538800,4.698538818359375,-0.0050069410353899,0.0023359619081020355,0.0025245030410587788
1772795350608530700,4.70853076171875,-0.0035427347756922245,-0.001770099624991417,-0.0037413821555674076
1772795350618524000,4.71852392578125,-0.005027963314205408,-0.0031225422862917185,-0.0008988546906039119
1772795350628515800,4.728515869140625,-0.0033403183333575726,-0.007927684113383293,-0.0020235078409314156
1772795350638507800,4.7385078125,0.0006741853430867195,-0.009666661731898785,0.0030904586892575026
1772795350648501000,4.7485009765625,0.005615946836769581,-0.013953285291790962,0.0009660550858825445
1772795350658493000,4.758492919921875,0.00498947873711586,-0.016335170716047287,0.000985836493782699
1772795350668486000,4.76848583984375,0.005346875172108412,-0.020004741847515106,-0.0005947495228610933
1772795350678477800,4.778477783203125,0.00622613076120615,-0.018840916454792023,-0.0015091884415596724
1772795350688470800,4.788470703125,0.007907917723059654,-0.014580124989151955,-0.002974992385134101
1772795350698463000,4.798462890625,0.007841088809072971,-0.009227529168128967,-0.0024598012678325176
1772795350708455700,4.80845556640625,0.007443479262292385,-0.00470068771392107,-0.00267045758664608
1772795350718447900,4.81844775390625,0.004348140675574541,0.001256604678928852,-0.0016545633552595973
1772795350728440800,4.82844091796875,0.0031886002980172634,0.007662040181457996,-0.003799207042902708
1772795350738432800,4.838432861328125,0.0010805332567542791,0.013865835964679718,-0.004292761906981468
1772795350748426000,4.848426025390625,-0.004375484772026539,0.015899160876870155,-0.00225704163312912
1772795350758418000,4.85841796875,-0.0034169089049100876,0.014915448613464832,-0.0030402399133890867
1772795350768409900,4.868409912109375,-0.000954550108872354,0.013920226134359837,-0.002784842625260353
1772795350778402800,4.87840283203125,0.001031015533953905,0.007520230486989021,-0.0027282864321023226
1772795350788395000,4.88839501953125,0.0014299571048468351,0.0010972190648317337,-0.0023413291200995445
1772795350798387700,4.8983876953125,0.0027338520158082247,-0.009833885356783867,-0.0012000517453998327
1772795350808380000,4.9083798828125,0.004880359396338463,-0.018496349453926086,-0.00037154240999370813
1772795350818372900,4.918372802734375,0.006024775095283985,-0.022118713706731796,0.0027538409922271967
1772795350828364800,4.92836474609375,0.00043852790258824825,-0.028332669287919998,0.0015871101059019566
1772795350838358000,4.93835791015625,-0.0004052442964166403,-0.031832676380872726,0.0028815276455134153
1772795350848349700,4.948349609375,-0.0007953974418342113,-0.034716878086328506,0.003079933114349842
1772795350858343000,4.958343017578125,-0.003919376526027918,-0.03372135013341904,0.00436018593609333
1772795350868334800,4.9683349609375,-0.001828262466005981,-0.0320155993103981,0.002544442657381296
1772795350878327800,4.978327880859375,-0.004484890028834343,-0.02958923578262329,0.004720047116279602
1772795350888320000,4.988320068359375,-0.0020004273392260075,-0.022585920989513397,0.0025759360287338495
1772795350898312000,4.99831201171875,-0.0017038763035088778,-0.016610631719231606,0.0021983676124364138
1772795350908305000,5.008304931640625,0.0009664753451943398,-0.0031968227121979,0.0009623945225030184
1772795350918296800,5.018296875,-0.000050814589485526085,0.010856570675969124,-0.002792100887745619
1772795350928289800,5.028289794921875,0.002341769402846694,0.024354536086320877,-0.003771611489355564
1772795350938281700,5.03828173828125,0.0018348614685237408,0.03701826184988022,-0.005896877031773329
1772795350948275000,5.04827490234375,0.0010500280186533928,0.04345698654651642,-0.008432739414274693
1772795350958267000,5.058266845703125,0.0040352363139390945,0.049887433648109436,-0.008163725957274437
1772795350968259300,5.06825927734375,0.002857053419575095,0.05037692189216614,-0.005850504152476788
1772795350978251500,5.07825146484375,0.0003521216567605734,0.043905068188905716,-0.0034791966900229454
1772795350988244200,5.088244140625,-0.0016995775513350964,0.03678830340504646,-0.002405143342912197
1772795350998236400,5.098236328125,-0.005671204067766666,0.025431448593735695,0.00030578961013816297
1772795351008229400,5.1082294921875,-0.006957510486245155,0.009790705516934395,-0.0007477569160982966
1772795351018221300,5.11822119140625,-0.0067011695355176926,-0.003272333415225148,0.0009924466721713543
1772795351028213500,5.128213623046875,-0.004718446172773838,-0.020350387319922447,0.0021860755514353514
1772795351038206500,5.13820654296875,-0.005946096032857895,-0.03236640244722366,-0.0020081293769180775
1772795351048198400,5.148198486328125,-0.0024845192674547434,-0.03741948679089546,0.0008843299583531916
1772795351058191400,5.15819140625,-0.003685996402055025,-0.03817400336265564,0.002236751141026616
1772795351068183300,5.168183349609375,-0.0014537349343299866,-0.03184580057859421,0.0023398154880851507
1772795351078176500,5.178176513671875,-0.00333108427003026,-0.022960318252444267,0.0019452315755188465
1772795351088168400,5.18816845703125,-0.004891163669526577,-0.008682046085596085,-0.0015307263238355517
1772795351098161400,5.198161376953125,-0.006095727905631065,-0.00200327904894948,-0.003991089761257172
1772795351108153300,5.2081533203125,-0.004327921662479639,0.007379037328064442,-0.005150363780558109
1772795351118146300,5.218146240234375,-0.0017624115571379662,0.01331963762640953,-0.0024635978043079376
1772795351128138200,5.22813818359375,0.0011489561293274164,0.014552148059010506,-0.006632243748754263
1772795351138131500,5.23813134765625,0.005454075522720814,0.01350364089012146,-0.0028458512388169765
1772795351148123400,5.248123291015625,0.00961126945912838,0.007325373124331236,-0.001580317271873355
1772795351158115300,5.258115234375,0.012285180389881134,-0.001822022721171379,-0.000987013801932335
1772795351168108500,5.268108642578125,0.011037755757570267,-0.00976676493883133,0.0011597604025155306
1772795351178100200,5.278100341796875,0.011593802832067013,-0.011519644409418106,0.0023175415117293596
1772795351188093400,5.288093505859375,0.009663810022175312,-0.014020085334777832,0.000046397733967751265
1772795351198085400,5.29808544921875,0.007746350951492786,-0.01299725566059351,0.005273253656923771
1772795351208078300,5.308078369140625,0.002151582157239318,-0.005011767148971558,0.002300366759300232
1772795351218070500,5.318070556640625,0.0009460558649152517,-0.000014722347259521484,0.002347941044718027
1772795351228063200,5.328063232421875,-0.0029019454959779978,0.009305009618401527,-0.0007130962912924588
1772795351238055400,5.338055419921875,-0.0057730237022042274,0.012199914082884789,-0.0013953405432403088
1772795351248048400,5.34804833984375,-0.002925305860117078,0.013908864930272102,-0.00349311251193285
1772795351258040300,5.358040283203125,-0.0013125166296958923,0.014008751139044762,-0.0015608826652169228
1772795351268033500,5.368033447265625,-0.0008781549986451864,0.00641794316470623,-0.004006995819509029
1772795351278025500,5.378025390625,-0.0024832917843014,0.0003914809785783291,-0.0026033842004835606
1772795351288017400,5.388017333984375,0.0014001296367496252,-0.01150592416524887,-0.0008779219933785498
1772795351298010400,5.39801025390625,-0.000017861835658550262,-0.019267752766609192,0.001717129722237587
1772795351308002600,5.40800244140625,-0.0010937789920717478,-0.025230571627616882,0.005370986647903919
1772795351317995300,5.417995361328125,-0.002474132925271988,-0.029069408774375916,0.0047041019424796104
1772795351327987500,5.427987548828125,-0.004476830363273621,-0.02963639609515667,0.004511821549385786
1772795351337980400,5.43798046875,-0.0039207953959703445,-0.02347978577017784,0.004293171688914299
1772795351347972400,5.447972412109375,-0.0037032151594758034,-0.015816805884242058,0.004389844369143248
1772795351357965600,5.457965576171875,-0.003925751429051161,-0.007057873532176018,0.0024164803326129913
1772795351367957200,5.467957275390625,-0.004201655276119709,-0.0003666812554001808,-0.0019558975473046303
1772795351377950500,5.477950439453125,-0.0039220936596393585,0.010536588728427887,-0.001239274744875729
1772795351387942400,5.4879423828125,-0.0023771938867866993,0.015698594972491264,-0.00215726625174284
1772795351397935400,5.497935302734375,-0.0012343775015324354,0.022734466940164566,-0.002212229184806347
1772795351407927600,5.507927490234375,0.0011699243914335966,0.026767024770379066,-0.0010630751494318247
1772795351417920300,5.517920166015625,-0.00210523116402328,0.03228136897087097,-0.00007317820563912392
1772795351427912400,5.527912353515625,-0.0019425121136009693,0.037521399557590485,-0.00157307053450495
1772795351437904400,5.537904296875,-0.0018129742238670588,0.03836096450686455,-0.002781815826892853
1772795351447897300,5.5478974609375,-0.00479145348072052,0.03079705685377121,-0.00314933224581182
1772795351457889300,5.55788916015625,-0.0030855743680149317,0.028230348601937294,-0.0003911636886186898
1772795351467882500,5.567882568359375,-0.0036831877660006285,0.024437474086880684,-0.0005568123306147754
1772795351477874400,5.57787451171875,-0.008448864333331585,0.019143903627991676,0.0021203369833528996
1772795351487867400,5.587867431640625,-0.007098108530044556,0.012643393129110336,0.006999780889600515
1772795351497859600,5.597859619140625,-0.009028476662933826,0.008417090401053429,0.00542712165042758
1772795351507852300,5.607852294921875,-0.008470278233289719,-0.0015713619068264961,0.007137936539947987
1772795351517844500,5.617844482421875,-0.00862935185432434,-0.008993672206997871,0.004171296488493681
1772795351527837400,5.62783740234375,-0.010069589130580425,-0.017677973955869675,0.002731325337663293
1772795351537829400,5.637829345703125,-0.004987428896129131,-0.033771198242902756,0.002131454413756728
1772795351547821600,5.647821533203125,0.0006683263927698135,-0.04427550733089447,-0.0003311706823296845
1772795351557814300,5.657814208984375,0.003913958556950092,-0.05348881706595421,0.0009370559128001332
1772795351567806500,5.667806396484375,0.010644830763339996,-0.05749128386378288,0.004022594541311264
1772795351577799400,5.67779931640625,0.012660360895097256,-0.052517034113407135,0.009196723811328411
1772795351587791400,5.687791259765625,0.009419560432434082,-0.038248613476753235,0.013410910032689571
1772795351597784600,5.69778466796875,0.006594658829271793,-0.017107533290982246,0.011546527966856956
1772795351607776500,5.707776611328125,0.0003535407595336437,0.008536044508218765,0.006879071705043316
1772795351617769500,5.71776953125,-0.003329165745526552,0.0276174396276474,-0.0009915377013385296
1772795351627761400,5.727761474609375,-0.007470647804439068,0.047879837453365326,-0.008242526091635227
1772795351637754400,5.73775439453125,-0.006005147472023964,0.05991476774215698,-0.012593894265592098
1772795351647746300,5.747746337890625,-0.0029550292529165745,0.058712080121040344,-0.01245594210922718
1772795351657739500,5.757739501953125,0.002751912921667099,0.05001693218946457,-0.004732611123472452
1772795351667731500,5.7677314453125,0.003051518462598324,0.04118109494447708,-0.00022734131198376417
1772795351677723400,5.777723388671875,0.000787797849625349,0.023958083242177963,0.0025556576438248158
1772795351687716600,5.787716552734375,-0.0011629676446318626,0.004596369341015816,0.0011758740292862058
1772795351697708300,5.797708251953125,0.001010987674817443,-0.011205854825675488,-0.0005707582458853722
1772795351707701500,5.807701416015625,0.0015734473709017038,-0.024412203580141068,-0.0003691568854264915
1772795351717693400,5.817693359375,0.004911595024168491,-0.03532188758254051,0.0018096427666023374
1772795351727686400,5.827686279296875,0.009362269192934036,-0.037868671119213104,-0.0020538049284368753
1772795351737678300,5.83767822265625,0.012464993633329868,-0.04012414813041687,0.000897844263818115
1772795351747671300,5.84767138671875,0.011192003265023232,-0.033834293484687805,-0.0004736836417578161
1772795351757663500,5.85766357421875,0.009722345508635044,-0.0262089092284441,0.0020880787633359432
1772795351767656400,5.867656494140625,0.006838141940534115,-0.01759890839457512,0.0002499649708624929
1772795351777648400,5.8776484375,0.001972796395421028,-0.006013268604874611,-0.0012271597515791655
1772795351787641600,5.8876416015625,-0.0034968035761266947,0.008829859085381031,-0.004490597173571587
1772795351797633500,5.897633544921875,-0.0019312725635245442,0.014714159071445465,-0.004302113316953182
1772795351807625200,5.907625244140625,-0.005894056521356106,0.020986169576644897,-0.006444360129535198
1772795351817618400,5.917618408203125,-0.005789644084870815,0.022189028561115265,-0.0021743783727288246
1772795351827610400,5.9276103515625,-0.0012308446457609534,0.01783555932343006,-0.0032127448357641697
1772795351837603300,5.937603271484375,0.0019861997570842505,0.010838303714990616,-0.0023987810127437115
1772795351847595500,5.947595458984375,0.003707134397700429,-0.0018340833485126495,0.0009842325234785676
1772795351857588200,5.957588134765625,0.004292426630854607,-0.015463054180145264,-0.0015450055943802
1772795351867580400,5.967580322265625,0.00389108806848526,-0.029717355966567993,0.0031032757833600044
1772795351877573400,5.977573486328125,-0.0006529552629217505,-0.03995787352323532,0.002048194408416748
1772795351887565300,5.9875654296875,-0.002680686069652438,-0.0441741906106472,0.0014268788509070873
1772795351897558500,5.99755859375,-0.005074193701148033,-0.042199499905109406,0.005630480125546455
1772795351907550200,6.00755029296875,-0.004631576593965292,-0.03526516258716583,0.008620943874120712
1772795351917543400,6.01754345703125,-0.005094911903142929,-0.025421252474188805,0.00579576101154089
1772795351927535400,6.027535400390625,-0.0047249989584088326,-0.011351507157087326,0.001487831468693912
1772795351937527300,6.03752734375,-0.0022019746247678995,0.003933638334274292,0.0004764643672388047
1772795351947520500,6.0475205078125,-0.0033876141533255577,0.01594981923699379,-0.0030154723208397627
1772795351957512400,6.057512451171875,0.00021342490799725056,0.02141553908586502,-0.004753886256366968
1772795351967505700,6.067505615234375,-0.0006054970435798168,0.028189554810523987,-0.005299834534525871
1772795351977497600,6.07749755859375,-0.0023767459206283092,0.03253582492470741,-0.0019123973324894905
1772795351987490600,6.087490478515625,-0.004905683919787407,0.030919019132852554,-0.00268364860676229
1772795351997482500,6.097482421875,-0.007500708568841219,0.026042265817523003,-0.0014373458689078689
1772795352007475700,6.107475830078125,-0.010865878313779831,0.0214653592556715,0.00039384368574246764
1772795352017467400,6.11746728515625,-0.009111650288105011,0.01105167344212532,0.0019089411944150925
1772795352027460600,6.127460693359375,-0.010354814119637012,0.005215357523411512,0.002393370261415839
1772795352037452800,6.137452880859375,-0.0044340575113892555,-0.006591593846678734,0.0004459353513084352
1772795352047445500,6.147445556640625,-0.002891021780669689,-0.01667911559343338,0.00008374545723199844
1772795352057437700,6.157437744140625,0.004196960479021072,-0.02379772625863552,0.0035403682850301266
1772795352067429600,6.1674296875,0.00498206028714776,-0.02914988249540329,0.0030596680007874966
1772795352077422600,6.177422607421875,0.0057463375851511955,-0.02600361779332161,0.0024363482370972633
1772795352087414500,6.18741455078125,0.007735186256468296,-0.018197892233729362,0.003009460400789976
1772795352097407500,6.197407470703125,0.008843752555549145,-0.004070226103067398,-0.0010364773916080594
1772795352107399700,6.207399658203125,0.006528666242957115,0.008168064057826996,-0.0022894947323948145
1772795352117392600,6.217392578125,0.007949926890432835,0.017803750932216644,-0.006187569350004196
1772795352127384600,6.227384521484375,0.006531793624162674,0.024735160171985626,-0.009795354679226875
1772795352137377500,6.23737744140625,0.008631057105958462,0.029894893988966942,-0.006922400556504726
1772795352147369700,6.24736962890625,0.006515974178910255,0.02880113385617733,-0.00361821660771966
1772795352157362700,6.25736279296875,0.0039673252031207085,0.026226049289107323,-0.003265906125307083
1772795352167354600,6.267354736328125,0.0010919102933257818,0.02145792357623577,-0.003118101041764021
1772795352177347600,6.27734765625,0.002319328486919403,0.009413160383701324,0.0014558734837919474
1772795352187339500,6.287339599609375,-0.0004716644762083888,-0.00022135814651846886,0.0036045117303729057
1772795352197331700,6.297331787109375,-0.0015762732364237309,-0.012293489649891853,0.00362478569149971
1772795352207324400,6.307324462890625,0.0010855563450604677,-0.015383023768663406,0.017745666205883026
1772795352217316600,6.317316650390625,-0.0066550965420901775,-0.0022944207303225994,0.05146200954914093
1772795352227309800,6.327309814453125,-0.0077589768916368484,0.011557744815945625,0.0756286010146141
1772795352237301500,6.337301513671875,0.0005146116018295288,0.016422204673290253,0.06537792831659317
1772795352247294700,6.347294677734375,0.011342225596308708,0.011558473110198975,0.01371899526566267
1772795352257286700,6.35728662109375,0.019884934648871422,-0.0016320114955306053,-0.05586470663547516
1772795352267279600,6.367279541015625,0.01268720906227827,-0.0053372676484286785,-0.09796316176652908
1772795352277271600,6.377271484375,-0.006665500812232494,-0.00588480057194829,-0.10224033147096634
1772795352287264500,6.387264404296875,-0.01779484935104847,-0.0009608818218111992,-0.05244028568267822
1772795352297256700,6.397256591796875,-0.014264672063291073,0.005493946839123964,0.0027952075470238924
