time,seconds_elapsed,z,y,x
1772721559386992600,0.09299267578125,0,0,0
1772721559405588700,0.111588623046875,-0.3848543167114258,-0.0030160248279571533,0.2357437014579773
1772721559424184800,0.130184814453125,-0.5777568817138672,0.04176288843154907,0.6369481086730957
1772721559442781000,0.148781005859375,-0.36417293548583984,-0.1712774634361267,0.46483081579208374
1772721559461377000,0.167376953125,0.28769874572753906,-0.4543173909187317,0.16664046049118042
1772721559479973000,0.18597314453125,0.2286968231201172,-0.924956202507019,0.11804598569869995
1772721559498569200,0.2045693359375,0.4744091033935547,-1.2827708721160889,0.4398041367530823
1772721559517165300,0.223165283203125,0.6144914627075195,-0.9059907793998718,0.1997532844543457
1772721559535761400,0.241761474609375,0.9000186920166016,-0.6716650724411011,0.15105009078979492
1772721559554357500,0.260357421875,0.5217132568359375,-1.0308799743652344,0.6694718599319458
1772721559572953600,0.27895361328125,-0.3343067169189453,-1.4920196533203125,1.2374674081802368
1772721559591549700,0.2975498046875,-0.026195526123046875,-0.5842288136482239,0.2444915771484375
1772721559610146000,0.31614599609375,0.677067756652832,0.20042279362678528,-0.6129511594772339
1772721559628742000,0.334741943359375,0.5225601196289062,-0.13386380672454834,-0.018376708030700684
1772721559647338200,0.353338134765625,0.603851318359375,-0.623129665851593,-0.5984402894973755
1772721559665934300,0.371934326171875,-0.07895946502685547,-0.7803847789764404,0.9029186964035034
1772721559684530200,0.3905302734375,0.5369997024536133,-0.41727161407470703,2.3038887977600098
1772721559703126500,0.40912646484375,-0.5012474060058594,0.8288717865943909,2.1168437004089355
1772721559721722600,0.42772265625,-2.44558048248291,1.061582088470459,0.923041045665741
1772721559740318700,0.446318603515625,-3.601656436920166,1.0038073062896729,0.6953597068786621
1772721559758914800,0.464914794921875,-3.2476019859313965,0.9721153974533081,0.20090527832508087
1772721559777511000,0.483510986328125,-3.9170937538146973,0.7284504175186157,-0.2796540856361389
1772721559796107000,0.50210693359375,-3.2488231658935547,0.4619988203048706,0.12260125577449799
1772721559814703000,0.520703125,-2.0321950912475586,-0.07564198970794678,0.7344146966934204
1772721559833299200,0.53929931640625,-1.5435223579406738,-0.2654713988304138,0.7418459057807922
1772721559851895300,0.557895263671875,-0.9917316436767578,-0.3938128352165222,0.1782069057226181
1772721559870491400,0.576491455078125,-1.4813933372497559,-0.2328416407108307,-0.151542067527771
1772721559889087500,0.59508740234375,-2.287787437438965,0.3618541657924652,0.29673972725868225
1772721559907683600,0.61368359375,-2.2654366493225098,1.046586036682129,0.38110193610191345
1772721559926279700,0.63227978515625,-1.4552888870239258,1.6451891660690308,0.8395588397979736
1772721559944875800,0.650875732421875,1.651656150817871,2.0711886882781982,1.7246291637420654
1772721559963472000,0.669471923828125,4.529437065124512,1.499126672744751,1.2361341714859009
1772721559982068200,0.688068115234375,5.676616668701172,2.8964343070983887,-1.198767066001892
1772721560000664000,0.7066640625,8.950641632080078,5.524885654449463,-2.808837890625
1772721560019260400,0.725260498046875,16.437179565429688,5.63493013381958,-3.792898178100586
1772721560037856500,0.7438564453125,20.674617767333984,1.840964913368225,-1.1369893550872803
1772721560056452600,0.76245263671875,20.425859451293945,-0.43237242102622986,0.9778590798377991
1772721560075048700,0.781048583984375,17.36607551574707,-1.3915480375289917,1.0376684665679932
1772721560093644800,0.799644775390625,9.68283462524414,-0.2701951265335083,0.6545543670654297
1772721560112241000,0.818240966796875,2.0388736724853516,1.0263303518295288,-1.1141620874404907
1772721560130837000,0.8368369140625,-1.0615482330322266,0.4542132616043091,-0.9183650612831116
1772721560149433000,0.85543310546875,-4.086737632751465,-0.46162962913513184,0.7920251488685608
1772721560168029200,0.874029296875,-6.686068534851074,-1.555856704711914,1.473024845123291
1772721560186625300,0.892625244140625,-6.970736503601074,-2.6236844062805176,1.8839393854141235
1772721560205221400,0.911221435546875,-6.992189407348633,-3.337510585784912,1.1083046197891235
1772721560223817500,0.9298173828125,-8.020475387573242,-3.2302112579345703,-0.11578807234764099
1772721560242413600,0.94841357421875,-9.196803092956543,-2.852790594100952,-0.7020965218544006
1772721560261009700,0.967009765625,-9.557233810424805,-2.476855754852295,-0.25383296608924866
1772721560279605800,0.985605712890625,-9.86931324005127,-2.206268787384033,0.6584858298301697
1772721560298201900,1.004201904296875,-10.440055847167969,-1.9853947162628174,1.406751275062561
1772721560316798000,1.0227978515625,-10.41678237915039,-1.790946125984192,1.4448834657669067
1772721560335394000,1.04139404296875,-9.977783203125,-1.77484929561615,1.213077187538147
1772721560353990100,1.059990234375,-9.317959785461426,-1.4646579027175903,1.6669471263885498
1772721560372586200,1.078586181640625,-8.40923023223877,-1.073970079421997,2.1835739612579346
1772721560391182600,1.0971826171875,-7.237936019897461,-0.5709215402603149,1.8271864652633667
1772721560409778400,1.1157783203125,-6.252334117889404,-0.4940367341041565,1.8433830738067627
1772721560428374800,1.134374755859375,-3.1451244354248047,-0.9748456478118896,1.615526795387268
1772721560446971000,1.152970947265625,0.8813629150390625,-1.924279808998108,1.8577933311462402
1772721560465567000,1.17156689453125,2.8599424362182617,-1.9344172477722168,2.413431167602539
1772721560484163000,1.1901630859375,3.5374956130981445,-1.349868655204773,2.1252200603485107
1772721560502759200,1.20875927734375,6.525713920593262,-0.4987443685531616,1.1111154556274414
1772721560521355300,1.227355224609375,11.09221363067627,-0.2459779977798462,0.5459691286087036
1772721560539951400,1.245951416015625,15.939507484436035,-1.3436084985733032,0.2246343493461609
1772721560558547500,1.26454736328125,18.419322967529297,-1.430230736732483,-0.8561654090881348
1772721560577143600,1.2831435546875,17.477230072021484,-0.41719186305999756,-2.8924176692962646
1772721560595739600,1.30173974609375,15.167635917663574,0.467365562915802,-3.6227521896362305
1772721560614335700,1.320335693359375,10.128591537475586,0.9576278924942017,-2.073617458343506
1772721560632931800,1.338931884765625,4.410121917724609,1.690250039100647,-0.26827272772789
1772721560651528000,1.35752783203125,0.9454917907714844,1.0476903915405273,0.05095648765563965
1772721560670124000,1.3761240234375,-1.59014892578125,0.5813379883766174,0.08221149444580078
1772721560688720100,1.39472021484375,-2.875706195831299,0.1857389360666275,0.008974462747573853
1772721560707316200,1.413316162109375,-1.9505424499511719,-0.651868999004364,-1.390071153640747
1772721560725912300,1.431912353515625,-2.706118106842041,-1.2651439905166626,-3.12430477142334
1772721560744508400,1.45050830078125,-5.319549560546875,-1.0204222202301025,-3.278848648071289
1772721560763104500,1.4691044921875,-8.536645889282227,-0.2734384834766388,-1.871347188949585
1772721560781700600,1.48770068359375,-11.078530311584473,0.4956305921077728,-0.2844475507736206
1772721560800296700,1.506296630859375,-12.488805770874023,0.6725418567657471,0.8218445777893066
1772721560818892800,1.524892822265625,-13.045818328857422,0.5350011587142944,1.2312750816345215
1772721560837489000,1.543489013671875,-13.157148361206055,0.3256978988647461,1.3881683349609375
1772721560856085000,1.5620849609375,-11.534018516540527,-0.058803439140319824,1.8624088764190674
1772721560874681000,1.58068115234375,-9.525321006774902,-0.5044944286346436,2.0866732597351074
1772721560893277200,1.599277099609375,-6.861225128173828,-0.8162371516227722,2.3211591243743896
1772721560911873500,1.61787353515625,-2.6075472831726074,-1.1037788391113281,2.530916690826416
1772721560930469400,1.636469482421875,3.4389209747314453,-1.9214144945144653,1.065422773361206
1772721560949065700,1.655065673828125,6.181611061096191,-1.9581444263458252,-1.7581839561462402
1772721560967661600,1.67366162109375,7.1759033203125,-0.04506409168243408,-2.979735851287842
1772721560986258000,1.6922578125,8.256915092468262,1.493550419807434,-2.099085807800293
1772721561004853800,1.710853759765625,9.654557228088379,0.531248927116394,-0.06826239824295044
1772721561023450000,1.7294501953125,9.668333053588867,-0.5618553161621094,0.48817282915115356
1772721561042046200,1.748046142578125,8.934286117553711,-0.6141418218612671,-0.31103432178497314
1772721561060642300,1.766642333984375,8.758434295654297,-0.718233585357666,0.006475001573562622
1772721561079238400,1.78523828125,7.624021530151367,-0.2692602872848511,0.5510187149047852
1772721561097834200,1.803834228515625,8.024023056030273,-0.8024653196334839,0.7349727153778076
1772721561116430600,1.8224306640625,7.220226287841797,-1.2892944812774658,0.5169472098350525
1772721561135026400,1.8410263671875,4.596802711486816,-1.3130251169204712,0.23312318325042725
1772721561153622800,1.859622802734375,1.359095573425293,-1.5107160806655884,-0.09314626455307007
1772721561172219000,1.878218994140625,-1.4997539520263672,-1.5330791473388672,0.26120662689208984
1772721561190815000,1.89681494140625,-3.9199342727661133,-1.6494193077087402,-0.017414629459381104
1772721561209411000,1.9154111328125,-5.948661804199219,-1.974927306175232,-0.30497562885284424
1772721561228007200,1.934007080078125,-6.39100456237793,-2.299381971359253,-0.047509729862213135
1772721561246603300,1.952603271484375,-6.396973609924316,-2.249887466430664,0.33008721470832825
1772721561265199400,1.971199462890625,-7.052342891693115,-1.7694413661956787,0.5532563924789429
1772721561283795500,1.98979541015625,-8.8523588180542,-1.341841459274292,0.7894283533096313
1772721561302391600,2.0083916015625,-11.195777893066406,-1.3777999877929688,0.6994103193283081
1772721561320987600,2.026987548828125,-12.987998962402344,-1.6466114521026611,0.37757623195648193
1772721561339583700,2.045583740234375,-13.122665405273438,-2.0633952617645264,0.29236114025115967
1772721561358179800,2.064179931640625,-10.609066009521484,-2.6187400817871094,0.7099664211273193
1772721561376776000,2.08277587890625,-6.303727626800537,-3.8454790115356445,1.1843478679656982
1772721561395372000,2.1013720703125,-2.35532283782959,-5.042665004730225,1.3155628442764282
1772721561413968100,2.119968017578125,-0.8194150924682617,-5.157073974609375,-0.3377807140350342
1772721561432564200,2.138564208984375,2.587940216064453,-3.8947489261627197,-2.259915351867676
1772721561451160300,2.157160400390625,7.056662559509277,-1.2364592552185059,-4.506339073181152
1772721561469756400,2.17575634765625,10.9354248046875,0.6873047947883606,-4.348425388336182
1772721561488352500,2.1943525390625,14.826991081237793,-2.1397225856781006,-2.5142273902893066
1772721561506948600,2.212948486328125,18.094444274902344,-3.5713469982147217,-5.06071662902832
1772721561525544700,2.231544677734375,17.786998748779297,-2.9073758125305176,-8.824485778808594
1772721561544140800,2.250140869140625,13.53429126739502,-1.2760851383209229,-7.552933692932129
1772721561562737000,2.26873681640625,8.830674171447754,0.4557168483734131,-6.855361461639404
1772721561581333000,2.2873330078125,6.53463077545166,0.663963794708252,-5.641900539398193
1772721561599929000,2.30592919921875,5.503150939941406,-0.031887054443359375,-2.845008373260498
1772721561618525200,2.324525146484375,1.0120296478271484,-0.04623758792877197,-0.2954808175563812
1772721561637121300,2.343121337890625,-4.078763961791992,-0.03236377239227295,0.18868255615234375
1772721561655717400,2.36171728515625,-7.1120195388793945,-0.19812607765197754,-0.3075839579105377
1772721561674313500,2.3803134765625,-9.019989967346191,-0.2669312059879303,-1.5108671188354492
1772721561692909600,2.39890966796875,-9.897489547729492,-0.2657017409801483,-1.6287250518798828
1772721561711505700,2.417505615234375,-9.332768440246582,-0.08744761347770691,-0.4639928340911865
1772721561730101800,2.436101806640625,-7.153965950012207,-0.4070957899093628,0.9023751616477966
1772721561748697900,2.45469775390625,-5.2394866943359375,-0.5934879779815674,1.315175175666809
1772721561767294000,2.4732939453125,-6.228004455566406,-0.8987742066383362,0.9378317594528198
1772721561785890000,2.49189013671875,-8.927069664001465,-1.0072524547576904,0.9284458756446838
1772721561804486100,2.510486083984375,-10.290199279785156,-1.0197256803512573,1.300260305404663
1772721561823082200,2.529082275390625,-10.394060134887695,-1.3122336864471436,1.2090704441070557
1772721561841678300,2.54767822265625,-9.342865943908691,-1.9290177822113037,1.0283920764923096
1772721561860274400,2.5662744140625,-5.650012493133545,-3.2284977436065674,0.5136802196502686
1772721561878870500,2.58487060546875,-0.6341743469238281,-3.980278968811035,-0.2493998110294342
1772721561897466600,2.603466552734375,0.9660501480102539,-4.35983943939209,-0.803433358669281
1772721561916062700,2.622062744140625,0.7104291915893555,-3.4127211570739746,-1.609841227531433
1772721561934658800,2.640658935546875,3.3533620834350586,-0.9719964861869812,-1.683606505393982
1772721561953255000,2.6592548828125,6.942256927490234,-0.6461259126663208,-1.7256553173065186
1772721561971851000,2.67785107421875,11.902445793151855,-2.372950315475464,-1.744675636291504
1772721561990447000,2.696447021484375,13.236391067504883,-2.3589677810668945,-2.786071300506592
1772721562009043200,2.715043212890625,13.330873489379883,-2.2174882888793945,-4.564115524291992
1772721562027639300,2.733639404296875,14.739625930786133,-1.9142425060272217,-4.426868915557861
1772721562046235400,2.7522353515625,17.86542510986328,-2.3150219917297363,-4.219852924346924
1772721562064831500,2.77083154296875,16.87181854248047,-2.5056326389312744,-2.8035354614257812
1772721562083427600,2.789427490234375,11.66823673248291,-1.7883073091506958,-1.2319949865341187
1772721562102023700,2.808023681640625,3.8776350021362305,-0.6245505213737488,1.0182777643203735
1772721562120619800,2.826619873046875,-3.2222776412963867,-0.15363934636116028,1.4558073282241821
1772721562139216000,2.8452158203125,-7.482995986938477,-0.5539934039115906,0.19500231742858887
1772721562157812000,2.86381201171875,-9.97658634185791,-1.6911808252334595,0.3193000853061676
1772721562176408000,2.882407958984375,-11.326375961303711,-2.2629926204681396,0.9657709002494812
1772721562195004200,2.901004150390625,-12.701571464538574,-2.4010894298553467,1.1271660327911377
1772721562213600300,2.919600341796875,-13.966136932373047,-2.4324264526367188,0.3347552418708801
1772721562232196400,2.9381962890625,-14.797101974487305,-2.3763632774353027,0.2514381408691406
1772721562250792400,2.95679248046875,-14.43454360961914,-1.9201831817626953,1.2497735023498535
1772721562269388500,2.975388427734375,-13.33065128326416,-1.3159610033035278,2.4727907180786133
1772721562287984600,2.993984619140625,-11.209238052368164,-0.8769791126251221,2.8893463611602783
1772721562306580700,3.012580810546875,-7.844044208526611,-0.6773114204406738,3.001577377319336
1772721562325176800,3.0311767578125,-1.7352676391601562,-0.9919818639755249,2.27286696434021
1772721562343773000,3.04977294921875,4.624486923217773,-1.853945255279541,0.5695797801017761
1772721562362369000,3.068369140625,4.600545883178711,-2.089804172515869,-0.7371106147766113
1772721562380965000,3.086965087890625,4.056333541870117,-1.134300947189331,-0.9797250032424927
1772721562399561200,3.105561279296875,4.345605850219727,0.44409283995628357,-1.167616844177246
1772721562418157300,3.1241572265625,5.776119232177734,2.3330135345458984,-1.1509474515914917
1772721562436753400,3.14275341796875,10.169523239135742,-0.13885486125946045,2.6176257133483887
1772721562455349500,3.161349609375,13.066428184509277,-0.9332117438316345,0.9760005474090576
1772721562473945600,3.179945556640625,11.228928565979004,-0.816173791885376,-2.3910038471221924
1772721562492541700,3.198541748046875,8.097009658813477,0.5210303068161011,-2.8989882469177246
1772721562511137800,3.2171376953125,11.544084548950195,-0.31961673498153687,-1.7275111675262451
1772721562529734000,3.23573388671875,12.48974323272705,-1.412628173828125,-1.8019051551818848
1772721562548330000,3.254330078125,8.237713813781738,-1.442701816558838,-0.9996064305305481
1772721562566926000,3.272926025390625,3.9697341918945312,-1.0029075145721436,0.4604761600494385
1772721562585522200,3.291522216796875,0.04964256286621094,-0.7541124820709229,0.22618532180786133
1772721562604118300,3.3101181640625,-3.0312447547912598,-1.0148192644119263,-0.07825100421905518
1772721562622714400,3.32871435546875,-4.224600315093994,-1.751078724861145,-1.2642498016357422
1772721562641310500,3.347310546875,-5.192840576171875,-2.1327767372131348,-2.7517952919006348
1772721562659906600,3.365906494140625,-5.802539825439453,-2.0012853145599365,-2.8067214488983154
1772721562678502700,3.384502685546875,-6.534910202026367,-1.5562244653701782,-1.8776371479034424
1772721562697098800,3.4030986328125,-7.740013122558594,-1.1979097127914429,-0.6823901534080505
1772721562715694800,3.42169482421875,-9.48670482635498,-0.9205267429351807,0.12580588459968567
1772721562734291000,3.440291015625,-11.604726791381836,-0.9238815307617188,0.723542332649231
1772721562752887300,3.45888720703125,-12.357751846313477,-0.9317916631698608,1.1664834022521973
1772721562771483100,3.477483154296875,-10.7073974609375,-1.3328837156295776,1.4247329235076904
1772721562790079500,3.49607958984375,-7.482237815856934,-2.0956308841705322,1.614051342010498
1772721562808675300,3.51467529296875,-3.781045436859131,-2.899984836578369,1.5835559368133545
1772721562827271700,3.533271728515625,0.25131893157958984,-3.6064157485961914,0.4410944879055023
1772721562845867800,3.55186767578125,2.664902687072754,-3.3139851093292236,-0.7645538449287415
1772721562864463600,3.570463623046875,3.05245304107666,-2.4167022705078125,-1.9769608974456787
1772721562883060000,3.58906005859375,3.3690671920776367,0.42125868797302246,-3.109208583831787
1772721562901656000,3.607656005859375,3.806962013244629,2.029705047607422,-1.2730029821395874
1772721562920252200,3.626252197265625,7.010124206542969,0.6184582114219666,-0.07192987203598022
1772721562938848300,3.64484814453125,8.396695137023926,0.36287450790405273,-2.6633121967315674
1772721562957444400,3.6634443359375,11.373007774353027,-0.9938876032829285,-5.257291793823242
1772721562976040400,3.68204052734375,17.267669677734375,-1.0221785306930542,-4.9952898025512695
1772721562994636500,3.700636474609375,20.926048278808594,-0.7949414253234863,-3.557128667831421
1772721563013232600,3.719232666015625,14.25901985168457,0.42228251695632935,-2.6101455688476562
1772721563031828700,3.737828857421875,7.000701904296875,2.060103416442871,-3.397946834564209
1772721563050424800,3.7564248046875,4.144646644592285,2.953627109527588,-1.1125378608703613
1772721563069021000,3.77502099609375,1.9399471282958984,3.0823769569396973,1.2267061471939087
1772721563087617000,3.793616943359375,-2.047163963317871,1.8910595178604126,2.199073314666748
1772721563106213000,3.812213134765625,-5.570888519287109,0.11953260004520416,1.9393123388290405
1772721563124809200,3.830809326171875,-7.357108116149902,-1.5009634494781494,0.9857546091079712
1772721563143405300,3.8494052734375,-9.541365623474121,-2.766483783721924,0.15378737449645996
1772721563162001400,3.86800146484375,-12.373032569885254,-3.078944444656372,0.28946614265441895
1772721563180597500,3.886597412109375,-14.893808364868164,-3.0813822746276855,1.221403956413269
1772721563199193900,3.90519384765625,-16.29003143310547,-3.454190254211426,2.4099371433258057
1772721563217789700,3.923789794921875,-15.836296081542969,-3.9338221549987793,3.1648309230804443
1772721563236386000,3.942385986328125,-13.726178169250488,-4.369751453399658,3.1471798419952393
1772721563254982100,3.960982177734375,-10.651966094970703,-5.196372985839844,1.840812087059021
1772721563273578200,3.979578125,-6.186506271362305,-5.715493679046631,-0.013568997383117676
1772721563292174300,3.99817431640625,-2.108936309814453,-5.7657246589660645,-1.6830642223358154
1772721563310770200,4.016770263671875,1.0170488357543945,-5.470707893371582,-2.248960494995117
1772721563329366500,4.035366455078125,2.715622901916504,-3.5290334224700928,-1.0665600299835205
1772721563347962600,4.053962646484375,2.212897300720215,-1.3068461418151855,-1.063383936882019
1772721563366558700,4.072558837890625,3.7276697158813477,1.2698273658752441,-2.8721354007720947
1772721563385154800,4.09115478515625,6.510666847229004,3.468137264251709,-3.5805234909057617
1772721563403751000,4.1097509765625,8.854212760925293,2.6115143299102783,-2.428251266479492
1772721563422347000,4.128346923828125,9.278824806213379,3.9199047088623047,-2.2328968048095703
1772721563440943000,4.146943115234375,10.917789459228516,3.4015936851501465,-3.2974960803985596
1772721563459539200,4.165539306640625,13.169499397277832,2.643904447555542,-1.7317492961883545
1772721563478135300,4.18413525390625,17.118751525878906,0.7643589377403259,-1.0291252136230469
1772721563496731400,4.2027314453125,15.73627758026123,-0.5394115447998047,-2.579594135284424
1772721563515327500,4.221327392578125,12.710030555725098,-0.3382396697998047,1.1340875625610352
1772721563533923600,4.239923583984375,6.540889739990234,0.05041610822081566,2.387382984161377
1772721563552519700,4.258519775390625,-0.025793075561523438,-0.4640924632549286,1.6443240642547607
1772721563571115800,4.27711572265625,-4.1055192947387695,-1.230255126953125,-0.19516050815582275
1772721563589712000,4.2957119140625,-5.765862941741943,-1.9018056392669678,-1.5272754430770874
1772721563608308200,4.31430810546875,-6.8820600509643555,-2.4370107650756836,-2.4217944145202637
1772721563626904000,4.332904052734375,-8.188380241394043,-2.5307722091674805,-2.6115012168884277
1772721563645500400,4.35150048828125,-9.104555130004883,-2.1639418601989746,-2.0474934577941895
1772721563664096300,4.37009619140625,-10.534867286682129,-1.701289415359497,-1.642585277557373
1772721563682692600,4.388692626953125,-11.769652366638184,-1.4877526760101318,-0.5857687592506409
1772721563701288700,4.407288818359375,-12.25554084777832,-1.307143211364746,0.6713182330131531
1772721563719884800,4.425884765625,-11.751039505004883,-1.4628101587295532,1.2790076732635498
1772721563738481000,4.44448095703125,-10.721014022827148,-1.6452324390411377,0.5031241178512573
1772721563757077000,4.463076904296875,-8.809913635253906,-1.9269293546676636,-0.6505112051963806
1772721563775673000,4.481673095703125,-5.0991363525390625,-2.1835646629333496,-1.2101492881774902
1772721563794269200,4.500269287109375,0.3598775863647461,-2.164416790008545,-0.49686747789382935
1772721563812865300,4.518865234375,4.387964248657227,-1.696202039718628,0.5692512392997742
1772721563831461400,4.53746142578125,3.7778425216674805,0.11012905836105347,0.17662441730499268
1772721563850057500,4.556057373046875,3.32027530670166,3.5866260528564453,-1.848556399345398
1772721563868653600,4.574653564453125,5.890155792236328,5.810513496398926,-3.322819948196411
1772721563887249700,4.593249755859375,11.87417221069336,4.050136089324951,-3.6243770122528076
1772721563905845800,4.611845703125,15.962324142456055,3.4309287071228027,-3.11608624458313
1772721563924441900,4.63044189453125,16.995689392089844,2.2537689208984375,-2.6379833221435547
1772721563943038000,4.649037841796875,15.293582916259766,1.0853904485702515,-1.8849354982376099
1772721563961634000,4.667634033203125,11.698055267333984,0.49600911140441895,-0.16179877519607544
1772721563980230100,4.686230224609375,6.185543060302734,-0.5824804306030273,1.8902244567871094
1772721563998826200,4.704826171875,1.4707460403442383,-1.913051962852478,2.5910496711730957
1772721564017422300,4.72342236328125,-0.5569496154785156,-2.87869930267334,2.295426845550537
1772721564036018400,4.742018310546875,-1.4146337509155273,-3.1590447425842285,1.5723224878311157
1772721564054614800,4.76061474609375,-1.6063404083251953,-3.420182943344116,1.1326239109039307
1772721564073210600,4.779210693359375,-2.2583847045898438,-4.01242733001709,1.2075151205062866
1772721564091807000,4.797806884765625,-4.334287643432617,-4.548877716064453,0.4075002670288086
1772721564110402800,4.81640283203125,-7.559845447540283,-4.88743257522583,-0.811211347579956
1772721564128999200,4.834999267578125,-9.84626293182373,-4.932758331298828,-1.1364753246307373
1772721564147595000,4.853594970703125,-10.981425285339355,-4.628427028656006,-0.5148523449897766
1772721564166191400,4.87219140625,-11.79504680633545,-4.302562713623047,0.4202439486980438
1772721564184787500,4.890787353515625,-12.346315383911133,-3.8565330505371094,1.1594798564910889
1772721564203383600,4.909383544921875,-12.449251174926758,-3.727607488632202,0.815321683883667
1772721564221979600,4.927979736328125,-12.344196319580078,-3.8723366260528564,-0.008874177932739258
1772721564240575500,4.946575439453125,-9.815925598144531,-4.311997890472412,-0.052730828523635864
1772721564259171800,4.965171875,-6.0051984786987305,-4.482671737670898,-0.3953604996204376
1772721564277768000,4.983767822265625,-2.7381515502929688,-4.09901237487793,-0.5765595436096191
1772721564296364000,5.002364013671875,0.5769634246826172,-3.336189031600952,-0.007435999810695648
1772721564314960100,5.020960205078125,3.7549095153808594,-2.560615062713623,-1.5483022928237915
1772721564333556200,5.03955615234375,4.794564247131348,0.1003609299659729,-4.780045986175537
1772721564352152300,5.05815234375,8.323617935180664,1.7459279298782349,-4.619886875152588
1772721564370748400,5.07674853515625,12.756325721740723,-0.9945528507232666,-1.9858977794647217
1772721564389344500,5.095344482421875,12.53205394744873,-0.5352481007575989,-4.155561447143555
1772721564407940600,5.113940673828125,10.896821022033691,0.34096378087997437,-6.088846683502197
1772721564426536700,5.13253662109375,11.345037460327148,2.0119662284851074,-3.9720752239227295
1772721564445132800,5.1511328125,15.285480499267578,1.1312998533248901,-1.771356225013733
1772721564463729000,5.16972900390625,14.68110466003418,0.4026850759983063,-1.2636044025421143
1772721564482325000,5.188324951171875,10.55255126953125,0.9216349124908447,-1.2922954559326172
1772721564500921000,5.206921142578125,6.60781192779541,1.7833764553070068,0.2361154556274414
1772721564519517200,5.22551708984375,2.5446863174438477,1.6990562677383423,0.9044122695922852
1772721564538113300,5.24411328125,-2.1510801315307617,0.03536023944616318,0.35377490520477295
1772721564556709400,5.26270947265625,-6.18162202835083,-1.0130255222320557,-1.278908133506775
1772721564575305500,5.281305419921875,-7.960134506225586,-1.7707880735397339,-2.4018521308898926
1772721564593901600,5.299901611328125,-8.467018127441406,-1.8075590133666992,-3.2260844707489014
1772721564612497700,5.31849755859375,-8.699182510375977,-1.5514588356018066,-3.3486745357513428
1772721564631093800,5.33709375,-9.132607460021973,-1.0512831211090088,-2.4683170318603516
1772721564649689900,5.35568994140625,-10.043987274169922,-0.72477787733078,-0.5999104976654053
1772721564668286000,5.374285888671875,-11.303139686584473,-0.7374211549758911,1.063103199005127
1772721564686882000,5.392882080078125,-12.359674453735352,-0.9085394144058228,1.865247368812561
1772721564705478100,5.41147802734375,-12.328083992004395,-1.3440611362457275,1.460427165031433
1772721564724074200,5.43007421875,-10.27530574798584,-2.0712928771972656,0.16539105772972107
1772721564742670300,5.44867041015625,-5.2158427238464355,-2.8814144134521484,-0.664435625076294
1772721564761266400,5.467266357421875,2.2060861587524414,-3.673522472381592,-0.01664111763238907
1772721564779862500,5.485862548828125,5.942895889282227,-3.3941307067871094,-0.27996933460235596
1772721564798458600,5.504458740234375,5.542723655700684,-2.088104724884033,-0.7868424654006958
1772721564817054700,5.5230546875,5.736749649047852,0.9749057292938232,-2.615260601043701
1772721564835650800,5.54165087890625,9.310965538024902,0.6350487470626831,0.019397083669900894
1772721564854247000,5.560246826171875,13.806780815124512,-1.0444859266281128,1.045612096786499
1772721564872843000,5.578843017578125,13.0595121383667,-1.0262730121612549,-1.1181020736694336
1772721564891439000,5.597439208984375,10.466115951538086,-0.9712109565734863,-2.1854493618011475
1772721564910035200,5.61603515625,10.43602180480957,-0.12225806713104248,-0.960440993309021
1772721564928631300,5.63463134765625,10.709424018859863,1.1662988662719727,2.241638660430908
1772721564947227400,5.653227294921875,4.729915618896484,1.7111607789993286,2.519564628601074
1772721564965823500,5.671823486328125,-0.10789299011230469,1.0038306713104248,1.9350669384002686
1772721564984419600,5.690419677734375,-2.553457736968994,-0.3212011158466339,0.5375823974609375
1772721565003015700,5.709015625,-2.9405088424682617,-1.8894375562667847,-1.402116298675537
1772721565021611800,5.72761181640625,-1.585531234741211,-2.8764994144439697,-2.5777244567871094
1772721565040208000,5.746207763671875,-0.05053901672363281,-3.484812021255493,-2.1960818767547607
1772721565058804000,5.764803955078125,-3.4363608360290527,-3.6745972633361816,-2.6012206077575684
1772721565077400000,5.783400146484375,-8.241462707519531,-3.272078514099121,-2.6599245071411133
1772721565095996000,5.801995849609375,-11.517162322998047,-2.4238905906677246,-2.146759033203125
1772721565114592000,5.820592041015625,-12.821659088134766,-1.7375648021697998,-0.9121613502502441
1772721565133188000,5.83918798828125,-12.380356788635254,-1.344041109085083,0.147030770778656
1772721565151784200,5.8577841796875,-10.935267448425293,-1.4931434392929077,1.0466749668121338
1772721565170380300,5.87638037109375,-9.57228946685791,-2.035165548324585,1.0700485706329346
1772721565188976400,5.894976318359375,-8.08642578125,-2.5765929222106934,0.8258712291717529
1772721565207572500,5.913572509765625,-5.395867347717285,-3.261988878250122,-0.20740151405334473
1772721565226168600,5.93216845703125,-2.2204465866088867,-3.150475025177002,-1.0829614400863647
1772721565244764700,5.9507646484375,1.5297775268554688,-2.6267647743225098,-1.86736261844635
1772721565263360800,5.96936083984375,4.220311164855957,-1.7758668661117554,-1.7148452997207642
1772721565281956900,5.987956787109375,5.022923469543457,-0.10436327755451202,-0.8925526738166809
1772721565300553000,6.006552978515625,4.659052848815918,1.9609174728393555,-1.331830620765686
1772721565319149000,6.025149169921875,7.276004791259766,0.7891002297401428,-0.1415073275566101
1772721565337745200,6.0437451171875,12.123868942260742,0.2175254076719284,-0.7982696294784546
1772721565356341200,6.06234130859375,14.729503631591797,-0.5370302200317383,-3.7427597045898438
1772721565374937300,6.080937255859375,14.142926216125488,-0.5784319043159485,-5.427495956420898
1772721565393533400,6.099533447265625,17.119525909423828,-1.14554762840271,-5.702841281890869
1772721565412129500,6.118129638671875,15.891534805297852,-1.59744131565094,-5.6060895919799805
1772721565430725600,6.1367255859375,9.575027465820312,-1.045127034187317,-3.694209575653076
1772721565449321700,6.15532177734375,3.2398576736450195,-0.5841660499572754,-0.44836628437042236
1772721565467917800,6.173917724609375,-1.7797002792358398,-0.3460473418235779,1.590993881225586
1772721565486514000,6.192513916015625,-5.451016426086426,-0.7692563533782959,1.6875426769256592
1772721565505109800,6.21110986328125,-7.590806007385254,-1.5022943019866943,0.80110764503479
1772721565523705900,6.229705810546875,-8.563231468200684,-2.249847412109375,0.09796798229217529
1772721565542302000,6.248302001953125,-9.165740966796875,-2.532088041305542,-0.26082849502563477
1772721565560898000,6.26689794921875,-9.768930435180664,-2.6868720054626465,-0.07186651229858398
1772721565579494100,6.285494140625,-10.156970977783203,-2.7896082401275635,0.2566237449645996
1772721565598090200,6.30409033203125,-10.961584091186523,-2.798574686050415,0.428480863571167
1772721565616686300,6.322686279296875,-11.740523338317871,-2.44285249710083,0.07980173826217651
1772721565635282400,6.341282470703125,-11.792009353637695,-2.2932093143463135,-0.24381780624389648
1772721565653878500,6.35987841796875,-10.34599494934082,-2.476757049560547,-0.26513946056365967
1772721565672474600,6.378474609375,-7.301623344421387,-2.806030511856079,0.05071955919265747
1772721565691070700,6.39707080078125,-4.5927629470825195,-3.188098907470703,0.2060205638408661
1772721565709666800,6.415666748046875,-0.7748003005981445,-3.319566249847412,0.5613574981689453
1772721565728263000,6.434262939453125,2.0306968688964844,-3.119920253753662,0.22598952054977417
1772721565746858800,6.452858642578125,2.492072105407715,-1.6753580570220947,-2.002643346786499
1772721565765455000,6.471455078125,4.467782020568848,1.4442009925842285,-4.316143989562988
1772721565784051000,6.490051025390625,7.396818161010742,2.0296618938446045,-3.1167006492614746
1772721565802647000,6.50864697265625,10.953649520874023,0.978500485420227,-2.2819111347198486
1772721565821243100,6.5272431640625,12.638694763183594,0.23104383051395416,-2.3710412979125977
1772721565839839200,6.545839111328125,13.031167984008789,-0.79962158203125,-4.20716667175293
1772721565858435300,6.564435302734375,15.5974702835083,-0.7595819234848022,-5.176311016082764
1772721565877031400,6.583031494140625,17.510051727294922,-2.074506998062134,-4.53831148147583
1772721565895627500,6.60162744140625,13.115805625915527,-2.006865978240967,-3.010171890258789
1772721565914223600,6.6202236328125,6.903533935546875,-1.1293611526489258,-0.3864009976387024
1772721565932819700,6.63881982421875,1.6077241897583008,0.023481130599975586,1.1343796253204346
1772721565951415800,6.657415771484375,-2.3653974533081055,0.4138897657394409,1.6825027465820312
1772721565970011600,6.67601171875,-4.76314640045166,-0.41639721393585205,1.1351475715637207
1772721565988607700,6.694607666015625,-6.254127025604248,-1.672750473022461,0.08136922121047974
1772721566007203800,6.713203857421875,-7.619274139404297,-2.355182647705078,-1.059323787689209
1772721566025800000,6.731800048828125,-8.282705307006836,-2.387770652770996,-1.5163285732269287
1772721566044396000,6.75039599609375,-8.631732940673828,-2.143306255340576,-1.287753701210022
1772721566062992100,6.7689921875,-9.235859870910645,-2.02634859085083,-0.8453600406646729
1772721566081588200,6.787588134765625,-10.351152420043945,-2.0521702766418457,-0.2935441732406616
1772721566100184300,6.806184326171875,-11.5233154296875,-2.0232150554656982,0.41146671772003174
1772721566118780400,6.824780517578125,-12.468110084533691,-1.7983595132827759,1.1769697666168213
1772721566137376500,6.84337646484375,-12.422795295715332,-1.488547921180725,2.1196885108947754
1772721566155972600,6.86197265625,-10.454195976257324,-1.3706669807434082,2.1113061904907227
1772721566174568400,6.880568359375,-5.943287372589111,-1.677493929862976,1.0254251956939697
1772721566193164500,6.89916455078125,2.2711801528930664,-2.182340145111084,-0.32908201217651367
1772721566211760600,6.9177607421875,8.520622253417969,-1.7305546998977661,-1.0683354139328003
1772721566230356700,6.936356689453125,7.4977569580078125,0.2539726495742798,-0.3635604977607727
1772721566248952800,6.954952880859375,5.88371467590332,3.47102689743042,-0.38199281692504883
1772721566267549000,6.973548828125,9.49551010131836,2.9509878158569336,0.5599879026412964
1772721566286145000,6.99214501953125,14.226898193359375,1.3192698955535889,-1.0228395462036133
1772721566304741000,7.0107412109375,15.031137466430664,1.1067917346954346,-1.3230690956115723
1772721566323337000,7.0293369140625,15.460063934326172,1.068119764328003,-0.7662156820297241
1772721566341933000,7.04793310546875,14.176787376403809,0.649667501449585,-1.0261409282684326
1772721566360529200,7.066529052734375,11.011163711547852,0.7311663627624512,-1.643676519393921
1772721566379125200,7.085125244140625,7.247097969055176,0.4625885486602783,-0.6303607225418091
1772721566397721300,7.103721435546875,2.3777170181274414,-0.31895530223846436,0.05800223350524902
1772721566416317400,7.1223173828125,-2.267910957336426,-1.5434764623641968,-0.3468731641769409
1772721566434913500,7.14091357421875,-5.2357587814331055,-3.414983034133911,-1.6228523254394531
1772721566453509400,7.15950927734375,-7.225645542144775,-4.523056507110596,-2.7310919761657715
1772721566472105700,7.178105712890625,-10.28080940246582,-4.459255218505859,-2.327540636062622
1772721566490701600,7.19670166015625,-12.016693115234375,-4.343701362609863,-0.6971520185470581
1772721566509297700,7.215297607421875,-14.43143367767334,-4.850178241729736,-1.5088140964508057
1772721566527893800,7.233893798828125,-15.032329559326172,-4.489606857299805,-4.12751579284668
1772721566546489900,7.25248974609375,-12.226808547973633,-3.3521175384521484,-4.278768062591553
1772721566565085700,7.271085693359375,-8.469776153564453,-1.9257690906524658,-3.0520198345184326
1772721566583682000,7.28968212890625,-5.63739013671875,-0.723589301109314,-1.9280943870544434
1772721566602278000,7.30827783203125,-3.4778361320495605,-0.4251956343650818,-1.3311314582824707
1772721566620874000,7.3268740234375,-1.983701229095459,-0.3947865068912506,-1.7170552015304565
1772721566639470000,7.345469970703125,-0.43169593811035156,0.0906999483704567,-0.9918556213378906
1772721566658066200,7.364066162109375,2.18387508392334,0.8083648681640625,0.6596720218658447
1772721566676662300,7.382662353515625,4.585573196411133,1.0963621139526367,0.28176742792129517
1772721566695258400,7.40125830078125,6.366639137268066,1.2832064628601074,-1.2360270023345947
1772721566713854500,7.4198544921875,7.915018081665039,2.1882946491241455,-1.1014665365219116
1772721566732450300,7.4384501953125,10.40317440032959,0.6763485074043274,1.5304852724075317
1772721566751046400,7.45704638671875,13.193992614746094,-0.27040791511535645,2.565404176712036
1772721566769642500,7.475642578125,13.985896110534668,-0.9005320072174072,0.3234025239944458
1772721566788238600,7.494238525390625,12.142364501953125,-1.3902366161346436,-1.5127872228622437
1772721566806834700,7.512834716796875,11.05345344543457,-1.7844972610473633,-1.7164306640625
1772721566825430800,7.5314306640625,12.127500534057617,-2.1345925331115723,-1.5336443185806274
1772721566844027000,7.55002685546875,8.251923561096191,-2.1066555976867676,-0.257833331823349
1772721566862622700,7.568622802734375,0.9033527374267578,-1.7779943943023682,0.8313743472099304
1772721566881218800,7.58721875,-3.749161720275879,-1.9128856658935547,0.37580835819244385
1772721566899815000,7.60581494140625,-6.890992641448975,-2.0894689559936523,-0.8543646931648254
1772721566918411000,7.624410888671875,-8.333213806152344,-2.4007339477539062,-2.4521071910858154
1772721566937006800,7.6430068359375,-7.622812747955322,-2.5106754302978516,-3.124462127685547
1772721566955603000,7.66160302734375,-7.451883792877197,-2.231809139251709,-2.1703367233276367
1772721566974199000,7.680198974609375,-8.867687225341797,-1.9604729413986206,-1.1072901487350464
1772721566992795100,7.698795166015625,-10.130009651184082,-1.743574857711792,0.0035835206508636475
1772721567011391200,7.71739111328125,-10.70936107635498,-1.5998446941375732,1.2910891771316528
1772721567029987300,7.7359873046875,-10.364405632019043,-1.7855544090270996,2.0542516708374023
1772721567048583400,7.75458349609375,-8.89539623260498,-2.1571850776672363,1.8205657005310059
1772721567067179300,7.77317919921875,-7.521508693695068,-2.5619349479675293,0.7118462324142456
1772721567085775400,7.791775390625,-6.5219244956970215,-2.775394916534424,-0.6659841537475586
1772721567104371500,7.810371337890625,-4.586143493652344,-2.612061023712158,-0.7302512526512146
1772721567122967600,7.828967529296875,-2.634943962097168,-1.525508999824524,-1.041298270225525
1772721567141563600,7.847563720703125,-1.8835039138793945,-1.6331548690795898,0.15412543714046478
1772721567160159500,7.866159423828125,-0.2699270248413086,-1.2712048292160034,1.2381322383880615
1772721567178755600,7.884755615234375,3.530837059020996,-0.11091160774230957,1.1508013010025024
1772721567197351700,7.9033515625,9.23217487335205,-0.3679439127445221,1.7295527458190918
1772721567215947800,7.92194775390625,13.13228988647461,-1.7137336730957031,2.76640248298645
1772721567234543900,7.9405439453125,12.795197486877441,-3.4319376945495605,2.093968629837036
1772721567253140000,7.959139892578125,10.741429328918457,-3.759486675262451,1.557612419128418
1772721567271735800,7.97773583984375,10.108711242675781,-2.657447338104248,1.6804733276367188
1772721567290332000,7.996331787109375,9.177384376525879,-4.5945024490356445,3.6652092933654785
1772721567308928000,8.014927978515624,7.180220603942871,-6.90901517868042,3.8190934658050537
1772721567327524000,8.033524169921876,6.268501281738281,-4.104744911193848,2.9460439682006836
1772721567346120200,8.0521201171875,3.394989013671875,-2.053903102874756,1.9113872051239014
1772721567364716000,8.070716064453125,0.9063863754272461,-1.5405622720718384,0.06415915489196777
1772721567383312100,8.08931201171875,-0.29520606994628906,-1.915985345840454,-3.186230421066284
1772721567401908200,8.107908203125,-1.5914783477783203,-2.1552658081054688,-5.780948638916016
1772721567420504300,8.12650439453125,-2.3574366569519043,-1.9241793155670166,-6.655360221862793
1772721567439100400,8.145100341796875,-5.9743452072143555,-1.976177453994751,-4.891373157501221
1772721567457696300,8.1636962890625,-5.295759201049805,-0.6592927575111389,-3.820674419403076
1772721567476292400,8.182292236328125,-5.605842113494873,-0.09689605236053467,-1.8158658742904663
1772721567494888400,8.200888427734375,-5.56278133392334,-0.6601303815841675,-0.11716282367706299
1772721567513484500,8.219484619140625,-5.961658954620361,-1.004303216934204,0.49691241979599
1772721567532080400,8.238080322265626,-7.466125965118408,-1.5134893655776978,0.42337507009506226
1772721567550676500,8.256676513671875,-8.797089576721191,-1.8724141120910645,-0.627831220626831
1772721567569272600,8.2752724609375,-9.489616394042969,-2.2105791568756104,-1.6023823022842407
1772721567587868700,8.29386865234375,-7.967574596405029,-2.3196194171905518,-1.5067603588104248
1772721567606464800,8.31246484375,-4.348742485046387,-3.0238304138183594,-0.42455556988716125
1772721567625060600,8.331060546875,0.02936553955078125,-2.5382511615753174,1.4867069721221924
1772721567643656700,8.34965673828125,5.212685585021973,-1.4384794235229492,2.117729425430298
1772721567662252800,8.368252685546874,9.582098007202148,-0.1679876446723938,-0.719463050365448
1772721567680849000,8.386848876953126,10.669364929199219,-1.6163192987442017,-2.496307134628296
1772721567699445000,8.405445068359375,10.40600872039795,-3.6445560455322266,-2.5983011722564697
1772721567718040800,8.424040771484375,10.069351196289062,-2.412381172180176,-2.977128505706787
1772721567736637000,8.442636962890624,8.820098876953125,-2.0591776371002197,-2.590897798538208
1772721567755233000,8.46123291015625,8.814964294433594,-1.3141006231307983,-0.5692859292030334
1772721567773829000,8.4798291015625,8.783465385437012,-2.194972038269043,-0.8006085157394409
1772721567792425200,8.49842529296875,8.694809913635254,-1.6177986860275269,-1.5636184215545654
1772721567811021000,8.51702099609375,7.995880126953125,-1.8917255401611328,-1.0508538484573364
1772721567829617200,8.5356171875,3.2016115188598633,-1.7653971910476685,-2.6194021701812744
1772721567848213200,8.554213134765625,-1.4383068084716797,-0.8509634137153625,-4.351211071014404
1772721567866809300,8.572809326171875,-5.5309295654296875,-1.154391884803772,-4.640573978424072
1772721567885405200,8.5914052734375,-7.336331367492676,-0.18370166420936584,-3.298546314239502
1772721567904001300,8.610001220703126,-7.183259010314941,-0.6884265542030334,-1.853264331817627
1772721567922597400,8.628597412109375,-6.911865711212158,-0.6469101905822754,-0.199832022190094
1772721567941193500,8.647193359375,-6.753087997436523,-1.233546495437622,1.3340297937393188
1772721567959789600,8.66578955078125,-7.687348365783691,-1.599719524383545,2.117516040802002
1772721567978385400,8.684385498046876,-9.551780700683594,-2.140983819961548,2.0844905376434326
1772721567996981500,8.7029814453125,-10.623201370239258,-2.376554489135742,2.181542158126831
1772721568015577600,8.72157763671875,-10.71842098236084,-2.828653335571289,2.047558546066284
1772721568034173400,8.74017333984375,-10.633313179016113,-3.3923463821411133,1.698803424835205
1772721568052769500,8.75876953125,-8.995461463928223,-2.9861059188842773,1.508538007736206
1772721568071365600,8.77736572265625,-4.997684955596924,-3.0270614624023438,1.007509708404541
1772721568089961700,8.795961669921875,-0.644007682800293,-2.86415433883667,-0.09885728359222412
1772721568108557800,8.814557861328124,1.5250186920166016,-2.5428075790405273,0.2806708812713623
1772721568127153700,8.833153564453125,4.410887718200684,-0.7560219764709473,0.09810400009155273
1772721568145749800,8.851749755859375,9.963555335998535,0.15384918451309204,-0.9732564687728882
1772721568164345900,8.870345947265625,14.028497695922852,-2.440361499786377,-2.030794143676758
1772721568182941700,8.888941650390626,11.825213432312012,-2.04135799407959,-2.849292755126953
1772721568201537800,8.907537841796875,8.813909530639648,-1.1849240064620972,-2.0078866481781006
1772721568220134000,8.9261337890625,12.948047637939453,-0.9136859774589539,-2.5864217281341553
1772721568238730000,8.94472998046875,14.376445770263672,-3.4205949306488037,-0.9667270183563232
1772721568257325800,8.963325927734376,12.01329517364502,-3.492903232574463,0.4997231960296631
1772721568275922000,8.981921875,7.401639938354492,-2.432560682296753,1.9893207550048828
1772721568294518000,9.00051806640625,1.3583097457885742,-0.3399786353111267,0.6007602214813232
1772721568313114000,9.019114013671874,-3.986819267272949,1.5980342626571655,-1.3378952741622925
1772721568331710200,9.037710205078126,-7.069673538208008,0.4390062093734741,-1.5160927772521973
1772721568350306000,9.05630615234375,-7.692996025085449,-0.42251163721084595,-1.1280566453933716
1772721568368902100,9.074902099609375,-6.74077844619751,-1.7240127325057983,-1.2606480121612549
1772721568387498200,9.093498291015624,-5.367494583129883,-2.3586254119873047,-2.321226119995117
1772721568406094000,9.112093994140626,-5.4347381591796875,-2.372621536254883,-3.193453311920166
1772721568424690200,9.130690185546875,-6.9491729736328125,-2.1150195598602295,-3.2861580848693848
1772721568443286300,9.149286376953125,-8.847602844238281,-2.1864583492279053,-2.914637804031372
1772721568461882400,9.16788232421875,-10.55701732635498,-2.140678882598877,-2.6072323322296143
1772721568480478200,9.186478271484376,-11.399574279785156,-2.06813383102417,-2.0413191318511963
1772721568499074800,9.20507470703125,-10.391742706298828,-1.9346849918365479,-1.422331690788269
1772721568517671000,9.2236708984375,-6.455323219299316,-2.0797786712646484,-1.251338243484497
1772721568536267000,9.24226708984375,-1.5598154067993164,-2.5007336139678955,-0.3098939061164856
1772721568554863000,9.260863037109376,2.1914119720458984,-2.2738840579986572,0.8866943717002869
1772721568573459000,9.279458984375,3.581366539001465,-1.320136547088623,0.29049766063690186
1772721568592055000,9.298054931640625,5.9573163986206055,0.806920051574707,-0.9047874808311462
1772721568610651100,9.316651123046874,9.884797096252441,0.7272433042526245,-0.6792410612106323
1772721568629247000,9.3352470703125,14.141244888305664,-0.8054711818695068,-0.09822896122932434
1772721568647843000,9.353843017578125,16.129894256591797,-1.9326311349868774,1.1572479009628296
1772721568666439200,9.372439208984375,16.20284652709961,-2.3962934017181396,2.0968995094299316
1772721568685035300,9.39103515625,13.740991592407227,-2.0908193588256836,1.4125292301177979
1772721568703631000,9.409631103515625,13.306925773620605,-2.419468879699707,0.692273736000061
1772721568722227200,9.428227294921875,15.20461368560791,-3.6075127124786377,0.1763373613357544
1772721568740823300,9.4468232421875,13.126341819763184,-3.7299466133117676,-1.0146539211273193
1772721568759419100,9.465419189453126,6.287864685058594,-3.544060230255127,-1.048355221748352
1772721568778015200,9.48401513671875,-1.9067621231079102,-3.084193229675293,-1.0550024509429932
1772721568796611300,9.502611328125,-8.47451114654541,-3.520627737045288,-1.8902283906936646
1772721568815207200,9.521207275390625,-12.057741165161133,-4.092438220977783,-2.546705961227417
1772721568833803300,9.53980322265625,-12.769647598266602,-4.302468299865723,-2.2029500007629395
1772721568852399400,9.5583994140625,-12.238382339477539,-4.0096435546875,-1.3929848670959473
1772721568870995500,9.576995361328125,-11.60528564453125,-3.680905818939209,-0.329060435295105
1772721568889591300,9.59559130859375,-11.53501033782959,-3.635779619216919,0.25887519121170044
1772721568908187400,9.6141875,-11.401710510253906,-3.912652015686035,-0.09165889024734497
1772721568926783500,9.632783447265625,-11.263788223266602,-4.186776638031006,-0.8402860760688782
1772721568945379300,9.65137939453125,-11.205214500427246,-4.206330299377441,-1.6080082654953003
1772721568963975400,9.669975341796874,-10.642217636108398,-3.6340126991271973,-2.3396053314208984
1772721568982571500,9.688571533203126,-8.280588150024414,-2.9970710277557373,-1.6926498413085938
1772721569001167400,9.70716748046875,-3.829814910888672,-2.616100311279297,0.019184589385986328
1772721569019763500,9.725763427734375,0.6231985092163086,-2.3515779972076416,0.6449844241142273
1772721569038359600,9.744359619140624,3.8392934799194336,-2.0596981048583984,-0.04025954008102417
1772721569056955400,9.762955322265626,8.333027839660645,-1.7689591646194458,-1.2964024543762207
1772721569075551500,9.781551513671875,14.416143417358398,-2.673447608947754,-1.076042890548706
1772721569094147600,9.800147705078125,15.201031684875488,-2.3636627197265625,-0.8952828645706177
1772721569112743400,9.818743408203124,13.933269500732422,-0.9878553748130798,-2.5438268184661865
1772721569131339500,9.837339599609376,14.840710639953613,-1.680955171585083,-4.492124557495117
1772721569149935600,9.855935546875,13.238969802856445,-2.2504255771636963,-3.997493267059326
1772721569168531700,9.87453173828125,9.377344131469727,-1.6746063232421875,-1.25764799118042
1772721569187127600,9.89312744140625,6.181877136230469,-0.26270079612731934,0.25890880823135376
1772721569205723600,9.9117236328125,2.356679916381836,0.30778831243515015,-0.717972457408905
1772721569224319700,9.93031982421875,-2.364543914794922,0.743158757686615,-2.3511295318603516
1772721569242915600,9.94891552734375,-6.245724678039551,1.004788875579834,-2.5775253772735596
1772721569261511700,9.96751171875,-8.28157901763916,0.4160308837890625,-1.8995721340179443
1772721569280107800,9.986107666015625,-8.499750137329102,-0.1364540457725525,-2.2673134803771973
1772721569298703600,10.00470361328125,-7.932477951049805,-0.6058180928230286,-3.014960289001465
1772721569317299700,10.0232998046875,-7.579511642456055,-0.8504000306129456,-3.1962897777557373
1772721569335895800,10.041895751953126,-8.184751510620117,-0.6605079174041748,-2.9257287979125977
1772721569354491600,10.06049169921875,-9.083072662353516,-0.5403976440429688,-2.648451089859009
1772721569373087700,10.079087646484375,-9.72097110748291,-0.5367088913917542,-2.174744129180908
1772721569391683800,10.097683837890624,-9.900049209594727,-0.39689093828201294,-1.672389030456543
1772721569410279700,10.11627978515625,-7.899927616119385,-0.4076436758041382,-1.4347140789031982
1772721569428875800,10.134875732421875,-3.357179641723633,-1.343660593032837,-0.8245626091957092
1772721569447471600,10.1534716796875,1.900557518005371,-1.7048680782318115,-0.014789938926696777
1772721569466067700,10.172067626953124,4.681876182556152,-1.1637769937515259,0.8706895709037781
1772721569484663800,10.190663818359376,4.7449750900268555,0.4105900526046753,0.5273006558418274
1772721569503259600,10.209259765625,6.420408248901367,1.308767318725586,-0.5403769016265869
1772721569521855700,10.227855712890625,11.420659065246582,-0.8235689401626587,-1.1071516275405884
1772721569540451800,10.246451904296874,15.243303298950195,-2.173311233520508,-1.351942777633667
1772721569559047700,10.265047607421875,13.047438621520996,-1.4769725799560547,-0.7561649084091187
1772721569577643800,10.283643798828125,10.032698631286621,-0.3031061887741089,-1.21547532081604
1772721569596240000,10.302239990234375,7.710890769958496,0.2912801504135132,-1.1936945915222168
1772721569614835700,10.320835693359374,5.021658897399902,1.1234898567199707,-0.2746662497520447
1772721569633431800,10.339431884765625,3.076173782348633,1.371403455734253,1.3036936521530151
1772721569652028000,10.35802783203125,2.687228202819824,0.9797893762588501,2.4810497760772705
1772721569670623700,10.376623779296875,2.561124801635742,-0.1786099672317505,1.8677783012390137
1772721569689219800,10.3952197265625,2.346548080444336,-0.7420048117637634,-0.5006605982780457
1772721569707815700,10.413815673828125,1.5349006652832031,-0.8920941352844238,-2.4707746505737305
1772721569726411800,10.432411865234375,0.08347034454345703,-0.41015225648880005,-2.3596138954162598
1772721569745007900,10.4510078125,-3.2732343673706055,-0.5683156251907349,-0.7976958751678467
1772721569763603700,10.469603759765626,-7.6856794357299805,-0.5779582858085632,-0.8447469472885132
1772721569782199800,10.48819970703125,-11.220606803894043,-0.8892530202865601,-1.8164904117584229
1772721569800796000,10.5067958984375,-11.858114242553711,-1.0595216751098633,-2.181586742401123
1772721569819391700,10.525391845703124,-10.24011516571045,-1.1149736642837524,-2.060590982437134
1772721569837987800,10.54398779296875,-9.474187850952148,-0.7103697061538696,-2.016730785369873
1772721569856584000,10.562583984375,-9.540074348449707,-0.32003289461135864,-1.5529530048370361
1772721569875179800,10.5811796875,-9.373550415039062,-0.13727474212646484,-0.8798612356185913
1772721569893776000,10.59977587890625,-9.453003883361816,-0.15944045782089233,-0.673528790473938
1772721569912372000,10.6183720703125,-8.157346725463867,-0.29846441745758057,-0.3582165837287903
1772721569930967800,10.6369677734375,-5.510108947753906,-0.6017103791236877,-0.46238574385643005
1772721569949564000,10.65556396484375,-2.396852493286133,-0.6163735389709473,-1.1494468450546265
1772721569968159700,10.67415966796875,0.5239944458007812,0.32319939136505127,-0.6539756655693054
1772721569986755800,10.692755859375,6.050293922424316,1.3868663311004639,0.24645650386810303
1772721570005352000,10.71135205078125,13.683900833129883,-0.5820217728614807,2.303727149963379
1772721570023947800,10.72994775390625,17.21355438232422,-3.1630187034606934,2.1163759231567383
1772721570042543900,10.7485439453125,15.209755897521973,-1.9319212436676025,-0.26366299390792847
1772721570061140000,10.767139892578125,12.466026306152344,-0.8381891250610352,-1.342862606048584
1772721570079735800,10.78573583984375,11.825660705566406,-0.23966659605503082,-1.773067593574524
1772721570098332000,10.804331787109374,10.828229904174805,-0.2827950119972229,-1.5257471799850464
1772721570116928000,10.822927978515626,7.687999725341797,-0.1438227891921997,-1.5111362934112549
1772721570135523800,10.84152392578125,3.6561365127563477,0.1445353627204895,-0.816102147102356
1772721570154120000,10.860119873046875,1.0747413635253906,0.6583762168884277,0.7546145915985107
1772721570172716000,10.878716064453124,-2.851022720336914,0.7834980487823486,-0.5094896554946899
1772721570191312000,10.897311767578126,-6.142155170440674,0.19644540548324585,-3.8330416679382324
1772721570209908000,10.915907958984375,-6.822132110595703,-0.365739643573761,-5.761994361877441
1772721570228503800,10.93450390625,-6.121115684509277,-0.2068478912115097,-4.29585075378418
1772721570247100000,10.953099853515624,-5.175574779510498,0.15124043822288513,-1.8808012008666992
1772721570265696000,10.971696044921876,-6.4319305419921875,0.11779314279556274,-1.4628212451934814
1772721570284291800,10.990291748046875,-9.165882110595703,0.6667986512184143,-1.5584354400634766
1772721570302888000,11.008887939453125,-11.614593505859375,1.0549170970916748,-1.4348835945129395
1772721570321484000,11.027484130859374,-12.040958404541016,0.39388424158096313,-2.3703560829162598
1772721570340079900,11.046079833984376,-9.696964263916016,-0.26101619005203247,-4.191285610198975
