time,seconds_elapsed,z,y,x
1772721559386992600,0.09299267578125,0.2078467458486557,0.2456440031528473,0.6553815603256226
1772721559405588700,0.111588623046875,0.25152358412742615,0.4719693958759308,0.8337540626525879
1772721559424184800,0.130184814453125,0.19379685819149017,0.6610320210456848,0.9369902014732361
1772721559442781000,0.148781005859375,0.13942988216876984,0.6063596606254578,0.963868260383606
1772721559461377000,0.167376953125,0.1614210158586502,0.6946296095848083,1.1382701396942139
1772721559479973000,0.18597314453125,0.29397866129875183,1.0125846862792969,1.360930323600769
1772721559498569200,0.2045693359375,0.43600472807884216,1.0138064622879028,1.3933062553405762
1772721559517165300,0.223165283203125,0.4601338803768158,0.9206495881080627,1.2509746551513672
1772721559535761400,0.241761474609375,0.3617846667766571,0.6918807029724121,0.9214131832122803
1772721559554357500,0.260357421875,0.35475972294807434,0.581314206123352,0.36430448293685913
1772721559572953600,0.27895361328125,0.3013090491294861,0.44295331835746765,-0.4032471179962158
1772721559591549700,0.2975498046875,0.4433351159095764,-0.2012035846710205,-1.0382410287857056
1772721559610146000,0.31614599609375,0.9460768103599548,-0.9543998837471008,-1.4545453786849976
1772721559628742000,0.334741943359375,1.8602359294891357,-1.979430913925171,-1.73798668384552
1772721559647338200,0.353338134765625,2.749960422515869,-2.0392956733703613,-1.664072036743164
1772721559665934300,0.371934326171875,2.8870997428894043,-1.4284309148788452,-1.1946223974227905
1772721559684530200,0.3905302734375,1.908188819885254,-0.170965775847435,-0.4356229603290558
1772721559703126500,0.40912646484375,0.836121141910553,0.4854084253311157,-0.026343543082475662
1772721559721722600,0.42772265625,0.7451022863388062,0.15676318109035492,-0.039477135986089706
1772721559740318700,0.446318603515625,0.8703296184539795,0.09995274990797043,-0.08498656004667282
1772721559758914800,0.464914794921875,1.0804671049118042,0.08956804871559143,0.08086322247982025
1772721559777511000,0.483510986328125,1.177594542503357,0.5354993343353271,-0.12408190965652466
1772721559796107000,0.50210693359375,1.26189386844635,0.49854201078414917,-0.2905425727367401
1772721559814703000,0.520703125,1.142775297164917,-0.0322994738817215,-0.13049599528312683
1772721559833299200,0.53929931640625,0.9628756046295166,-0.33773186802864075,0.010919207707047462
1772721559851895300,0.557895263671875,1.0398445129394531,-0.6376664638519287,0.27695080637931824
1772721559870491400,0.576491455078125,1.1785109043121338,-0.8786526322364807,0.44554948806762695
1772721559889087500,0.59508740234375,0.9992220401763916,-0.8893427848815918,0.2842811942100525
1772721559907683600,0.61368359375,0.8452841639518738,-0.15386156737804413,-0.11797326058149338
1772721559926279700,0.63227978515625,0.7194460034370422,0.7224239706993103,-0.5223657488822937
1772721559944875800,0.650875732421875,0.3223838806152344,1.2893065214157104,-0.4240165054798126
1772721559963472000,0.669471923828125,0.04657844081521034,1.6448297500610352,-0.03764454275369644
1772721559982068200,0.688068115234375,0.07162389904260635,1.3879611492156982,-0.17172935605049133
1772721560000664000,0.7066640625,0.19043709337711334,0.7957277297973633,-0.7395281791687012
1772721560019260400,0.725260498046875,0.5053378939628601,0.48479756712913513,-0.6833286285400391
1772721560037856500,0.7438564453125,0.6885973215103149,0.31039565801620483,0.027717988938093185
1772721560056452600,0.76245263671875,0.6366738080978394,0.48968449234962463,0.8713222742080688
1772721560075048700,0.781048583984375,0.6058251261711121,1.0382410287857056,1.861228585243225
1772721560093644800,0.799644775390625,0.46196648478507996,0.8171079754829407,2.29249906539917
1772721560112241000,0.818240966796875,0.494647741317749,-0.14103341102600098,1.853898286819458
1772721560130837000,0.8368369140625,0.5343539714813232,-1.4415645599365234,1.0704641342163086
1772721560149433000,0.85543310546875,0.2698495090007782,-1.3511565923690796,0.09980003535747528
1772721560168029200,0.874029296875,-0.053603384643793106,-0.5622246861457825,-0.9563851952552795
1772721560186625300,0.892625244140625,-0.388051837682724,0.05047270283102989,-1.4820343255996704
1772721560205221400,0.911221435546875,-0.485484778881073,0.3281107544898987,-1.376354694366455
1772721560223817500,0.9298173828125,-0.28298309445381165,0.10331250727176666,-1.0098358392715454
1772721560242413600,0.94841357421875,0.08323032408952713,-0.1914297491312027,-0.6317105293273926
1772721560261009700,0.967009765625,0.38652467727661133,-0.30077454447746277,-0.21601705253124237
1772721560279605800,0.985605712890625,0.49342602491378784,-0.33345580101013184,0.1660788655281067
1772721560298201900,1.004201904296875,0.4176788032054901,-0.2219729870557785,0.3920988440513611
1772721560316798000,1.0227978515625,0.3303251266479492,0.1726456582546234,0.4171442985534668
1772721560335394000,1.04139404296875,0.32757624983787537,0.847956657409668,0.339869886636734
1772721560353990100,1.059990234375,0.295811265707016,1.3711624145507812,0.20578506588935852
1772721560372586200,1.078586181640625,0.14767655730247498,1.331150770187378,0.10651954263448715
1772721560391182600,1.0971826171875,0.028863361105322838,0.6106356978416443,0.13248129189014435
1772721560409778400,1.1157783203125,-0.10797034949064255,-0.395764023065567,0.0985783040523529
1772721560428374800,1.134374755859375,-0.2380845546722412,-0.8560506105422974,0.1398116797208786
1772721560446971000,1.152970947265625,-0.28787001967430115,-0.5863538384437561,0.39423686265945435
1772721560465567000,1.17156689453125,-0.4589121639728546,-0.12362375855445862,0.48678287863731384
1772721560484163000,1.1901630859375,-0.7212786078453064,0.3018435537815094,0.004505127668380737
1772721560502759200,1.20875927734375,-0.957683265209198,0.6576722860336304,-0.5132027864456177
1772721560521355300,1.227355224609375,-1.2579232454299927,0.5654317140579224,-0.792062520980835
1772721560539951400,1.245951416015625,-1.4842487573623657,0.4725802540779114,-0.5303069949150085
1772721560558547500,1.26454736328125,-1.5948152542114258,0.3171151876449585,0.029245151206851006
1772721560577143600,1.2831435546875,-1.3825397491455078,-0.4284452795982361,0.5335140228271484
1772721560595739600,1.30173974609375,-1.077412724494934,-1.6733876466751099,1.0316742658615112
1772721560614335700,1.320335693359375,-0.9976949095726013,-2.3743550777435303,0.99257892370224
1772721560632931800,1.338931884765625,-1.215773582458496,-1.925369381904602,0.1498909443616867
1772721560651528000,1.35752783203125,-1.4931062459945679,-0.651105523109436,-0.7828995585441589
1772721560670124000,1.3761240234375,-1.8290818929672241,0.11797326058149338,-1.3360376358032227
1772721560688720100,1.39472021484375,-2.2081234455108643,0.3339139521121979,-1.3586395978927612
1772721560707316200,1.413316162109375,-2.2618794441223145,0.48998990654945374,-0.7676279544830322
1772721560725912300,1.431912353515625,-1.8128939867019653,1.070006012916565,0.10315979272127151
1772721560744508400,1.45050830078125,-1.2005020380020142,1.587103009223938,0.8007673621177673
1772721560763104500,1.4691044921875,-0.8211549520492554,1.4930298328399658,1.20271635055542
1772721560781700600,1.48770068359375,-0.7667880058288574,0.8259655237197876,1.323056697845459
1772721560800296700,1.506296630859375,-0.9051488637924194,0.2099084109067917,1.2179880142211914
1772721560818892800,1.524892822265625,-1.093906044960022,-0.09094249457120895,0.9470694661140442
1772721560837489000,1.543489013671875,-1.279914379119873,-0.11598794907331467,0.47731447219848633
1772721560856085000,1.5620849609375,-1.4940224885940552,0.05474875494837761,0.09002619981765747
1772721560874681000,1.58068115234375,-1.6870558261871338,0.11247547715902328,-0.116751529276371
1772721560893277200,1.599277099609375,-1.891390085220337,-0.10774127393960953,-0.2297615110874176
1772721560911873500,1.61787353515625,-2.202014923095703,-0.5139663815498352,-0.1934150606393814
1772721560930469400,1.636469482421875,-2.2597415447235107,-0.46662431955337524,0.18715369701385498
1772721560949065700,1.655065673828125,-1.7261511087417603,0.4093557596206665,0.5698604583740234
1772721560967661600,1.67366162109375,-1.0929898023605347,0.8519272804260254,0.8872047066688538
1772721560986258000,1.6922578125,-0.8904881477355957,0.22365286946296692,1.2302052974700928
1772721561004853800,1.710853759765625,-1.1116211414337158,-0.8019890785217285,1.4440079927444458
1772721561023450000,1.7294501953125,-1.3507747650146484,-1.1153627634048462,1.372231364250183
1772721561042046200,1.748046142578125,-1.4680607318878174,-1.1572070121765137,1.0194569826126099
1772721561060642300,1.766642333984375,-1.5978695154190063,-1.3490184545516968,0.7363211512565613
1772721561079238400,1.78523828125,-1.920711636543274,-2.3239586353302,0.12576179206371307
1772721561097834200,1.803834228515625,-2.1671955585479736,-2.4021494388580322,-0.5541307330131531
1772721561116430600,1.8224306640625,-2.2029311656951904,-1.2860994338989258,-0.9719622135162354
1772721561135026400,1.8410263671875,-2.229503631591797,-0.3239873945713043,-1.125900149345398
1772721561153622800,1.859622802734375,-2.279594659805298,0.07429642975330353,-1.145447850227356
1772721561172219000,1.878218994140625,-2.459188938140869,-0.04146244749426842,-1.0825287103652954
1772721561190815000,1.89681494140625,-2.6076290607452393,-0.31115925312042236,-0.9731839299201965
1772721561209411000,1.9154111328125,-2.6244277954101562,-0.013973532244563103,-0.9857066869735718
1772721561228007200,1.934007080078125,-2.6137375831604004,0.7431933879852295,-0.8574250936508179
1772721561246603300,1.952603271484375,-2.6326744556427,1.4102576971054077,-0.4099666178226471
1772721561265199400,1.971199462890625,-2.688263177871704,1.5119667053222656,0.28122687339782715
1772721561283795500,1.98979541015625,-2.7667593955993652,1.0932189226150513,0.9000328779220581
1772721561302391600,2.0083916015625,-2.8092143535614014,0.534277617931366,1.13307785987854
1772721561320987600,2.026987548828125,-2.8089089393615723,-0.032910339534282684,0.900338351726532
1772721561339583700,2.045583740234375,-2.8070764541625977,-0.24946190416812897,0.3908770978450775
1772721561358179800,2.064179931640625,-2.8675520420074463,-0.22533275187015533,0.04634936526417732
1772721561376776000,2.08277587890625,-2.9408557415008545,-0.020387612283229828,0.17432554066181183
1772721561395372000,2.1013720703125,-2.997666120529175,0.07307469844818115,0.6260600686073303
1772721561413968100,2.119968017578125,-2.9326090812683105,-0.2998582422733307,0.6621010899543762
1772721561432564200,2.138564208984375,-2.7649266719818115,-0.3756054937839508,0.29741477966308594
1772721561451160300,2.157160400390625,-2.4933972358703613,0.06299543380737305,-0.05810851231217384
1772721561469756400,2.17575634765625,-2.5492913722991943,0.14882193505764008,-0.4521162807941437
1772721561488352500,2.1943525390625,-2.828151226043701,0.2560287117958069,-0.6698895692825317
1772721561506948600,2.212948486328125,-2.7566800117492676,0.6851612329483032,-0.23098324239253998
1772721561525544700,2.231544677734375,-1.9833252429962158,0.6692787408828735,0.5949059128761292
1772721561544140800,2.250140869140625,-1.6769765615463257,-0.9681442975997925,1.146822214126587
1772721561562737000,2.26873681640625,-1.7047709226608276,-2.8969497680664062,0.8395572900772095
1772721561581333000,2.2873330078125,-1.5639665126800537,-2.7301838397979736,0.16363540291786194
1772721561599929000,2.30592919921875,-1.5963424444198608,-1.465693712234497,-0.06085740402340889
1772721561618525200,2.324525146484375,-1.9744676351547241,-0.2164752036333084,-0.24350596964359283
1772721561637121300,2.343121337890625,-2.416428327560425,0.45761406421661377,-0.560850203037262
1772721561655717400,2.36171728515625,-2.6748242378234863,0.42798712849617004,-0.7578541040420532
1772721561674313500,2.3803134765625,-2.587165117263794,-0.022525638341903687,-0.8775836229324341
1772721561692909600,2.39890966796875,-2.308305263519287,-0.3099375069141388,-1.034881353378296
1772721561711505700,2.417505615234375,-2.1693334579467773,-0.33253952860832214,-1.0672571659088135
1772721561730101800,2.436101806640625,-2.216370105743408,-0.24579671025276184,-0.7044034600257874
1772721561748697900,2.45469775390625,-2.3180792331695557,0.15951207280158997,0.07017309218645096
1772721561767294000,2.4732939453125,-2.3535091876983643,0.6317105293273926,0.6941714882850647
1772721561785890000,2.49189013671875,-2.4066545963287354,0.8632283210754395,0.7861065864562988
1772721561804486100,2.510486083984375,-2.556621789932251,0.8595631122589111,0.568027913570404
1772721561823082200,2.529082275390625,-2.7200281620025635,0.7196750640869141,0.27145302295684814
1772721561841678300,2.54767822265625,-2.841895580291748,0.26427537202835083,-0.04192059487104416
1772721561860274400,2.5662744140625,-2.794248104095459,0.06757691502571106,-0.04955640435218811
1772721561878870500,2.58487060546875,-2.5502078533172607,0.17234022915363312,0.44096800684928894
1772721561897466600,2.603466552734375,-2.2817325592041016,0.03672824427485466,0.8679624795913696
1772721561916062700,2.622062744140625,-2.042579174041748,-0.22930335998535156,0.5823832154273987
1772721561934658800,2.640658935546875,-2.129016399383545,-0.0576503649353981,0.1037706509232521
1772721561953255000,2.6592548828125,-2.3700027465820312,-0.11323905736207962,-0.46280643343925476
1772721561971851000,2.67785107421875,-2.4527747631073,0.3021489977836609,-0.5700132250785828
1772721561990447000,2.696447021484375,-2.4316999912261963,0.811610221862793,-0.48846274614334106
1772721562009043200,2.715043212890625,-2.1534509658813477,0.2758817970752716,-0.5095375776290894
1772721562027639300,2.733639404296875,-2.0077598094940186,-1.2970950603485107,-0.6289616227149963
1772721562046235400,2.7522353515625,-1.65987229347229,-1.8517602682113647,-0.14668390154838562
1772721562064831500,2.77083154296875,-1.2301290035247803,-0.9748638272285461,0.6263654828071594
1772721562083427600,2.789427490234375,-0.9372192621231079,0.15859577059745789,1.3108394145965576
1772721562102023700,2.808023681640625,-1.134223222732544,0.5529089570045471,1.6055817604064941
1772721562120619800,2.826619873046875,-1.5899282693862915,0.3430769443511963,1.43637216091156
1772721562139216000,2.8452158203125,-1.7985386848449707,0.3904189467430115,1.0964258909225464
1772721562157812000,2.86381201171875,-1.883143424987793,0.7114284038543701,0.7625883221626282
1772721562176408000,2.882407958984375,-2.0523529052734375,0.9438624382019043,0.6107884049415588
1772721562195004200,2.901004150390625,-2.2597415447235107,0.7190641760826111,0.5561160445213318
1772721562213600300,2.919600341796875,-2.230114698410034,0.21051926910877228,0.5157989263534546
1772721562232196400,2.9381962890625,-2.009286880493164,-0.46601346135139465,0.3606393039226532
1772721562250792400,2.95679248046875,-1.8684825897216797,-1.1211659908294678,0.12392919510602951
1772721562269388500,2.975388427734375,-1.9848524332046509,-1.3991093635559082,-0.2716057598590851
1772721562287984600,2.993984619140625,-2.204458236694336,-1.195691466331482,-0.7960331439971924
1772721562306580700,3.012580810546875,-2.481485366821289,-0.7302125096321106,-1.2205841541290283
1772721562325176800,3.0311767578125,-2.6836817264556885,-0.29588761925697327,-1.0547343492507935
1772721562343773000,3.04977294921875,-2.5853323936462402,0.03367391973733902,-0.02848157100379467
1772721562362369000,3.068369140625,-2.2569925785064697,-0.17463096976280212,0.6990583539009094
1772721562380965000,3.086965087890625,-1.9585851430892944,-0.39454227685928345,0.8755983114242554
1772721562399561200,3.105561279296875,-1.8498512506484985,-0.576274573802948,0.6541598439216614
1772721562418157300,3.1241572265625,-2.068235397338867,-1.0426697731018066,0.15294526517391205
1772721562436753400,3.14275341796875,-2.720944404602051,-1.0225112438201904,-0.11797326058149338
1772721562455349500,3.161349609375,-3.04012131690979,-0.23938263952732086,-0.030314164236187935
1772721562473945600,3.179945556640625,-2.755458354949951,0.27924156188964844,-0.05352702736854553
1772721562492541700,3.198541748046875,-2.5660901069641113,-1.242117166519165,-0.7395281791687012
1772721562511137800,3.2171376953125,-2.656803607940674,-2.507828950881958,-0.9313397407531738
1772721562529734000,3.23573388671875,-2.4344489574432373,-2.1019093990325928,-0.6527853608131409
1772721562548330000,3.254330078125,-2.2982261180877686,-1.029841661453247,-0.6216312646865845
1772721562566926000,3.272926025390625,-2.5636467933654785,-0.09277509152889252,-0.6601157784461975
1772721562585522200,3.291522216796875,-2.9484915733337402,0.28901541233062744,-0.719369649887085
1772721562604118300,3.3101181640625,-3.325395107269287,0.6497310400009155,-0.8488729596138
1772721562622714400,3.32871435546875,-3.462228775024414,1.2886955738067627,-0.8452077507972717
1772721562641310500,3.347310546875,-3.224602460861206,1.877874732017517,-0.6430115103721619
1772721562659906600,3.365906494140625,-2.89809513092041,2.1069490909576416,-0.224569171667099
1772721562678502700,3.384502685546875,-2.682765483856201,1.9533164501190186,0.34720027446746826
1772721562697098800,3.4030986328125,-2.6006040573120117,1.402621865272522,0.8771254420280457
1772721562715694800,3.42169482421875,-2.6360342502593994,0.506483256816864,1.151098370552063
1772721562734291000,3.440291015625,-2.7563745975494385,-0.1703549176454544,0.898200273513794
1772721562752887300,3.45888720703125,-2.9487969875335693,-0.29161158204078674,0.2164752036333084
1772721562771483100,3.477483154296875,-3.1537420749664307,0.13935352861881256,-0.4515054225921631
1772721562790079500,3.49607958984375,-3.3009605407714844,0.6347648501396179,-0.6912698745727539
1772721562808675300,3.51467529296875,-3.330281972885132,0.877278208732605,-0.46433359384536743
1772721562827271700,3.533271728515625,-3.0550875663757324,0.8769727349281311,0.11690424382686615
1772721562845867800,3.55186767578125,-2.6259548664093018,0.7144827246665955,0.6666825413703918
1772721562864463600,3.570463623046875,-2.0712897777557373,0.7715985774993896,0.8252019882202148
1772721562883060000,3.58906005859375,-1.6742275953292847,0.5840631127357483,0.7577013969421387
1772721562901656000,3.607656005859375,-1.9808818101882935,-0.7763327956199646,0.34720027446746826
1772721562920252200,3.626252197265625,-2.704756498336792,-1.2689951658248901,-0.10972658544778824
1772721562938848300,3.64484814453125,-2.9710936546325684,-0.8447496294975281,-0.7801506519317627
1772721562957444400,3.6634443359375,-2.631758213043213,-0.566500723361969,-1.2609012126922607
1772721562976040400,3.68204052734375,-2.3174681663513184,-1.3645955324172974,-1.1124610900878906
1772721562994636500,3.700636474609375,-2.2869250774383545,-1.5738167762756348,-0.11950042098760605
1772721563013232600,3.719232666015625,-2.216370105743408,-0.6636282205581665,0.2632063627243042
1772721563031828700,3.737828857421875,-1.788459300994873,0.22701261937618256,0.0784197673201561
1772721563050424800,3.7564248046875,-1.6568180322647095,0.060551971197128296,0.23877176642417908
1772721563069021000,3.77502099609375,-1.9057453870773315,-0.3969857394695282,0.7430406212806702
1772721563087617000,3.793616943359375,-2.165057420730591,0.13904809951782227,0.9363793730735779
1772721563106213000,3.812213134765625,-2.26310133934021,1.0321323871612549,0.9363793730735779
1772721563124809200,3.830809326171875,-2.1171045303344727,1.6005420684814453,1.1911100149154663
1772721563143405300,3.8494052734375,-1.7936517000198364,1.5669444799423218,1.5808416604995728
1772721563162001400,3.86800146484375,-1.550832986831665,0.7996983528137207,1.7531055212020874
1772721563180597500,3.886597412109375,-1.5935934782028198,-0.20547963678836823,1.5084542036056519
1772721563199193900,3.90519384765625,-1.8996367454528809,-0.520380437374115,0.778776228427887
1772721563217789700,3.923789794921875,-2.3623669147491455,-0.16913318634033203,-0.22304199635982513
1772721563236386000,3.942385986328125,-2.8794639110565186,0.46463900804519653,-1.0828341245651245
1772721563254982100,3.960982177734375,-3.159850835800171,1.0067814588546753,-1.5730531215667725
1772721563273578200,3.979578125,-3.026376724243164,1.3225985765457153,-1.3821579217910767
1772721563292174300,3.99817431640625,-2.5181374549865723,1.2163081169128418,-0.7062360644340515
1772721563310770200,4.016770263671875,-1.873369574546814,0.9563851952552795,0.11079560220241547
1772721563329366500,4.035366455078125,-1.5612176656723022,0.6436223983764648,0.7109702229499817
1772721563347962600,4.053962646484375,-1.4234676361083984,0.47838348150253296,0.7109702229499817
1772721563366558700,4.072558837890625,-1.1849249601364136,0.24442227184772491,0.6147590279579163
1772721563385154800,4.09115478515625,-1.0664172172546387,-0.9379065036773682,0.7583122849464417
1772721563403751000,4.1097509765625,-1.2209659814834595,-1.7757076025009155,0.8206204771995544
1772721563422347000,4.128346923828125,-1.718515396118164,-2.1355068683624268,0.3297906219959259
1772721563440943000,4.146943115234375,-1.8431317806243896,-1.7793726921081543,-0.3476584255695343
1772721563459539200,4.165539306640625,-2.07037353515625,-2.3948190212249756,-0.8549816012382507
1772721563478135300,4.18413525390625,-2.210566997528076,-2.8465535640716553,-0.8519272804260254
1772721563496731400,4.2027314453125,-1.7227914333343506,-2.2961642742156982,-0.48265954852104187
1772721563515327500,4.221327392578125,-1.7759366035461426,-1.8432080745697021,0.12240202724933624
1772721563533923600,4.239923583984375,-2.260963201522827,-1.6269619464874268,0.40553784370422363
1772721563552519700,4.258519775390625,-2.6103780269622803,-0.8221476078033447,0.047265663743019104
1772721563571115800,4.27711572265625,-2.6635231971740723,0.20777037739753723,-0.44906195998191833
1772721563589712000,4.2957119140625,-2.5798346996307373,0.7602975964546204,-0.5858956575393677
1772721563608308200,4.31430810546875,-2.394131898880005,0.9081268310546875,-0.3690386712551117
1772721563626904000,4.332904052734375,-2.2029311656951904,0.77618008852005,-0.013515383005142212
1772721563645500400,4.35150048828125,-2.1085524559020996,0.5486329197883606,0.35727953910827637
1772721563664096300,4.37009619140625,-2.037386655807495,0.42768171429634094,0.510606586933136
1772721563682692600,4.388692626953125,-2.078620195388794,0.33910632133483887,0.44646579027175903
1772721563701288700,4.407288818359375,-2.291201114654541,0.3067304790019989,0.1608865112066269
1772721563719884800,4.425884765625,-2.573420524597168,0.591088056564331,-0.17967060208320618
1772721563738481000,4.44448095703125,-2.7181954383850098,0.8070287108421326,-0.5019017457962036
1772721563757077000,4.463076904296875,-2.6112942695617676,0.8528435826301575,-0.6836340427398682
1772721563775673000,4.481673095703125,-2.3513712882995605,0.5687914490699768,-0.4820486605167389
1772721563794269200,4.500269287109375,-2.185521364212036,0.24930918216705322,0.28061601519584656
1772721563812865300,4.518865234375,-2.297309637069702,0.06207913160324097,1.3331360816955566
1772721563831461400,4.53746142578125,-2.506836414337158,0.1989128440618515,1.7570761442184448
1772721563850057500,4.556057373046875,-2.7029240131378174,0.19708025455474854,1.4644719362258911
1772721563868653600,4.574653564453125,-2.757901668548584,-0.4534907341003418,0.8306997418403625
1772721563887249700,4.593249755859375,-2.645807981491089,-1.001741886138916,0.723798394203186
1772721563905845800,4.611845703125,-2.7255258560180664,-1.44584059715271,1.1208604574203491
1772721563924441900,4.63044189453125,-2.699564218521118,-1.8068616390228271,1.4186570644378662
1772721563943038000,4.649037841796875,-2.525773048400879,-1.989510178565979,1.3459641933441162
1772721563961634000,4.667634033203125,-2.492175579071045,-2.509967088699341,0.7470112442970276
1772721563980230100,4.686230224609375,-2.626565933227539,-2.2262203693389893,-0.34552037715911865
1772721563998826200,4.704826171875,-2.7145304679870605,-1.2732713222503662,-1.5929062366485596
1772721564017422300,4.72342236328125,-2.7450735569000244,-0.3872119188308716,-2.2718825340270996
1772721564036018400,4.742018310546875,-2.7056727409362793,-0.04085158184170723,-2.2688281536102295
1772721564054614800,4.76061474609375,-2.6705482006073,0.0031306820455938578,-1.6701806783676147
1772721564073210600,4.779210693359375,-2.7285802364349365,0.04711294546723366,-0.7896190881729126
1772721564091807000,4.797806884765625,-2.7389650344848633,0.46952593326568604,-0.036422811448574066
1772721564110402800,4.81640283203125,-2.5886921882629395,0.9902881383895874,0.3157407343387604
1772721564128999200,4.834999267578125,-2.3874123096466064,1.5333470106124878,0.38965538144111633
1772721564147595000,4.853594970703125,-2.2786784172058105,1.8051817417144775,0.48128509521484375
1772721564166191400,4.87219140625,-2.316246509552002,1.4279727935791016,0.5417606830596924
1772721564184787500,4.890787353515625,-2.5169155597686768,0.609108567237854,0.4947241246700287
1772721564203383600,4.909383544921875,-2.6842925548553467,-0.19784383475780487,0.2928332984447479
1772721564221979600,4.927979736328125,-2.679100275039673,-0.7344885468482971,-0.15065452456474304
1772721564240575500,4.946575439453125,-2.6192355155944824,-0.6187296509742737,-0.5196168422698975
1772721564259171800,4.965171875,-2.4747660160064697,-0.27145302295684814,-0.5611556768417358
1772721564277768000,4.983767822265625,-2.3504550457000732,-0.10774127393960953,-0.31986406445503235
1772721564296364000,5.002364013671875,-2.4356706142425537,-0.22319471836090088,-0.04833467677235603
1772721564314960100,5.020960205078125,-2.3785548210144043,-0.12759438157081604,0.17432554066181183
1772721564333556200,5.03955615234375,-2.0630431175231934,-0.4672352075576782,-0.041615162044763565
1772721564352152300,5.05815234375,-1.98515784740448,-1.248836636543274,-0.23342670500278473
1772721564370748400,5.07674853515625,-2.297004222869873,-1.4131592512130737,-0.03611737862229347
1772721564389344500,5.095344482421875,-2.3507604598999023,-0.6220894455909729,-0.18089233338832855
1772721564407940600,5.113940673828125,-1.9268202781677246,-0.16149736940860748,-0.7905353903770447
1772721564426536700,5.13253662109375,-1.9649993181228638,-1.363373875617981,-1.4166717529296875
1772721564445132800,5.1511328125,-2.2218680381774902,-2.320598840713501,-1.153999924659729
1772721564463729000,5.16972900390625,-2.1384849548339844,-1.7729586362838745,-0.7129555344581604
1772721564482325000,5.188324951171875,-1.8382447957992554,-0.5973494052886963,-0.5400808453559875
1772721564500921000,5.206921142578125,-1.939037561416626,-0.08147408813238144,-0.3229183852672577
1772721564519517200,5.22551708984375,-2.357785224914551,-0.0029779658652842045,-0.12133301794528961
1772721564538113300,5.24411328125,-2.690706729888916,0.4136318266391754,-0.09567669779062271
1772721564556709400,5.26270947265625,-2.763399600982666,0.8751401305198669,-0.2963457703590393
1772721564575305500,5.281305419921875,-2.593273639678955,1.0834450721740723,-0.36628979444503784
1772721564593901600,5.299901611328125,-2.2707371711730957,0.931950569152832,-0.17478369176387787
1772721564612497700,5.31849755859375,-1.8962769508361816,0.6048324704170227,0.24060437083244324
1772721564631093800,5.33709375,-1.6357431411743164,0.22823435068130493,0.7292962074279785
1772721564649689900,5.35568994140625,-1.679419994354248,-0.11049016565084457,1.0823760032653809
1772721564668286000,5.374285888671875,-2.017228126525879,-0.1450040340423584,1.0695478916168213
1772721564686882000,5.392882080078125,-2.4992005825042725,0.12866339087486267,0.6297252178192139
1772721564705478100,5.41147802734375,-2.8651084899902344,0.4857138693332672,-0.03520108386874199
1772721564724074200,5.43007421875,-2.9579598903656006,0.63568115234375,-0.617660641670227
1772721564742670300,5.44867041015625,-2.8403685092926025,0.4545597434043884,-0.699821949005127
1772721564761266400,5.467266357421875,-2.732550859451294,0.06635518372058868,0.07444914430379868
1772721564779862500,5.485862548828125,-2.528827428817749,-0.2015090137720108,0.9201914072036743
1772721564798458600,5.504458740234375,-2.2765402793884277,0.11369720846414566,0.9382119178771973
1772721564817054700,5.5230546875,-1.9634721279144287,0.4249328076839447,0.35880669951438904
1772721564835650800,5.54165087890625,-2.076482057571411,-0.27572908997535706,0.01183550525456667
1772721564854247000,5.560246826171875,-2.450636863708496,-1.0060179233551025,0.34720027446746826
1772721564872843000,5.578843017578125,-2.428645610809326,-1.380172610282898,0.529543399810791
1772721564891439000,5.597439208984375,-2.003789186477661,-1.5533528327941895,0.2012035846710205
1772721564910035200,5.61603515625,-1.6082541942596436,-2.3807690143585205,-0.2703840136528015
1772721564928631300,5.63463134765625,-1.8351905345916748,-2.343200922012329,-0.4502837061882019
1772721564947227400,5.653227294921875,-2.248745918273926,-1.214017391204834,-1.1347576379776
1772721564965823500,5.671823486328125,-2.718501091003418,0.1369100660085678,-1.9777511358261108
1772721564984419600,5.690419677734375,-3.115257740020752,0.5293906927108765,-2.4725515842437744
1772721565003015700,5.709015625,-3.2447609901428223,0.1375209391117096,-2.356792688369751
1772721565021611800,5.72761181640625,-3.1274750232696533,-0.3468948304653168,-1.6234495639801025
1772721565040208000,5.746207763671875,-2.9878923892974854,-0.040546149015426636,-0.3366628587245941
1772721565058804000,5.764803955078125,-2.7924156188964844,0.6805797219276428,0.5823832154273987
1772721565077400000,5.783400146484375,-2.578613042831421,1.403843641281128,0.7864120602607727
1772721565095996000,5.801995849609375,-2.4680464267730713,1.7602832317352295,0.5933787822723389
1772721565114592000,5.820592041015625,-2.52546763420105,1.653076410293579,0.2796997129917145
1772721565133188000,5.83918798828125,-2.720944404602051,1.2709804773330688,0.03993528336286545
1772721565151784200,5.8577841796875,-3.0413429737091064,0.848567545413971,-0.10483966767787933
1772721565170380300,5.87638037109375,-3.327227830886841,0.7092903852462769,-0.26702427864074707
1772721565188976400,5.894976318359375,-3.5391979217529297,0.7037925720214844,-0.49334967136383057
1772721565207572500,5.913572509765625,-3.5028512477874756,0.8687260746955872,-0.5257254838943481
1772721565226168600,5.93216845703125,-3.244150161743164,0.6857720613479614,-0.30978479981422424
1772721565244764700,5.9507646484375,-2.788139581680298,0.1781434416770935,0.19051344692707062
1772721565263360800,5.96936083984375,-2.3171627521514893,-0.3239873945713043,0.7402917742729187
1772721565281956900,5.987956787109375,-2.235917806625366,-0.284586638212204,1.018235206604004
1772721565300553000,6.006552978515625,-2.419177293777466,-0.4531853199005127,0.5423715710639954
1772721565319149000,6.025149169921875,-2.783252716064453,-0.5313760042190552,-0.16562071442604065
1772721565337745200,6.0437451171875,-3.1748170852661133,-0.4385245442390442,-0.36659523844718933
1772721565356341200,6.06234130859375,-3.0645558834075928,-0.4534907341003418,-0.21021384000778198
1772721565374937300,6.080937255859375,-2.735605239868164,-1.5991675853729248,-0.35040730237960815
1772721565393533400,6.099533447265625,-2.2676827907562256,-2.8248677253723145,-0.13599377870559692
1772721565412129500,6.118129638671875,-1.5355613231658936,-2.6602396965026855,0.40034550428390503
1772721565430725600,6.1367255859375,-1.0300707817077637,-1.852371096611023,0.586048424243927
1772721565449321700,6.15532177734375,-1.1864521503448486,-0.8820123672485352,0.566500723361969
1772721565467917800,6.173917724609375,-1.837328553199768,0.031841326504945755,0.4012618064880371
1772721565486514000,6.192513916015625,-2.5495967864990234,0.9734894037246704,0.093691386282444
1772721565505109800,6.21110986328125,-3.039510488510132,1.8687117099761963,-0.16012293100357056
1772721565523705900,6.229705810546875,-3.260338068008423,2.4423136711120605,-0.17753258347511292
1772721565542302000,6.248302001953125,-3.277747631072998,2.5085926055908203,0.04604393243789673
1772721565560898000,6.26689794921875,-3.1699299812316895,2.1478769779205322,0.3875173330307007
1772721565579494100,6.285494140625,-3.0224061012268066,1.4120903015136719,0.7726675868034363
1772721565598090200,6.30409033203125,-2.9038984775543213,0.2957349121570587,0.9434043169021606
1772721565616686300,6.322686279296875,-2.841590166091919,-0.6978366374969482,0.7546470761299133
1772721565635282400,6.341282470703125,-2.786001443862915,-1.2747983932495117,0.2836703360080719
1772721565653878500,6.35987841796875,-2.749960422515869,-1.2922080755233765,-0.2511417865753174
1772721565672474600,6.378474609375,-2.732245445251465,-0.50144362449646,-0.5602393746376038
1772721565691070700,6.39707080078125,-2.671464443206787,0.49884745478630066,-0.6457604169845581
1772721565709666800,6.415666748046875,-2.7001750469207764,0.9020181894302368,-0.37545275688171387
1772721565728263000,6.434262939453125,-2.669020891189575,1.1026872396469116,0.08727730810642242
1772721565746858800,6.452858642578125,-2.381303548812866,1.0742820501327515,0.14225514233112335
1772721565765455000,6.471455078125,-2.0297510623931885,0.9832631945610046,-0.008628465235233307
1772721565784051000,6.490051025390625,-2.106414556503296,0.13355031609535217,-0.22334744036197662
1772721565802647000,6.50864697265625,-2.3009748458862305,-0.3655261993408203,-0.173256516456604
1772721565821243100,6.5272431640625,-2.4634649753570557,-0.5093848705291748,-0.03275762498378754
1772721565839839200,6.545839111328125,-2.2899794578552246,-1.2451715469360352,-0.08284853398799896
1772721565858435300,6.564435302734375,-2.0383031368255615,-2.5029420852661133,-0.02237292192876339
1772721565877031400,6.583031494140625,-1.6079487800598145,-2.4192535877227783,0.61201012134552
1772721565895627500,6.60162744140625,-1.2215768098831177,-1.8529819250106812,1.0341176986694336
1772721565914223600,6.6202236328125,-1.2701406478881836,-1.187750220298767,1.0261764526367188
1772721565932819700,6.63881982421875,-1.6983567476272583,-0.6666825413703918,0.7332668304443359
1772721565951415800,6.657415771484375,-2.330601930618286,-0.2222784161567688,0.2732856273651123
1772721565970011600,6.67601171875,-2.8632760047912598,0.4398989975452423,-0.18272492289543152
1772721565988607700,6.694607666015625,-3.132361888885498,1.2288308143615723,-0.3946950137615204
1772721566007203800,6.713203857421875,-3.1051783561706543,1.6842305660247803,-0.3485747277736664
1772721566025800000,6.731800048828125,-2.9271113872528076,1.496389627456665,-0.05688678100705147
1772721566044396000,6.75039599609375,-2.722166061401367,0.9652426838874817,0.40309441089630127
1772721566062992100,6.7689921875,-2.514777660369873,0.47991064190864563,0.8734602928161621
1772721566081588200,6.787588134765625,-2.3547310829162598,0.1625663936138153,1.156596064567566
1772721566100184300,6.806184326171875,-2.2872304916381836,-0.00603228947147727,1.1703405380249023
1772721566118780400,6.824780517578125,-2.369697093963623,-0.05154171586036682,0.8670461773872375
1772721566137376500,6.84337646484375,-2.6076290607452393,-0.2063959389925003,0.34720027446746826
1772721566155972600,6.86197265625,-2.8437283039093018,-0.4956403970718384,-0.16623157262802124
1772721566174568400,6.880568359375,-2.827234983444214,-0.825812816619873,-0.5022072196006775
1772721566193164500,6.89916455078125,-2.461937665939331,-0.8447496294975281,-0.09781472384929657
1772721566211760600,6.9177607421875,-2.0102033615112305,-0.668515145778656,0.9818887710571289
1772721566230356700,6.936356689453125,-1.8602359294891357,-0.512133777141571,1.314504623413086
1772721566248952800,6.954952880859375,-1.9989023208618164,-0.5267944931983948,0.7201332449913025
1772721566267549000,6.973548828125,-2.339154005050659,-0.9757801294326782,0.23877176642417908
1772721566286145000,6.99214501953125,-2.3538146018981934,-1.3368011713027954,0.36430448293685913
1772721566304741000,7.0107412109375,-2.2930335998535156,-1.5878666639328003,0.3951531648635864
1772721566323337000,7.0293369140625,-2.375500440597534,-1.5887829065322876,0.33681556582450867
1772721566341933000,7.04793310546875,-2.425285816192627,-1.4485894441604614,0.21830779314041138
1772721566360529200,7.066529052734375,-2.355036497116089,-1.567402720451355,-0.0703258067369461
1772721566379125200,7.085125244140625,-2.5016438961029053,-1.633376121520996,-0.36079201102256775
1772721566397721300,7.103721435546875,-2.897789716720581,-1.100701928138733,-0.6756927967071533
1772721566416317400,7.1223173828125,-3.3428046703338623,-0.344451367855072,-1.0165553092956543
1772721566434913500,7.14091357421875,-3.517817497253418,0.037949975579977036,-1.0651191473007202
1772721566453509400,7.15950927734375,-3.3345580101013184,-0.17218750715255737,-0.673249363899231
1772721566472105700,7.178105712890625,-3.2172720432281494,-0.8368083834648132,-0.3730092942714691
1772721566490701600,7.19670166015625,-3.42863130569458,-0.8774309158325195,-0.2868773639202118
1772721566509297700,7.215297607421875,-3.54866623878479,-0.0732274129986763,-0.7196750640869141
1772721566527893800,7.233893798828125,-3.0352344512939453,0.6625592112541199,-1.4414118528366089
1772721566546489900,7.25248974609375,-2.3700027465820312,0.8632283210754395,-1.7327942848205566
1772721566565085700,7.271085693359375,-1.9332343339920044,0.6799688339233398,-1.4759256839752197
1772721566583682000,7.28968212890625,-1.7191262245178223,0.6640864014625549,-1.0538181066513062
1772721566602278000,7.30827783203125,-1.623220443725586,0.9887610077857971,-0.6231584548950195
1772721566620874000,7.3268740234375,-1.3923135995864868,1.338481068611145,-0.2923751473426819
1772721566639470000,7.345469970703125,-1.1995856761932373,1.318627953529358,-0.02542724646627903
1772721566658066200,7.364066162109375,-1.363602876663208,0.9927316308021545,0.3927097022533417
1772721566676662300,7.382662353515625,-1.5599958896636963,0.13477204740047455,0.8300888538360596
1772721566695258400,7.40125830078125,-1.4818052053451538,-0.6190351247787476,1.0167080163955688
1772721566713854500,7.4198544921875,-1.5251766443252563,-1.019762396812439,0.8099303245544434
1772721566732450300,7.4384501953125,-1.9527820348739624,-0.4116465151309967,0.48708829283714294
1772721566751046400,7.45704638671875,-2.531270980834961,0.524503767490387,0.41470083594322205
1772721566769642500,7.475642578125,-2.710559844970703,0.6399571895599365,0.4953349828720093
1772721566788238600,7.494238525390625,-2.531270980834961,0.08926261961460114,0.46021026372909546
1772721566806834700,7.512834716796875,-2.352898359298706,-1.05733060836792,0.2732856273651123
1772721566825430800,7.5314306640625,-2.2062909603118896,-1.9662973880767822,0.4687623679637909
1772721566844027000,7.55002685546875,-2.2313363552093506,-1.5322779417037964,0.5704713463783264
1772721566862622700,7.568622802734375,-2.550818681716919,-0.10713040828704834,0.06742420047521591
1772721566881218800,7.58721875,-2.8965680599212646,0.9398918151855469,-0.3882809281349182
1772721566899815000,7.60581494140625,-3.067304849624634,0.7657953500747681,-0.5272526741027832
1772721566918411000,7.624410888671875,-2.891375780105591,0.061162836849689484,-0.4041634202003479
1772721566937006800,7.6430068359375,-2.4405574798583984,-0.46143198013305664,-0.02328922040760517
1772721566955603000,7.66160302734375,-2.090532064437866,-0.45104727149009705,0.45501789450645447
1772721566974199000,7.680198974609375,-1.9222387075424194,-0.22594361007213593,0.6636282205581665
1772721566992795100,7.698795166015625,-1.927736520767212,-0.014889828860759735,0.6037634611129761
1772721567011391200,7.71739111328125,-2.146426200866699,0.10819942504167557,0.39362600445747375
1772721567029987300,7.7359873046875,-2.4888157844543457,0.06696604937314987,0.15141810476779938
1772721567048583400,7.75458349609375,-2.7667593955993652,0.05627591907978058,0.02741255611181259
1772721567067179300,7.77317919921875,-2.8064656257629395,0.12438733875751495,-0.0009926552884280682
1772721567085775400,7.791775390625,-2.536768674850464,0.22059854865074158,0.001450803829357028
1772721567104371500,7.810371337890625,-2.2316417694091797,0.0654388889670372,0.16974404454231262
1772721567122967600,7.828967529296875,-1.9225441217422485,-0.39912378787994385,0.4574613571166992
1772721567141563600,7.847563720703125,-1.864817500114441,-0.8734602928161621,0.4082867503166199
1772721567160159500,7.866159423828125,-2.0636539459228516,-1.2732713222503662,-0.05933023989200592
1772721567178755600,7.884755615234375,-2.3764166831970215,-1.5032618045806885,-0.6106356978416443
1772721567197351700,7.9033515625,-2.7142248153686523,-1.3594032526016235,-0.8455132246017456
1772721567215947800,7.92194775390625,-3.2728607654571533,-0.49105891585350037,-0.3693441152572632
1772721567234543900,7.9405439453125,-3.7872090339660645,-1.037782907485962,0.22288928925991058
1772721567253140000,7.959139892578125,-4.032776355743408,-3.8972408771514893,0.26687154173851013
1772721567271735800,7.97773583984375,-4.317745208740234,-6.464094638824463,-0.4041634202003479
1772721567290332000,7.996331787109375,-4.197404384613037,-5.827878952026367,-1.3100758790969849
1772721567308928000,8.014927978515624,-2.6561927795410156,-2.412228584289551,-2.4502549171447754
1772721567327524000,8.033524169921876,-2.0349433422088623,1.5861867666244507,-2.8592288494110107
1772721567346120200,8.0521201171875,-2.5306601524353027,2.8476226329803467,-2.7831761837005615
1772721567364716000,8.070716064453125,-3.2459826469421387,1.9985204935073853,-2.423682451248169
1772721567383312100,8.08931201171875,-3.322035312652588,0.7053197622299194,-1.754480004310608
1772721567401908200,8.107908203125,-2.612210512161255,-0.49625128507614136,-1.0309107303619385
1772721567420504300,8.12650439453125,-1.8211406469345093,-0.5991820096969604,-0.24350596964359283
1772721567439100400,8.145100341796875,-1.789681077003479,1.6399428844451904,-0.29420775175094604
1772721567457696300,8.1636962890625,-1.7194316387176514,2.423682451248169,-0.25725042819976807
1772721567476292400,8.182292236328125,-1.7948734760284424,2.761795997619629,0.14317142963409424
1772721567494888400,8.200888427734375,-2.065486431121826,2.7660720348358154,0.7714458703994751
1772721567513484500,8.219484619140625,-2.3700027465820312,2.6258785724639893,1.4498112201690674
1772721567532080400,8.238080322265626,-2.5700607299804688,1.9050581455230713,1.8254929780960083
1772721567550676500,8.256676513671875,-2.529132843017578,0.8855248689651489,1.8755840063095093
1772721567569272600,8.2752724609375,-2.3040292263031006,-0.16821688413619995,1.4999021291732788
1772721567587868700,8.29386865234375,-2.0276129245758057,-0.5115228891372681,0.8557451963424683
1772721567606464800,8.31246484375,-1.8070907592773438,0.02695440873503685,0.28000515699386597
1772721567625060600,8.331060546875,-1.9821034669876099,0.4817432463169098,0.053985174745321274
1772721567643656700,8.34965673828125,-2.6836817264556885,0.31864234805107117,0.2580140233039856
1772721567662252800,8.368252685546874,-3.1842854022979736,-0.44646579027175903,0.7091376781463623
1772721567680849000,8.386848876953126,-3.138470411300659,-0.8859829902648926,0.8053488731384277
1772721567699445000,8.405445068359375,-2.7667593955993652,-0.1340084671974182,0.6092612743377686
1772721567718040800,8.424040771484375,-2.5584545135498047,-0.20761767029762268,0.33803731203079224
1772721567736637000,8.442636962890624,-2.4292564392089844,-1.233870506286621,-0.36170831322669983
1772721567755233000,8.46123291015625,-2.741102933883667,-1.4788272380828857,-1.402927279472351
1772721567773829000,8.4798291015625,-2.861443281173706,-0.8328377604484558,-2.091982841491699
1772721567792425200,8.49842529296875,-2.827845811843872,-0.1608865112066269,-1.988135814666748
1772721567811021000,8.51702099609375,-3.028820276260376,0.5865065455436707,-0.9463059306144714
1772721567829617200,8.5356171875,-3.0526440143585205,0.8455132246017456,0.02130390889942646
1772721567848213200,8.554213134765625,-2.8095197677612305,0.27832525968551636,0.6428588032722473
1772721567866809300,8.572809326171875,-2.308305263519287,0.47899433970451355,0.7051670551300049
1772721567885405200,8.5914052734375,-1.9246822595596313,0.9566906094551086,0.5090794563293457
1772721567904001300,8.610001220703126,-1.7930408716201782,0.783815860748291,0.5826886296272278
1772721567922597400,8.628597412109375,-1.8345797061920166,0.23403756320476532,0.8655190467834473
1772721567941193500,8.647193359375,-2.062432289123535,-0.15141810476779938,1.268689751625061
1772721567959789600,8.66578955078125,-2.3898556232452393,-0.15813761949539185,1.4849358797073364
1772721567978385400,8.684385498046876,-2.6387832164764404,-0.13156500458717346,1.401247501373291
1772721567996981500,8.7029814453125,-2.8593053817749023,-0.4928915202617645,1.1000910997390747
1772721568015577600,8.72157763671875,-3.048062562942505,-0.6642391085624695,0.6269763112068176
1772721568034173400,8.74017333984375,-3.095404624938965,0.18486295640468597,-0.03611737862229347
1772721568052769500,8.75876953125,-3.0245442390441895,0.988455593585968,-0.5425242781639099
1772721568071365600,8.77736572265625,-2.8675520420074463,1.1506401300430298,-0.5110647678375244
1772721568089961700,8.795961669921875,-2.509279727935791,0.43165233731269836,0.054901473224163055
1772721568108557800,8.814557861328124,-2.336099624633789,-0.8749874234199524,0.44524407386779785
1772721568127153700,8.833153564453125,-2.422231674194336,-1.4455351829528809,0.24060437083244324
1772721568145749800,8.851749755859375,-2.5019493103027344,-0.5130500793457031,0.10010546445846558
1772721568164345900,8.870345947265625,-2.2924227714538574,0.6753873825073242,0.5781071782112122
1772721568182941700,8.888941650390626,-2.1106905937194824,0.15462514758110046,0.8169552683830261
1772721568201537800,8.907537841796875,-2.2621850967407227,-2.9219954013824463,0.004505127668380737
1772721568220134000,8.9261337890625,-2.3183846473693848,-4.557585716247559,-0.6430115103721619
1772721568238730000,8.94472998046875,-2.04838228225708,-2.8416666984558105,-0.8632283210754395
1772721568257325800,8.963325927734376,-1.9469788074493408,-1.0344231128692627,-0.5984184145927429
1772721568275922000,8.981921875,-2.2343907356262207,-0.8923971056938171,0.07139482349157333
1772721568294518000,9.00051806640625,-2.512334108352661,-2.0374631881713867,0.4067595899105072
1772721568313114000,9.019114013671874,-2.5972442626953125,-2.3551127910614014,-0.0755181610584259
1772721568331710200,9.037710205078126,-2.660163402557373,-0.9528726935386658,-0.9621883630752563
1772721568350306000,9.05630615234375,-2.9075636863708496,0.7337249517440796,-1.6759839057922363
1772721568368902100,9.074902099609375,-3.20444393157959,1.8064035177230835,-1.774333119392395
1772721568387498200,9.093498291015624,-3.268890142440796,2.18025279045105,-1.1475858688354492
1772721568406094000,9.112093994140626,-3.096320867538452,1.8803181648254395,-0.15370884537696838
1772721568424690200,9.130690185546875,-2.8373141288757324,1.0916917324066162,0.7271581888198853
1772721568443286300,9.149286376953125,-2.5975496768951416,0.26946771144866943,1.2466986179351807
1772721568461882400,9.16788232421875,-2.3877177238464355,-0.35789039731025696,1.2671626806259155
1772721568480478200,9.186478271484376,-2.2362232208251953,-0.5240456461906433,0.8658244609832764
1772721568499074800,9.20507470703125,-2.154367446899414,-0.3661370873451233,0.30596688389778137
1772721568517671000,9.2236708984375,-2.059072494506836,-0.2986365258693695,-0.006185005884617567
1772721568536267000,9.24226708984375,-1.9912664890289307,0.07460185885429382,0.18287764489650726
1772721568554863000,9.260863037109376,-2.137263059616089,0.16562071442604065,0.6437751054763794
1772721568573459000,9.279458984375,-2.2698206901550293,-0.4110356271266937,0.8242856860160828
1772721568592055000,9.298054931640625,-2.341902732849121,-0.9962440729141235,0.5991820096969604
1772721568610651100,9.316651123046874,-2.369697093963623,-1.0093777179718018,0.34811657667160034
1772721568629247000,9.3352470703125,-2.291811943054199,-0.9602030515670776,0.5185478329658508
1772721568647843000,9.353843017578125,-2.310748815536499,-1.092455267906189,0.7818305492401123
1772721568666439200,9.372439208984375,-2.5612032413482666,-1.491960883140564,0.8227584958076477
1772721568685035300,9.39103515625,-2.832732677459717,-2.3358705043792725,0.1190422773361206
1772721568703631000,9.409631103515625,-2.92314076423645,-2.317239284515381,-0.9450841546058655
1772721568722227200,9.428227294921875,-2.860832452774048,-0.8459713459014893,-1.1488075256347656
1772721568740823300,9.4468232421875,-2.7927210330963135,0.2044106274843216,-0.3482692837715149
1772721568759419100,9.465419189453126,-2.9466590881347656,-0.005421424750238657,0.677067220211029
1772721568778015200,9.48401513671875,-3.2368197441101074,-0.5402335524559021,1.1767545938491821
1772721568796611300,9.502611328125,-3.3299765586853027,-0.5930733680725098,0.9815833568572998
1772721568815207200,9.521207275390625,-3.1864233016967773,0.19097159802913666,0.3762163519859314
1772721568833803300,9.53980322265625,-3.0447027683258057,0.8876628875732422,-0.10453423857688904
1772721568852399400,9.5583994140625,-3.0352344512939453,1.1701878309249878,-0.24869832396507263
1772721568870995500,9.576995361328125,-3.1809256076812744,0.8876628875732422,-0.12530364096164703
1772721568889591300,9.59559130859375,-3.3938119411468506,0.5223657488822937,0.03138317912817001
1772721568908187400,9.6141875,-3.472613573074341,0.3797288239002228,0.10804671049118042
1772721568926783500,9.632783447265625,-3.35288405418396,0.4808269441127777,0.07414371520280838
1772721568945379300,9.65137939453125,-3.006523609161377,0.9224821925163269,-0.08712458610534668
1772721568963975400,9.669975341796874,-2.4885103702545166,0.8415426015853882,-0.2596938908100128
1772721568982571500,9.688571533203126,-2.028223752975464,0.008933897130191326,-0.33452481031417847
1772721569001167400,9.70716748046875,-1.9317071437835693,-1.1016182899475098,-0.12866339087486267
1772721569019763500,9.725763427734375,-2.109468698501587,-1.5612939596176147,-0.01259908638894558
1772721569038359600,9.744359619140624,-2.2059855461120605,-1.075656533241272,-0.5165625214576721
1772721569056955400,9.762955322265626,-2.00104022026062,0.16928590834140778,-1.2386046648025513
1772721569075551500,9.781551513671875,-1.871842384338379,1.367802619934082,-0.885830283164978
1772721569094147600,9.800147705078125,-1.9787437915802002,0.581314206123352,-0.3216966688632965
1772721569112743400,9.818743408203124,-2.012341260910034,-1.7072906494140625,-0.25847217440605164
1772721569131339500,9.837339599609376,-1.6937752962112427,-3.4506988525390625,-0.04069886729121208
1772721569149935600,9.855935546875,-1.1485785245895386,-3.0124032497406006,-0.011377356946468353
1772721569168531700,9.87453173828125,-0.9903645515441895,-1.4088832139968872,-0.2868773639202118
1772721569187127600,9.89312744140625,-1.319009780883789,-0.8416953086853027,-0.1943313628435135
1772721569205723600,9.9117236328125,-1.6424627304077148,-1.1507928371429443,0.18409937620162964
1772721569224319700,9.93031982421875,-1.7258456945419312,-1.475467562675476,0.26626068353652954
1772721569242915600,9.94891552734375,-1.7765475511550903,-1.1449897289276123,-0.06727148592472076
1772721569261511700,9.96751171875,-1.9982913732528687,-0.24029892683029175,-0.544967770576477
1772721569280107800,9.986107666015625,-2.1815507411956787,0.6494256258010864,-0.8082504868507385
1772721569298703600,10.00470361328125,-2.1638357639312744,1.2670098543167114,-0.6857720613479614
1772721569317299700,10.0232998046875,-1.9879066944122314,1.4191151857376099,-0.2138790339231491
1772721569335895800,10.041895751953126,-1.772882342338562,1.098105788230896,0.2943604588508606
1772721569354491600,10.06049169921875,-1.54930579662323,0.6979893445968628,0.5640572905540466
1772721569373087700,10.079087646484375,-1.336724877357483,0.4960985481739044,0.5371792316436768
1772721569391683800,10.097683837890624,-1.1690424680709839,0.4719693958759308,0.2473238706588745
1772721569410279700,10.11627978515625,-0.9882264733314514,0.5489383339881897,-0.12377647310495377
1772721569428875800,10.134875732421875,-0.7194460034370422,0.7905353903770447,-0.12530364096164703
1772721569447471600,10.1534716796875,-0.5508472919464111,0.6179660558700562,0.44035714864730835
1772721569466067700,10.172067626953124,-0.671187698841095,0.07124210149049759,1.1110867261886597
1772721569484663800,10.190663818359376,-0.9585995674133301,-0.26015204191207886,1.0249547958374023
1772721569503259600,10.209259765625,-1.134528636932373,-0.2876409590244293,0.3664425015449524
1772721569521855700,10.227855712890625,-1.0917680263519287,-0.1755472719669342,0.15294526517391205
1772721569540451800,10.246451904296874,-0.9555452466011047,0.010155626572668552,0.8548288941383362
1772721569559047700,10.265047607421875,-1.0596976280212402,-0.5341249108314514,1.2525018453598022
1772721569577643800,10.283643798828125,-1.1284199953079224,-1.2925134897232056,1.0386991500854492
1772721569596240000,10.302239990234375,-1.1846195459365845,-1.7176754474639893,0.5161044001579285
1772721569614835700,10.320835693359374,-1.3000729084014893,-1.6248239278793335,-0.3690386712551117
1772721569633431800,10.339431884765625,-1.6006184816360474,-1.4305689334869385,-1.4102576971054077
1772721569652028000,10.35802783203125,-2.1088578701019287,-0.900338351726532,-2.2040765285491943
1772721569670623700,10.376623779296875,-2.570366382598877,-0.017944153398275375,-2.412992238998413
1772721569689219800,10.3952197265625,-2.693760871887207,0.3641517758369446,-1.9462915658950806
1772721569707815700,10.413815673828125,-2.3855795860290527,0.03764454275369644,-0.9918153285980225
1772721569726411800,10.432411865234375,-2.04838228225708,-0.3701077103614807,0.08575014024972916
1772721569745007900,10.4510078125,-2.015090227127075,-0.4956403970718384,0.88995361328125
1772721569763603700,10.469603759765626,-2.087783098220825,-0.35819584131240845,1.0167080163955688
1772721569782199800,10.48819970703125,-1.9646939039230347,0.33910632133483887,0.5096902847290039
1772721569800796000,10.5067958984375,-1.6943861246109009,1.3140465021133423,-0.07979421317577362
1772721569819391700,10.525391845703124,-1.440266489982605,1.6494113206863403,-0.14668390154838562
1772721569837987800,10.54398779296875,-1.2014182806015015,1.0232748985290527,0.16394083201885223
1772721569856584000,10.562583984375,-1.0267109870910645,0.011377356946468353,0.46570804715156555
1772721569875179800,10.5811796875,-0.9720385670661926,-0.6135373115539551,0.5832995176315308
1772721569893776000,10.59977587890625,-0.9210313558578491,-0.4953349828720093,0.390571653842926
1772721569912372000,10.6183720703125,-0.8929315805435181,-0.1599702090024948,0.1141553521156311
1772721569930967800,10.6369677734375,-0.8419243693351746,-0.22075125575065613,-0.04833467677235603
1772721569949564000,10.65556396484375,-0.6485856771469116,-0.7793871164321899,-0.11430807411670685
1772721569968159700,10.67415966796875,-0.5761982202529907,-1.9354486465454102,-0.5125918984413147
1772721569986755800,10.692755859375,-0.6944005489349365,-2.435441493988037,-1.0498474836349487
1772721570005352000,10.71135205078125,-1.0404554605484009,-1.1969131231307983,-1.1045198440551758
1772721570023947800,10.72994775390625,-1.1864521503448486,1.3048834800720215,-0.6402626633644104
1772721570042543900,10.7485439453125,-1.225242018699646,1.513188362121582,-0.20502148568630219
1772721570061140000,10.767139892578125,-1.3098467588424683,-0.8804852366447449,-0.14912736415863037
1772721570079735800,10.78573583984375,-1.4427099227905273,-2.5093562602996826,-0.19555309414863586
1772721570098332000,10.804331787109374,-1.3547453880310059,-2.468428134918213,-0.29481860995292664
1772721570116928000,10.822927978515626,-1.1714859008789062,-1.3276382684707642,-0.46952593326568604
1772721570135523800,10.84152392578125,-1.208748698234558,0.0651334598660469,-0.46952593326568604
1772721570154120000,10.860119873046875,-1.724318504333496,0.349185585975647,-0.05199986323714256
1772721570172716000,10.878716064453124,-2.224311351776123,-0.10071633011102676,0.20517420768737793
1772721570191312000,10.897311767578126,-2.0795364379882812,-0.10193806141614914,-0.04283689334988594
1772721570209908000,10.915907958984375,-1.4188861846923828,0.28351762890815735,-0.2716057598590851
1772721570228503800,10.93450390625,-0.9253074526786804,0.5067886710166931,-0.13049599528312683
1772721570247100000,10.953099853515624,-0.9640973210334778,0.571540355682373,0.4544070363044739
1772721570265696000,10.971696044921876,-1.0135773420333862,0.9145409464836121,1.0335068702697754
1772721570284291800,10.990291748046875,-1.0022764205932617,0.5296961069107056,1.140102744102478
1772721570302888000,11.008887939453125,-0.929888904094696,0.39164069294929504,0.6544652581214905
1772721570321484000,11.027484130859374,-0.6394227147102356,0.5776489973068237,-0.02909243479371071
1772721570340079900,11.046079833984376,-0.05146535858511925,0.3128391206264496,-0.6143009066581726
