time,seconds_elapsed,z,y,x
1772795489049769200,0.067769287109375,0.021433833172917364,0.004874912559986114,0.01717931753359735
1772795489059762200,0.07776220703125,0.04159983836710453,-0.016612842757254838,0.0006827215671539307
1772795489069754400,0.08775439453125,0.029765023666620254,-0.00923245018236339,-0.003941723363101482
1772795489079746300,0.097746337890625,-0.002973462852835655,-0.02739464127346873,0.0005096300225704908
1772795489089738200,0.10773828125,-0.03434007649719715,-0.044950683164969085,-0.012987930258363485
1772795489099730700,0.117730712890625,-0.02453355275392532,-0.01337714877165854,-0.00897949833460152
1772795489109723600,0.1277236328125,-0.02860650128126144,-0.01201557809486985,-0.011527575382217764
1772795489119715600,0.137715576171875,0.0008709376156330108,-0.009549918633699417,-0.010297558663226663
1772795489129707500,0.14770751953125,0.014009820652008056,0.004581482571363449,-0.015978965300507842
1772795489139699700,0.15769970703125,0.019756255349516867,-0.009482917812094092,-0.016421156110055745
1772795489149691600,0.167691650390625,0.004651625198125839,-0.006709726771712303,-0.0074095090715214605
1772795489159683600,0.17768359375,-0.001995557731389999,-0.022530980759859084,-0.03228822200130671
1772795489169676500,0.187676513671875,-0.018123685711622237,-0.02539272686652839,-0.025425642755441367
1772795489179668700,0.197668701171875,-0.014082885888218879,-0.02762793857268989,-0.01890668931547552
1772795489189660700,0.20766064453125,-0.010776830080151557,0.004853577511012554,-0.015556977028772234
1772795489199652600,0.217652587890625,-0.015236732098460196,0.006258841199055314,-0.017509608933888376
1772795489209644500,0.22764453125,-0.008427636605501174,0.03158719759248197,-0.01163118188716471
1772795489219637800,0.2376376953125,-0.008189736196398735,0.03993395098149776,-0.006253982360847294
1772795489229629400,0.24762939453125,-0.018839140504598617,0.03938654623180628,-0.0059164575021713964
1772795489239621600,0.25762158203125,-0.001025251394510269,0.03864551860615611,0.018071078741550443
1772795489249613600,0.267613525390625,-0.005486906978487968,0.04171498917937279,0.007199044658616185
1772795489259605800,0.277605712890625,-0.006468319231271743,0.011957564297318458,0.01570128087028861
1772795489269597400,0.287597412109375,-0.020001754543185233,0.003996887616440654,0.021476905129663645
1772795489279590700,0.297590576171875,-0.004471007934212685,-0.012650588062778115,0.02298986697588116
1772795489289582800,0.307582763671875,-0.01722293747961521,-0.017228636568039656,0.037456272288970645
1772795489299574500,0.317574462890625,-0.006193009421229362,-0.006903788039088248,0.03411770245078951
1772795489309566700,0.327566650390625,-0.0022398878812789915,-0.03300860869772732,0.02805047483369708
1772795489319558700,0.33755859375,-0.008501286363601684,-0.029654329833760856,0.018562953911721705
1772795489329551600,0.347551513671875,-0.002827332380414009,-0.014625176071375607,-0.005919051318056881
1772795489339543600,0.35754345703125,0.017177929294109343,-0.018423764636740086,-0.0073243880713358515
1772795489349535700,0.36753564453125,-0.003988192853331566,-0.020239801082760096,0.003602700667083263
1772795489359527700,0.377527587890625,0.009566869768500328,-0.02769808119945228,0.027751528419740497
1772795489369519600,0.38751953125,0.0044184009641408915,-0.02919562628082931,0.008757416549138725
1772795489379511600,0.397511474609375,-0.010734744504094123,-0.021932722605764864,0.010125782292895019
1772795489389504800,0.4075048828125,-0.009273439779877662,-0.033694618200510736,0.007005604445748031
1772795489399496400,0.417496337890625,-0.01153787758052349,-0.03648950961604714,0.03036419513616711
1772795489409488600,0.427488525390625,-0.012567220628261565,-0.03442541669309139,-0.003122004478052258
1772795489419480600,0.43748046875,-0.015233809489011764,-0.03127140964157879,-0.0057748936070129275
1772795489429472800,0.44747265625,0.0024146599262952805,-0.010534253495931624,0.004844663552194833
1772795489439464400,0.45746435546875,-0.00959726490676403,0.004092091619223356,-0.013453100084699689
1772795489449457700,0.467457763671875,-0.012176760005950927,0.010752937747910618,-0.01733311985582113
1772795489459449600,0.47744970703125,-0.009537059152126312,0.006431640482693911,-0.00973316624611616
1772795489469441500,0.487441650390625,-0.018894085562229157,0.019870310183241962,-0.021263079715892672
1772795489479433500,0.49743359375,-0.004053074783086776,0.009849193841218948,-0.019158837445639072
1772795489489425700,0.50742578125,0.0009726444244384765,0.02307480531297624,-0.02110467428378761
1772795489499418600,0.517418701171875,-0.011760580420494078,0.01828033757805824,-0.006037964989989995
1772795489509410600,0.52741064453125,-0.014880758267641066,0.025277941380441187,-0.002171864146366715
1772795489519402800,0.53740283203125,0.012260346636176108,-0.000653641603142023,-0.015672895026020706
1772795489529394700,0.547394775390625,-0.012182605224847792,0.005469079060852527,-0.02158650298397988
1772795489539386600,0.55738671875,-0.004603109881281852,0.013470380013063549,-0.017622677386924624
1772795489549378600,0.567378662109375,-0.0022626842349767686,-0.010587152726948261,-0.0037526305317878723
1772795489559371800,0.577371826171875,0.008144728010892867,-0.012885200536251067,-0.006947590648196637
1772795489569363700,0.58736376953125,0.004966682496666908,-0.008451675068214535,-0.016627455804497003
1772795489579355600,0.597355712890625,0.012185527834296226,-0.018253157310187815,-0.021100253836996853
1772795489589347600,0.60734765625,-0.005773907226324081,-0.022173691754788158,-0.018234123816154895
1772795489599339800,0.61733984375,-0.0017038813084363936,-0.02786583898179233,-0.023945231471955774
1772795489609332500,0.62733251953125,-0.01770049186348915,-0.01302029815800488,-0.005153912164457142
1772795489619324700,0.63732470703125,-0.009143675920367241,0.0007103402264416217,0.00758340433370322
1772795489629316600,0.647316650390625,-0.01756546730697155,0.008285013264417648,0.0073169354172423475
1772795489639308800,0.657308837890625,-0.001855272477865219,0.015513868539407848,0.015965229036100207
1772795489649300500,0.667300537109375,-0.012723287972807883,-0.0012642477821558713,0.033925833140499885
1772795489659292700,0.677292724609375,-0.00020458266139030456,0.01380428814254701,0.03518657379131764
1772795489669285600,0.68728564453125,-0.011880407407879828,0.01594641473777592,0.04869085607398301
1772795489679277600,0.697277587890625,-0.015133856245875358,0.017547274063155056,0.03364588368795812
1772795489689269500,0.70726953125,-0.008767828345298767,0.010971621999889611,0.028114333850145338
1772795489699261700,0.71726171875,-0.003545125260949135,0.015310308791324495,0.011627711288444698
1772795489709253600,0.727253662109375,-0.01746434502005577,0.009705255325883627,0.014879004701972006
1772795489719246600,0.73724658203125,-0.0174456403195858,0.003414923010021448,-0.00829805540908128
1772795489729238500,0.747238525390625,-0.006185410636663437,-0.013025778050720692,-0.006515848167426883
1772795489739230700,0.757230712890625,0.004155366113781929,-0.017527546449378133,-0.012274813552945851
1772795489749222400,0.767222412109375,-0.01380523799061775,-0.027648835230246183,-0.022931122525967657
1772795489759214600,0.777214599609375,0.009466332003474236,-0.03986373528949916,-0.027785467221960423
1772795489769206500,0.78720654296875,0.028484920728206634,-0.05191833022050559,-0.03511109740231186
1772795489779199500,0.797199462890625,0.014827566775679587,-0.053841407237574454,-0.029979506667517124
1772795489789191700,0.807191650390625,-0.0005360065728425979,-0.05389949410036206,-0.008419014907628298
1772795489799183600,0.81718359375,-0.012043489015102386,-0.03689246439374983,-0.012979710419289766
1772795489809175800,0.82717578125,0.0002297171026468277,-0.03863989258296788,-0.0076601958969607946
1772795489819167500,0.83716748046875,0.0059212067425251005,-0.009822232769057153,0.005484349695220589
1772795489829160700,0.84716064453125,0.0012999766826629637,0.0012017770051956176,0.008764248148724436
1772795489839152600,0.857152587890625,-0.007934300130605696,0.025082345743104813,-0.005555551767908036
1772795489849144600,0.86714453125,0.002319382858276367,0.05203706122934818,-0.006311228973418474
1772795489859136500,0.877136474609375,-0.009238368466496467,0.0699986151818186,-0.012828684576041995
1772795489869128700,0.887128662109375,-0.006996142497658729,0.07891958826221525,-0.018250782690010965
1772795489879120600,0.89712060546875,-0.0209966107994318,0.08279182658568024,-0.011271372131444513
1772795489889113600,0.907113525390625,-0.010886135673522949,0.06982968835569918,-0.037407172450236975
1772795489899105500,0.91710546875,0.0022281974434852597,0.04185359393246472,-0.0335815862800926
1772795489909097700,0.92709765625,-0.0006833060890436172,0.05170329923033714,-0.0006531666791066527
1772795489919089700,0.937089599609375,-0.009004559710621833,-0.0014658347688615322,0.021154797035828232
1772795489929081600,0.94708154296875,-0.0009030863195657729,-0.03706628659069538,0.032988844551332296
1772795489939074600,0.957074462890625,-0.010802549043297766,-0.058957508142292496,0.04699873826857656
1772795489949066800,0.967066650390625,-0.02715922508239746,-0.0749288381256163,0.04421758311744779
1772795489959058400,0.977058349609375,-0.0004085808008909225,-0.08036343039497733,0.059233767800405616
1772795489969050600,0.987050537109375,-0.021192425632476804,-0.08153861165419221,0.022900069800578057
1772795489979042600,0.99704248046875,-0.012018354573845863,-0.06101122580170631,-0.011563779206760227
1772795489989034800,1.00703466796875,-0.006118775141239166,-0.04781126022785902,-0.015104337890446184
1772795489999027700,1.01702783203125,0.00322246917784214,-0.01617079807817936,-0.02548771167360246
1772795490009019600,1.02701953125,-0.012301847690343856,-0.01344027713574469,-0.04240399435684085
1772795490019011800,1.03701171875,-0.001346153911948204,0.013725304622203111,-0.04048617803677916
1772795490029003500,1.04700341796875,-0.0008960720568895339,0.03708338385596871,-0.021283318786323068
1772795490038995700,1.05699560546875,0.0005558803170919418,0.022961700327321886,-0.0033716683901846406
1772795490048987600,1.066987548828125,-0.009406126248836516,0.01968457835279405,0.001202617255412042
1772795490058980600,1.076980712890625,-0.016393500918149947,0.00914528335556388,0.015611337564513087
1772795490068972500,1.08697265625,0.003692424777150154,-0.005211670233681798,0.01842223026677966
1772795490078964700,1.09696484375,-0.008683657193183899,-0.015685864105448127,0.027463724454306063
1772795490088956700,1.106956787109375,-0.01476911458671093,-0.03145816438533366,0.03245166893471032
1772795490098947800,1.11694775390625,-0.008842062625288962,-0.021576164253056047,0.024539799831621346
1772795490108940800,1.12694091796875,-0.014689619609713553,-0.014658932210505007,0.015849493701942264
1772795490118932700,1.1369326171875,-0.006725508862733841,0.012196999076381325,0.005474668551422655
1772795490128925000,1.146925048828125,-0.01276478902697563,0.00809884304255247,0.008291369939967989
1772795490138916600,1.15691650390625,-0.0006599252134561538,0.004353519034385681,0.023432788437791167
1772795490148908800,1.16690869140625,-0.006340893459320068,0.029413945206627247,-0.004358085611648858
1772795490158900700,1.176900634765625,-0.008440496087074279,0.027823826470971105,0.005157090502232313
1772795490168893700,1.186893798828125,0.026075521498918532,0.04072312859781086,-0.0014880831332877277
1772795490178885600,1.1968857421875,0.012353870138525963,0.02498356154374778,-0.007519106925837695
1772795490188877800,1.2068779296875,-0.01158756194114685,0.01464146961905062,0.019198256140574813
1772795490198869800,1.216869873046875,-0.012984569257497787,-0.010046177718043326,0.03634089492559433
1772795490208862000,1.226862060546875,-0.00020575170516967773,0.0015527823999524116,0.026292232989519833
1772795490218854700,1.236854736328125,-0.00811199478507042,0.002691138780117035,0.022000161818787455
1772795490228846800,1.246846923828125,-0.006849427503347397,-0.002260053886473179,0.020006686446629462
1772795490238838800,1.2568388671875,-0.010943418818712233,-0.016982918178662657,0.011175072150118648
1772795490248830700,1.266830810546875,-0.016624387064576147,-0.028118644699081777,0.010670227900519967
1772795490258822700,1.27682275390625,-0.004900631523132324,-0.04201397212594747,0.0019844518154859543
1772795490268814800,1.28681494140625,-0.0015209259569644927,-0.0221010649099946,-0.005189312271401286
1772795490278807600,1.2968076171875,-0.010677461358904837,-0.02500913437642157,-0.020604835002869366
1772795490288799700,1.3067998046875,-0.016180734950304032,-0.012091712071001529,-0.040557087848521765
1772795490298791700,1.316791748046875,-0.02374853985607624,-0.003132525872066617,-0.04074439058154821
1772795490308783900,1.326783935546875,-0.015129180070757866,-0.01325914841517806,-0.023350334318727253
1772795490318775600,1.336775634765625,-0.008481997141242027,-0.015977832789346575,-0.04134542521461844
1772795490328767700,1.346767822265625,-0.005598550659418106,-0.02259301314540207,-0.0593085866022855
1772795490338761000,1.356760986328125,0.0036690439015626907,-0.035442557846382255,-0.04597162371054291
1772795490348752600,1.366752685546875,-0.008870119675993918,-0.013661664801463485,-0.06619556963704526
1772795490358744800,1.376744873046875,0.0033440497308969497,-0.0038421354461461305,-0.04790127659887075
1772795490368736800,1.38673681640625,-0.03630114743709564,0.004915536831319332,-0.06317717166393995
1772795490378729000,1.39672900390625,-0.022001988449692724,0.022102891540899873,-0.07224876872878522
1772795490388721700,1.4067216796875,-0.018944938966631887,0.017838585159927606,-0.04970942199937999
1772795490398713900,1.4167138671875,-0.022469021439552306,0.029483576376736164,-0.034187552816607056
1772795490408705800,1.426705810546875,-0.006817863321304321,0.023724063001945614,-0.01602499639932066
1772795490418697700,1.43669775390625,0.008561492118239403,0.0074071344513446085,-0.011517455847002565
1772795490428689700,1.446689697265625,0.016199439650774,-0.014769041521474718,0.024804953573830425
1772795490438683000,1.456682861328125,-0.015934651234745977,-0.030694851862639188,0.05552051943093538
1772795490448674600,1.466674560546875,-0.0039139585733413695,-0.04257598992288113,0.04506185192186385
1772795490458666800,1.476666748046875,-0.009510755667090415,-0.049220688634365795,0.06893171660266816
1772795490468658700,1.48665869140625,0.0012345102310180663,-0.03273958249799907,0.06920991248954086
1772795490478651000,1.49665087890625,0.01395779820382595,-0.029274244474992155,0.06978672599680721
1772795490488642800,1.506642822265625,0.009224339941143989,-0.01690941455103457,0.0484632943958044
1772795490498635800,1.5166357421875,-0.0016074351966381072,-0.013089417871460318,0.05979381283596158
1772795490508627700,1.526627685546875,-0.0019686697244644166,0.016888810154423117,0.05130969680286944
1772795490518619600,1.53661962890625,-0.006342647024989128,0.03386902491934597,0.05139434287901967
1772795490528611600,1.546611572265625,-0.014297989943623543,0.03814107621535658,0.025308482649177313
1772795490538603800,1.556603759765625,-0.012827332869172096,0.010161255465075373,0.019023557160794735
1772795490548595700,1.566595703125,-0.024819383957982062,0.023101108798012138,-0.013510492827743291
1772795490558588700,1.576588623046875,-0.014338321954011916,0.02472870999984443,-0.02341675061844289
1772795490568580900,1.586580810546875,-0.009971358916163443,0.02844181223884225,-0.0516355312237516
1772795490578572800,1.59657275390625,-0.0054489130556583405,0.009672595165297388,-0.0531031560909003
1772795490588564700,1.606564697265625,-0.010679214924573898,0.012001622634753585,-0.06663242668434977
1772795490598556700,1.616556640625,-0.005175356811285018,-0.0036512159839272498,-0.0656671983813867
1772795490608550000,1.6265498046875,-0.016496961292624474,-0.022450462869554755,-0.06472542401924729
1772795490618541800,1.636541748046875,-0.02369534836411476,-0.0160873575784266,-0.06947448170986026
1772795490628533800,1.64653369140625,-0.01149345391690731,-0.027664836516976356,-0.04797905454281717
1772795490638525700,1.656525634765625,-0.012187281399965286,-0.026780601028352974,-0.034864246501773596
1772795490648518000,1.666517822265625,-0.02190846494734287,-0.025669351850822565,-0.024176446411944923
1772795490658509800,1.676509765625,-0.006365443378686905,-0.010311331460252404,-0.023601824861764906
1772795490668502800,1.686502685546875,-0.0017740239351987839,0.0008110241219401359,-0.020079751682840288
1772795490678494700,1.69649462890625,0.011486439654231071,-0.015132468006387352,-0.028814773737080395
1772795490688487000,1.70648681640625,0.007867080113291739,-0.010830386898294091,-0.0270636192208156
1772795490698478600,1.716478515625,0.013562076884508133,-0.015206994547322392,0.024082557583414016
1772795490708470800,1.726470703125,0.009446458259224891,-0.03050787792317569,0.026778701332211493
1772795490718463700,1.736463623046875,-0.0034451720178127285,-0.025004239005595445,0.05388517331406474
1772795490728455700,1.74645556640625,-0.0162649061024189,-0.04844049804210662,0.06142937814854085
1772795490738447600,1.756447509765625,-0.005962707796692848,-0.052566711126640436,0.04810016017183661
1772795490748439800,1.766439697265625,-0.01897708767056465,-0.04807027649022638,0.060832289038226
1772795490758431700,1.776431640625,-0.00027180267870426176,-0.039793154271319506,0.04664608890600502
1772795490768423700,1.786423583984375,-0.006579962912201881,-0.025940204681456087,0.016026019312627614
1772795490778416600,1.796416748046875,0.0017249240964651107,0.0038159780915826558,0.03420457701664418
1772795490788408800,1.806408935546875,0.004881926822662353,0.031300489605590696,0.027831863646954298
1772795490798400800,1.81640087890625,-0.022093758386373518,0.05653576088808476,-0.021533494155108926
1772795490808392700,1.826392822265625,-0.005706687209010124,0.06147175598554313,-0.03138049603924155
1772795490818384600,1.836384521484375,-0.006674655458331108,0.0717336222808808,-0.025852964789420365
1772795490828376800,1.846376953125,-0.005695581293106078,0.04307794809564948,-0.024375183854438362
1772795490838369800,1.856369873046875,-0.013352233526110648,0.017933862227946518,-0.027358145187981426
1772795490848361700,1.86636181640625,-0.00659048430621624,-0.007516513109952211,-0.03012556407470256
1772795490858354000,1.87635400390625,0.005015197813510895,-0.014349500935152172,-0.009259192058816552
1772795490868345900,1.886345947265625,0.0076864628493785855,-0.03849836522042751,-0.012316424204967915
1772795490878337800,1.896337890625,0.0011024082839488983,-0.03823248082585633,-0.006140438983775675
1772795490888330800,1.906330810546875,-0.009960253000259399,-0.037611499383300544,-0.012133797647058964
1772795490898323000,1.916322998046875,-0.012507014873623847,-0.04319309890791773,-0.016692958788760006
1772795490908314600,1.926314697265625,0.003465630283951759,-0.05241466237008571,-0.039628903620317575
1772795490918306800,1.936306884765625,0.0056014732688665385,-0.043193902625516055,-0.04028312974534928
1772795490928298800,1.946298828125,-0.0060930561780929565,-0.03367321008630097,-0.06350063146464527
1772795490938291000,1.956291015625,-0.011415127983689308,-0.0374323434241116,-0.06317454131543636
1772795490948283600,1.96628369140625,-0.0034960254222154616,-0.023088541577383874,-0.032397491062059997
1772795490958275800,1.97627587890625,-0.01717149955332279,0.006734861212968826,-0.024176848270744084
1772795490968267800,1.986267822265625,-0.006178980895876884,0.011215513758361339,-0.02302972406223416
1772795490978259700,1.996259765625,-0.007177928805351257,0.016657193355634807,-0.012113960435427725
1772795490988251600,2.006251708984375,-0.027151041775941846,0.020984701165929435,0.01164250699877739
1772795490998244900,2.016244873046875,-0.011754150679707526,0.031095030161365864,0.014105828372389077
1772795491008236500,2.026236572265625,-0.008110825741291046,0.027278321417421102,0.03174289961084723
1772795491018228700,2.036228759765625,-0.002446224108338356,0.00544978983849287,0.03828822960108518
1772795491028220700,2.046220703125,-0.003301379632949829,0.003806260415166616,0.049813576493598515
1772795491038212900,2.056212890625,0.0048608840346336364,-0.011612696382403373,0.05594480925761163
1772795491048204500,2.06620458984375,-0.014644611424207686,-0.01994812465980649,0.027835991832800208
1772795491058197800,2.07619775390625,-0.022470775005221367,-0.017422697835415602,0.03566230154428631
1772795491068190000,2.08618994140625,-0.016359598648548124,-0.004283230277150869,0.020223215274140238
1772795491078181600,2.096181640625,-0.007978723794221878,-0.0011683861922472715,0.007835479398630558
1772795491088173800,2.106173828125,-0.019353519767522812,0.008389204291254282,-0.017990597383864222
1772795491098165800,2.116165771484375,-0.016669395250082014,0.0098414489261806,-0.03679313220512122
1772795491108157700,2.12615771484375,-0.015981412985920904,-0.006966185750812291,-0.04071604126989841
1772795491118150700,2.136150634765625,0.005928221005201339,-0.009184373256936669,-0.01922119862474501
1772795491128142800,2.146142822265625,0.0020674539238214494,-0.03345759457424283,-0.03839033826868981
1772795491138134800,2.156134765625,-0.015747019708156586,-0.04457081700190901,-0.011457505820691586
1772795491148126700,2.166126708984375,-0.002435702714323997,-0.05554806502498686,-0.02456789341494441
1772795491158118700,2.17611865234375,-0.006351999375224113,-0.066586760911718,-0.020413294486142694
1772795491168111900,2.18611181640625,-0.016387071177363394,-0.06755925920568406,-0.0250437672983855
1772795491178103800,2.196103759765625,-0.0029208558827638624,-0.0361320744805038,-0.02316478515136987
1772795491188095700,2.206095703125,0.0027571897536516187,-0.019662001194804907,-0.032960568304918704
1772795491198087700,2.216087646484375,-0.002642623463273048,-0.006738660605251788,-0.03367901877257973
1772795491208080000,2.226079833984375,0.0037543840974569318,0.020029592398181556,-0.04534735433235764
1772795491218071800,2.23607177734375,-0.007224106034636497,0.03323912951797247,-0.03261171833463013
1772795491228064800,2.246064697265625,0.007650222492218017,0.047729792489483946,-0.025741321108490228
1772795491238056700,2.256056640625,-0.00859422534406185,0.05655439252331852,-0.0066320218930020925
1772795491248049000,2.266048828125,-0.00808101512491703,0.04473842865377664,0.008181881683506071
1772795491258040600,2.27604052734375,-0.009074117815494536,0.023352160949632526,0.005625182938016951
1772795491268032800,2.28603271484375,-0.0007955342918634414,0.006065729779750108,0.0025185221595689653
1772795491278026000,2.29602587890625,0.006431494352221488,0.006477013994380831,0.04246569794882089
1772795491288017700,2.306017578125,-0.009088146340847016,0.009369301369786262,0.025046726440452038
1772795491298009600,2.316009521484375,-0.007386603119969367,-0.011191840621829032,0.03800700150690973
1772795491308001800,2.326001708984375,-0.01088905828297138,-0.006603051526844501,0.037148010057397186
1772795491317993700,2.33599365234375,-0.006558920124173164,-0.01508694836422801,0.05105732947699725
1772795491327985700,2.345985595703125,-0.0009819967746734618,-0.006489069758355617,0.03987063995432109
1772795491337979000,2.355978759765625,-0.007009586501121521,-0.020178718545287848,0.04318191992677748
1772795491347970800,2.365970703125,-0.02615443195402622,-0.022603096147999165,0.02697345671933144
1772795491357962800,2.375962646484375,0.0018371522992849348,-0.024719503780081867,0.01404752231389284
1772795491367954700,2.38595458984375,0.02143500221669674,-0.03148739047981799,0.007682699989713728
1772795491377947000,2.39594677734375,0.012856558963656424,-0.027871172744035718,-0.017819405535422266
1772795491387938800,2.405938720703125,0.005438391661643982,-0.022518632734939453,-0.038123650156520306
1772795491397931800,2.415931884765625,0.005917115089297294,-0.018367650535330175,-0.02715564488582313
1772795491407923700,2.425923828125,-0.019511340677738187,-0.020822861667722462,0.003869279181398451
1772795491417916000,2.435916015625,-0.011757657811045647,-0.02296118887066841,-0.006294168240763246
1772795491427907600,2.445907470703125,-0.011024667361378668,-0.01571750135272741,-0.02040982388742268
1772795491437899800,2.455899658203125,-0.008643325182795524,-0.01909852209314704,-0.023218963024020194
1772795491447892700,2.465892822265625,-0.01554419061243534,0.0032176468722522255,-0.020080372737348078
1772795491457884700,2.475884765625,0.000017535656690597534,-0.003303863850980997,-0.0162953012406826
1772795491467876600,2.485876708984375,-0.006429156264662742,0.008258928975090384,-0.006693323626182973
1772795491477868800,2.495868896484375,-0.011383563801646231,0.009506298687681556,-0.025158698914945123
1772795491487860700,2.50586083984375,-0.006353168419003487,0.007309811556711792,-0.02273030272424221
1772795491497853000,2.51585302734375,-0.0023889409631490705,0.019912980281189083,-0.030349509023688732
1772795491507845600,2.525845703125,0.0024777882903814314,0.02752572030723095,-0.007173289162851869
1772795491517837800,2.535837890625,0.011979776129126547,0.0064853434313088655,-0.013965141260065138
1772795491527829800,2.545829833984375,0.0010410334855318068,0.004890256259590387,0.006097038233466446
1772795491537821700,2.55582177734375,-0.018732757520675658,0.0076962535910308355,0.028086167201586066
1772795491547813600,2.565813720703125,0.004296235889196396,-0.007927651194110511,0.02532634709943086
1772795491557805800,2.575805908203125,-0.0031926585614681243,-0.022792188979312775,0.04140731146968901
1772795491567798800,2.585798828125,-0.018714052820205686,-0.029440467887371778,0.036069347975216805
1772795491577790700,2.595790771484375,-0.000384030881524086,-0.04006269192770123,0.04759688682481646
1772795491587783000,2.605782958984375,-0.011810849303007125,-0.037294761584326624,0.02514105366040021
1772795491597774800,2.61577490234375,-0.006035188511013984,-0.032759456242248415,0.020249116900376975
1772795491607766800,2.625766845703125,-0.0009966098219156266,-0.012977993386238812,0.0011067191328853368
1772795491617759700,2.635759765625,-0.014072949016094207,-0.0038535336229950186,-0.007830985886603593
1772795491627752000,2.645751953125,0.00814940418601036,-0.0022708675414323805,-0.014256598487310111
1772795491637743600,2.65574365234375,-0.003779518538713455,0.014968582681566476,-0.02682093303874135
1772795491647735800,2.66573583984375,0.009438274952769278,0.02198204164020717,-0.023683109937049446
1772795491657727700,2.675727783203125,0.008549217158555984,0.009690715343877672,-0.045276225324906404
1772795491667720000,2.685719970703125,0.004663315635919571,-0.001071940080448985,-0.041436720227263864
1772795491677712600,2.695712646484375,0.015407997012138366,0.0010896218676120042,-0.012225019594468176
1772795491687704800,2.705704833984375,-0.0025789105772972107,-0.0022056202854961156,-0.006615289953909814
1772795491697696800,2.71569677734375,-0.0020171850413084028,-0.005530161598324776,-0.007328150931000709
1772795491707688700,2.725688720703125,-0.00806581755578518,-0.00912058730572462,-0.002297353689558804
1772795491717680600,2.7356806640625,-0.033579028996825216,-0.001336217039823532,0.003533946279808879
1772795491727672800,2.7456728515625,-0.024373978278040883,-0.011059300283342599,-0.015238156870566308
1772795491737665500,2.75566552734375,-0.019147768062353132,-0.011136968629434705,-0.024654366121999918
1772795491747657700,2.76565771484375,0.004523614904284477,-0.007740019667521119,0.0012029095163568855
1772795491757649700,2.775649658203125,0.014862638089060782,-0.021361206328123807,0.008818791347555815
1772795491767641900,2.785641845703125,-0.0014507833302021026,-0.025353929226100445,0.0047055473424494265
1772795491777633800,2.7956337890625,-0.0008610007435083389,-0.05124788361303508,0.012444617161899804
1772795491787626800,2.805626708984375,-0.00028700024783611294,-0.05649718244336545,0.020080226606875657
1772795491797619000,2.815618896484375,0.00506897382736206,-0.05714344445765018,0.023587357944995162
1772795491807610600,2.825610595703125,0.004166472029685974,-0.06027582419924438,0.042353469746001064
1772795491817602600,2.8356025390625,-0.006295885273814201,-0.051750718568637964,0.044443098969012496
1772795491827594800,2.8455947265625,0.011522095489501952,-0.03482216092571616,0.04614157344996929
1772795491837586700,2.855586669921875,-0.004192190992832184,-0.0021614158175885675,0.030479565144143995
1772795491847579600,2.86557958984375,0.0026981530427932737,0.011277107752487062,0.02938749559111893
1772795491857571800,2.87557177734375,-0.008662029883265495,0.03930412864536047,0.018168876560218632
1772795491867563800,2.885563720703125,-0.0032569559693336487,0.05369096591621637,0.024822160436958073
1772795491877556000,2.895555908203125,-0.0051519759356975555,0.048350846997275945,0.0020080884194001556
1772795491887547600,2.905547607421875,0.0008908113598823546,0.047525867415219546,-0.01614825745280832
1772795491897540900,2.915540771484375,0.003970657196640968,0.047925680387765165,-0.03145790865700692
1772795491907532800,2.92553271484375,-0.006992050844430923,0.027626550333201882,-0.03955598451457917
1772795491917524700,2.935524658203125,-0.0064472764432430265,0.013381459620594978,-0.029300182633846997
1772795491927516700,2.9455166015625,-0.011911971589922904,0.001867620502784848,-0.02954356293566525
1772795491937508900,2.9555087890625,-0.011117606341838835,-0.01876030311472714,-0.019359364986419676
1772795491947500800,2.965500732421875,-0.0003419453054666519,-0.030989889286458492,-0.0382978011470288
1772795491957493800,2.97549365234375,-0.004258241966366767,-0.03294190013706684,-0.007645327121391892
1772795491967485700,2.985485595703125,-0.011475918260216713,-0.033527956396713854,-0.0067587170125916595
1772795491977478000,2.995477783203125,-0.012861235138773918,-0.033870705419778824,-0.015858078867197034
1772795491987469600,3.005469482421875,-0.016647183418273925,-0.029361630497500298,-0.014351364098675549
1772795491997461800,3.015461669921875,-0.011934183421730995,-0.016514862275496124,-0.013030088899657129
1772795492007453700,3.02545361328125,-0.017698153775930404,-0.007211831074953079,-0.0218539582811296
1772795492017446700,3.03544677734375,-0.004613046753406525,0.005816285063326358,-0.012421784275583922
1772795492027438600,3.0454384765625,0.0006926584392786026,0.01963942403681576,-0.0067917059667408465
1772795492037430800,3.0554306640625,-0.011947627425193785,0.009188391844928263,0.009925072089023887
1772795492047422700,3.065422607421875,-0.008240005078911782,-0.001493526493385434,0.027754268366098404
1772795492057414700,3.07541455078125,-0.0027110125243663785,-0.007905439362302423,0.016372640793211757
1772795492067408000,3.085407958984375,-0.008092705562710762,-0.040005847173929215,0.025090455984324217
1772795492077399800,3.09539990234375,-0.0008826280534267425,-0.01530007965825498,0.01144639990478754
1772795492087391700,3.105391845703125,0.001104161849617958,-0.04663819786049425,0.009912029944360256
1772795492097383700,3.1153837890625,-0.008265139520168304,-0.058528469075262546,-0.0008063844794407487
1772795492107376400,3.12537646484375,-0.017340426379442213,-0.045606955116614695,0.009410656293481588
1772795492117368600,3.13536865234375,-0.017599954098463058,-0.043184111883863806,-0.007896160077303647
1772795492127361300,3.145361328125,0.0035223289072513577,-0.03073350337259471,-0.00250964473336935
1772795492137353500,3.155353515625,-0.0027647885382175445,-0.028485432184860108,0.0004595438031479716
1772795492147345400,3.165345458984375,-0.013889993664622307,-0.021689269238710403,0.010040880488418042
1772795492157337300,3.17533740234375,-0.0018225392520427703,-0.00728029320128262,0.009289915990643202
1772795492167329300,3.185329345703125,-0.0023556232154369355,0.027619316874817012,0.001072195808775723
1772795492177321500,3.195321533203125,0.0012865326792001724,0.023226342612877485,-0.0035861148584634063
1772795492187314200,3.205314208984375,-0.004786065232753754,0.03486190841421485,0.015254888809658586
1772795492197306400,3.215306396484375,0.01685118155777454,0.0379535177540034,0.011191036904230713
1772795492207298300,3.22529833984375,0.0060416182518005365,0.02852298771627247,0.024361484122648835
1772795492217290500,3.23529052734375,-0.005030395382642746,0.022844211427494883,0.023203363596089183
1772795492227282200,3.2452822265625,-0.00035129765570163723,0.01119081770852208,0.027372137180715798
1772795492237275400,3.255275390625,-0.008213117071986197,-0.0016701982345432042,0.03089618312101811
1772795492247267600,3.265267578125,0.013137129470705985,-0.017657529504597185,0.007793649550899863
1772795492257259300,3.27525927734375,-0.006917816564440727,-0.022978578396886586,0.014565079914592206
1772795492267251500,3.28525146484375,-0.009041384589672088,-0.04216112551167607,0.011303265107050537
1772795492277243400,3.295243408203125,-0.011632570126652716,-0.018268501009792087,-0.006005231764167547
1772795492287235300,3.3052353515625,-0.00511865818798542,-0.017921806463971734,-0.02463905895501375
1772795492297228300,3.315228271484375,-0.005367079991102218,-0.008266308563947677,-0.04544873234760016
1772795492307220500,3.325220458984375,0.0004763853400945663,-0.0059160921759903425,-0.0517934982644394
1772795492317212400,3.33521240234375,0.01184592061638832,0.0030562457654625176,-0.03477824871875346
1772795492327204400,3.345204345703125,-0.006761164698004722,0.0067496934559196226,-0.05325673921741545
1772795492337196300,3.3551962890625,-0.004745733222365379,0.008540595460683106,-0.050895453446172176
1772795492347188500,3.3651884765625,-0.024444705426692963,0.022974925135076044,-0.0465352124100551
1772795492357181200,3.37518115234375,-0.015406243446469306,0.030319077352806922,-0.046312947961501774
1772795492367173400,3.38517333984375,-0.019683190113306045,0.020981047904118894,-0.016993366507440804
1772795492377165300,3.395165283203125,-0.015090017104148864,0.015026011957228183,-0.03546484274342656
1772795492387157500,3.405157470703125,0.013482581907510756,-0.014678294498100876,-0.017385653760656712
1772795492397149400,3.4151494140625,0.013798808249831198,-0.04188362374454736,-0.014380699791014194
1772795492407142400,3.425142333984375,0.00007949497699737548,-0.062046925524994724,0.00043466509021818637
1772795492417134300,3.43513427734375,0.012654898911714552,-0.07942381145730615,0.013399652864411473
1772795492427126500,3.44512646484375,-0.005181202030181884,-0.08518288644067942,0.025013226029649376
1772795492437118200,3.4551181640625,0.0010503858357667922,-0.08820208813138306,0.016905395963042972
1772795492447110400,3.4651103515625,-0.009359949019551277,-0.07764350391179323,0.03182794754579663
1772795492457102300,3.475102294921875,-0.007975216662883759,-0.06203041278161108,0.03721300158500671
1772795492467095300,3.48509521484375,-0.023358663755655287,-0.010628726846352219,0.0474864121876657
1772795492477087200,3.495087158203125,-0.022724457505345342,0.02213299441821873,0.03325282924976199
1772795492487079400,3.505079345703125,0.018040683603286742,0.05445194035135209,0.02733414325788617
1772795492497071400,3.5150712890625,0.009256488645076751,0.04918159873299301,0.02870356844756752
1772795492507063300,3.525063232421875,0.005748188263177871,0.05006714939586818,0.036207879663072526
1772795492517055200,3.53505517578125,-0.006377133816480636,0.037145562371984124,0.03637994829434901
1772795492527048400,3.54504833984375,-0.014732874229550361,0.027553923488408325,0.0501246517367661
1772795492537040400,3.555040283203125,-0.008807575833797454,0.024151129307597875,0.02920183682590723
1772795492547032300,3.5650322265625,-0.014059505012631415,-0.0030599720925092696,0.03218589413799345
1772795492557024500,3.5750244140625,-0.000713116705417633,0.00510623709782958,0.020496260061860082
1772795492567016400,3.585016357421875,0.0038011458486318585,-0.006788637226819992,0.012629910600930452
1772795492577009400,3.595009521484375,-0.007290157008171081,-0.006761676154658198,0.001013086032681167
1772795492587001300,3.60500146484375,-0.00032382512688636776,-0.003188639973476529,-0.016409027280844746
1772795492596993500,3.61499365234375,-0.01883037267625332,-0.0001413812320679426,-0.0034685894260182977
1772795492606985200,3.624985107421875,-0.02688917596936226,-0.008729688291996716,-0.009719393449090421
1772795492616977400,3.634977294921875,-0.010399228939414024,-0.002474281159043312,-0.025715784808434543
1772795492626969300,3.64496923828125,-0.015611410629749297,-0.0037393326587975024,-0.03514799534659833
1772795492636962300,3.65496240234375,-0.01001812066733837,-0.009357537866756319,-0.02185107220429927
1772795492646954200,3.664954345703125,-0.004117372190952301,0.0007630202617496251,-0.041093496280163525
1772795492656946400,3.674946533203125,-0.0016571195572614669,-0.00041493747644126414,-0.038652094477415085
1772795492666938400,3.6849384765625,0.016216975307464597,-0.01907660252228379,-0.056213324000686404
1772795492676930300,3.694930419921875,-0.012308277431130409,-0.01863609221316874,-0.02777505542580038
1772795492686922200,3.704922119140625,0.0031365444600582122,-0.03408412897475063,-0.04348214498236775
1772795492696915500,3.71491552734375,-0.013906944799423218,-0.047722997422516344,-0.009986702615767716
1772795492706907400,3.724907470703125,-0.006585808131098747,-0.057188014251738785,0.008987097119167446
1772795492716899300,3.7348994140625,-0.017414076137542724,-0.06021189211755991,0.023582974030822514
1772795492726891300,3.744891357421875,-0.007337503281235695,-0.05532974609918892,0.03147679602056742
1772795492736883500,3.754883544921875,-0.0037350948750972746,-0.04164550413973629,0.023530111332423984
1772795492746876400,3.76487646484375,-0.017523381730914115,-0.031928339180350304,0.012843005362339318
1772795492756868400,3.774868408203125,-0.007246902388334274,-0.0001822246991097927,0.002733407019264996
1772795492766860500,3.784860595703125,0.0019856208592653273,0.00976158862300217,0.016297164404205977
1772795492776852500,3.7948525390625,-0.008533435067534446,0.013154007540270685,0.0330772900197655
1772795492786844400,3.804844482421875,-0.0001356090784072876,0.03281593566983938,0.03404799821544438
1772795492796836400,3.81483642578125,0.006984452059864998,0.03747596337012946,0.04118332998808473
1772795492806829600,3.82482958984375,-0.00585457124710083,0.024763708247989416,0.06950926076229662
1772795492816821200,3.8348212890625,-0.010533668974041939,0.012708236534148454,0.05099175342749804
1772795492826813400,3.8448134765625,-0.00961421604156494,-0.011312909718230365,0.052048824732378124
1772795492836805400,3.854805419921875,0.00348258141875267,-0.032897987930104136,0.06461290355548262
1772795492846797600,3.864797607421875,0.0013444003462791442,-0.032038594621792434,0.036226036374270916
1772795492856789200,3.874789306640625,0.005339022940397262,-0.021965528896823523,0.018662432230822742
1772795492866782500,3.884782470703125,0.008871873241662978,-0.02568812961652875,0.0012985153779387472
1772795492876774400,3.8947744140625,-0.00783785401880741,-0.04740662494972348,-0.027479104686528442
1772795492886766300,3.904766357421875,-0.012613397857546806,-0.023645225612074137,-0.022645072126202283
1772795492896758300,3.91475830078125,-0.010852233403921127,-0.004697144840285182,-0.04104702678993344
1772795492906750500,3.92475048828125,0.0020908347994089125,-0.0034128771834075447,-0.05482720340453088
1772795492916743200,3.9347431640625,-0.01077449199259281,0.004770429272204637,-0.07727035975046455
1772795492926735400,3.9447353515625,0.001595160236954689,0.015661752577498553,-0.07204659722018987
1772795492936727300,3.954727294921875,-0.009721768069267273,0.022002719102054834,-0.04835271016079932
1772795492946719500,3.964719482421875,-0.008048281899094581,0.006255626328662037,-0.06046831456404179
1772795492956711200,3.974711181640625,0.0049777884125709534,0.0033447803832590576,-0.03145852971151471
1772795492966703400,3.984703369140625,0.007510521760582923,0.007936492087692022,-0.01943973674625158
1772795492976696600,3.994696533203125,0.004665653723478317,0.00891907338425517,-0.007785977701097726
1772795492986688300,4.004688232421875,-0.005801379755139351,-0.008774550347030162,0.018933686920255422
1772795492996680200,4.01468017578125,-0.0042681788384914396,-0.00577734129242599,0.02066858442146331
1772795493006672400,4.02467236328125,-0.0190098208963871,-0.0060481210578233,0.025945501911081373
1772795493016664300,4.034664306640625,-0.024873744493722913,-0.02335340305864811,0.03906684929076582
1772795493026657300,4.0446572265625,-0.03580313478708267,-0.02328274897523224,0.03457761158011854
1772795493036649500,4.0546494140625,-0.02678630011677742,-0.010332008922100067,0.028271972097270188
1772795493046641400,4.064641357421875,-0.0026297639816999434,-0.02249444814175367,0.007296075292304157
1772795493056633600,4.074633544921875,0.021259061127901074,-0.03503733804635703,0.019682313330471515
1772795493066625300,4.084625244140625,0.0120820674598217,-0.030403613831102846,0.03687120241001248
1772795493076617500,4.094617431640625,-0.0033849662631750105,-0.029705694694817063,0.021207805864699183
1772795493086610400,4.1046103515625,-0.004964344409108161,-0.03457520042732358,-0.0010160451747477054
1772795493096602400,4.114602294921875,-0.005219780474901199,-0.04871178926415741,-0.00996883816551417
1772795493106593800,4.12459375,0.007518705067038536,-0.049434623645991084,0.0070948901643976565
1772795493116586000,4.1345859375,-0.004734042784571647,-0.04945383980311453,0.01123071132749319
1772795493126578000,4.144577880859375,-0.010122165563702584,-0.04431720756702125,-0.01336980571541935
1772795493136569900,4.15456982421875,0.00539747512936592,-0.027829890885576605,-0.004577865842171013
1772795493146562800,4.164562744140625,-0.0024310265392065047,0.0029608225669711828,-0.013378902337327598
1772795493156555000,4.174554931640625,-0.003370353215932846,0.025864362966269254,-0.028231347825936972
1772795493166547000,4.184546875,-0.0073059390991926185,0.026469927643984554,-0.01315093880034983
1772795493176539000,4.194538818359375,0.0023737433940172192,0.04415142254605889,-0.027861820393800734
1772795493186530800,4.20453076171875,0.01431026490330696,0.034317134013026954,-0.03770224640667438
1772795493196524000,4.21452392578125,0.002022445738315582,0.02698876388631761,-0.019812186787836254
1772795493206515700,4.224515625,-0.010410919377207756,0.024899463456869123,-0.0008979352204129099
1772795493216508000,4.2345078125,-0.00355447761118412,-0.0025347061093896625,0.005807188441418111
1772795493226499800,4.244499755859375,-0.011081365984678267,-0.002226005486398935,0.01100746049825102
1772795493236492000,4.254491943359375,-0.019498481196165082,-0.022310835203155875,0.005390168605744839
1772795493246483700,4.264483642578125,-0.012384849798679352,-0.019694515224918722,0.019447372063435612
1772795493256477000,4.274476806640625,-0.024406711503863334,-0.015020970455929636,0.018721980398334562
1772795493266468900,4.28446875,-0.01064297456741333,-0.03574497485905886,0.013346790166012942
1772795493276460800,4.294460693359375,-0.010775661036372184,-0.02197327381186187,0.023663601518981156
1772795493286452700,4.30445263671875,-0.006091302612423896,-0.02223236313946545,0.012990816335193812
1772795493296445000,4.31444482421875,-0.014276362633705138,-0.0008322861056774854,0.003065415452606976
1772795493306436900,4.324436767578125,-0.0019534721553325653,0.01251256783157587,-0.002344078908115625
1772795493316429800,4.334429931640625,-0.004880173256993294,0.008256225561350583,0.019430932385288178
1772795493326422000,4.344422119140625,0.01507891118824482,0.014937529956176877,-0.006549531241320073
1772795493336414000,4.3544140625,0.018409516915678978,0.007221548751369118,-0.01975008133705705
1772795493346406000,4.364406005859375,-0.0023667291313409803,-0.024398016740754244,0.005824687565490603
1772795493356397800,4.374397705078125,-0.003561491873860359,-0.028282895350083707,-0.0015710852416232228
1772795493366390000,4.38439013671875,-0.007142857491970062,-0.03228277864120901,-0.009901216289401054
1772795493376382700,4.3943828125,-0.01755845304429531,-0.03613455869853496,-0.010438976427912711
1772795493386375000,4.404375,0.002397124269604683,-0.04741385840810835,-0.012130692374520004
1772795493396366800,4.414366943359375,-0.0008808744877576828,-0.043575595419481396,-0.037031507538259026
1772795493406359000,4.424359130859375,0.0025479309171438217,-0.03361490402780473,-0.024852299846895038
1772795493416350700,4.434350830078125,0.007731471034884452,-0.039169177154079075,-0.03626004824172705
1772795493426344000,4.444343994140625,-0.006433832439780235,-0.010902136960253118,-0.03568473257180303
1772795493436335900,4.4543359375,-0.02855097170174122,-0.007715469748154282,-0.040261027511395514
1772795493446327800,4.464327880859375,-0.007861234894394874,0.0012414514284580945,-0.018792744079604743
1772795493456319700,4.47431982421875,0.010583937856554985,0.0094100717715919,-0.023877938389405606
1772795493466312000,4.48431201171875,-0.001014145478606224,0.03889540171399712,-0.008756430168449878
1772795493476304000,4.494303955078125,-0.0036076691031455992,0.020462650053203104,0.014500855571962892
1772795493486296800,4.504296875,-0.0033329438149929044,0.018487331392243504,0.012218261060118675
1772795493496288800,4.514288818359375,-0.009601941081881523,0.005980170388147235,0.006213211959041655
1772795493506281000,4.524281005859375,-0.0061047466158866874,-0.010091405099257825,0.0012803951993584633
1772795493516273000,4.53427294921875,-0.0033200843334197996,-0.034373540375381706,0.0178297807989642
1772795493526264800,4.544264892578125,-0.007414075648784637,-0.04778554126471281,0.009713329034484922
1772795493536256800,4.5542568359375,-0.010174772533774376,-0.04671506248898804,0.012918189490400253
1772795493546250000,4.56425,-0.006218728384375572,-0.03724047411382198,0.00820266874320805
1772795493556242000,4.574241943359375,-0.016371289086341858,-0.032352336746081706,0.011167546430788933
1772795493566233900,4.58423388671875,-0.0017161562681198119,-0.014259119237959384,0.008860182803869247
1772795493576225800,4.594225830078125,0.01246376025378704,-0.00654525692500174,-0.0004160699876025319
1772795493586218000,4.604218017578125,0.012247487154603004,-0.0022477058615535494,-0.008549911278299988
1772795493596211000,4.6142109375,0.0027367314875125885,0.01359575995840132,-0.007429382815770804
1772795493606203000,4.624202880859375,-0.0006371288597583771,-0.0020532062027603386,0.0036144641701132056
1772795493616195000,4.634195068359375,0.0021066168904304503,0.004715557279810309,0.021660043144226072
1772795493626186800,4.644186767578125,-0.008455693656206131,-0.001725947009772062,0.013667729216068982
1772795493636179000,4.654178955078125,0.003295534414052963,0.003955605757981539,0.028034729275293647
1772795493646171000,4.6641708984375,-0.02739361836016178,0.008469502985849977,0.01921162707880139
1772795493656163800,4.674163818359375,-0.017045242825150488,0.014348478021845221,0.013042181196250021
1772795493666155800,4.68415576171875,-0.014604279413819312,0.025697043575346468,0.01606547454018146
1772795493676148000,4.69414794921875,-0.01407587162554264,0.008502601537853479,0.0036110666366294024
1772795493686140000,4.704139892578125,-0.028058804270625112,0.013756503478065132,-0.02178100264277309
1772795493696131800,4.7141318359375,-0.0035819501399993892,-0.011360694382712245,-0.016061017560772595
1772795493706124800,4.724124755859375,-0.0010860416710376738,-0.03425071771331131,-0.016904336517117917
1772795493716117000,4.734116943359375,0.010386953979730605,-0.02975150659792125,-0.030636180477961895
1772795493726108700,4.744108642578125,-0.003145312288403511,-0.04249401072785258,-0.032518596691079434
1772795493736100900,4.754100830078125,0.0002098433583974838,-0.07102985792569816,-0.03252089824602008
1772795493746092800,4.7640927734375,-0.004240121787786483,-0.06344933966882527,-0.013326368432492018
1772795493756085000,4.7740849609375,0.0035386955201625824,-0.04990370246246457,-0.02087258256096393
1772795493766077700,4.78407763671875,0.002168576210737228,-0.06113960142172872,-0.032307876549847424
1772795493776070000,4.79406982421875,-0.010609072297811507,-0.021653832599148153,-0.01954948073104024
1772795493786061800,4.804061767578125,-0.009192775759100914,-0.01832300767600536,-0.00027333704866468905
1772795493796053800,4.8140537109375,-0.0014998831689357758,0.007670315432175993,-0.005071019653975963
1772795493806045700,4.824045654296875,0.004082300877571106,0.008639233529567717,-0.015261537746153771
1772795493816038000,4.834037841796875,-0.0003752630531787872,0.034402547274157404,-0.005240896328166127
1772795493826030800,4.84403076171875,-0.013508300870656966,0.02778042572066188,-0.002890424211882055
1772795493836022800,4.854022705078125,-0.01002338136434555,0.043756139618158336,-0.008768558997660875
1772795493846015000,4.864014892578125,-0.012808043646812439,0.02494103757627308,0.007083382389694452
1772795493856007000,4.8740068359375,0.005689151552319526,0.015621566697582601,0.017722411434352398
1772795493865999000,4.8839990234375,-0.0019797756403684614,0.025002339309453964,0.01612023693472147
1772795493875991800,4.89399169921875,-0.001995557731389999,0.001197466156259179,0.020309541850723326
1772795493885984000,4.90398388671875,0.011915478721261023,-0.01616853305585682,0.02561462598890066
1772795493895976000,4.913975830078125,0.009224924463033676,-0.012731179018318653,0.03434942884743213
1772795493905967900,4.9239677734375,-0.014712415963411331,-0.02578326055407524,0.043297472597844895
1772795493915959800,4.933959716796875,0.00374620079100132,-0.024913491982221602,0.04151921087894588
1772795493925952000,4.943951904296875,-0.019824059888720512,-0.005000292505323887,0.033059279439039524
1772795493935944700,4.95394482421875,-0.014940964022278784,-0.005854790442809462,0.00014945494066923856
1772795493945937000,4.96393701171875,-0.01705167256593704,-0.0027788170635700223,0.024521277794241902
1772795493955928800,4.9739287109375,-0.009451134434342383,0.0017469897978007792,0.009984035734646022
1772795493965921000,4.983921142578125,0.013244681498408318,0.00563625232130289,-0.020494433430954813
1772795493975912700,4.99391259765625,0.0019669161587953566,0.02323372220173478,-0.0243876049445942
1772795493985905000,5.00390478515625,0.0005588029265403748,0.0035982436876744028,-0.042128867209888995
1772795493995897900,5.01389794921875,-0.015974398723244666,-0.008983224661648272,-0.03431669562160969
1772795494005889800,5.023889892578125,0.019255320090055466,-0.018799539146572352,-0.04754727552942931
1772795494015881700,5.0338818359375,0.007023615026473999,-0.042570217769220466,-0.018491605708561835
1772795494025874000,5.0438740234375,-0.013168109130859374,-0.06233860194794833,-0.03114939069710672
1772795494035865900,5.053865966796875,-0.024719430714845655,-0.06255860137417912,-0.02791439083125442
1772795494045858800,5.06385888671875,-0.015950433325767517,-0.060321051580458876,-0.018643362204171714
1772795494055851000,5.07385107421875,-0.0015139116942882538,-0.03125803870335221,-0.016875658411905168
1772795494065843000,5.083843017578125,-0.012380173623561858,-0.015384835332259535,-0.021558774726837874
1772795494075835000,5.0938349609375,0.003064648267626762,0.005072627089172601,-0.017307912349328398
1772795494085826800,5.103826904296875,-0.01576689345240593,0.024340879726037382,-0.017113522288389502
1772795494095818800,5.11381884765625,-0.003497778987884521,0.047327129972726104,-0.009706059043481945
1772795494105812000,5.12381201171875,-0.002443301498889923,0.042245808120444414,-0.009144187377020717
1772795494115804000,5.133803955078125,-0.001522095000743866,0.05505472855009138,0.008846592669934034
1772795494125796000,5.143796142578125,0.011848843225836753,0.05052139596939086,0.009280198314227163
1772795494135788000,5.1537880859375,0.008949030131101607,0.03304850231669843,0.03524751019831747
1772795494145780000,5.163780029296875,0.013732757276296614,0.014506737323477863,0.03217164641693234
1772795494155772000,5.17377197265625,-0.007623919007182121,0.0009438567213714122,0.03536079784706235
1772795494165765000,5.18376513671875,-0.009175240102410316,-0.017214388846978543,0.027654899644851683
1772795494175757000,5.193757080078125,-0.0061895022898912425,-0.029159093662723897,0.026833244531042872
1772795494185749000,5.2037490234375,0.00803483789563179,-0.031343305834010245,0.01968808548413217
1772795494195741000,5.213740966796875,0.0013216039925813673,-0.03541077446863055,0.011482128805294632
1772795494205733000,5.223733154296875,0.009417232164740563,-0.020271657525748013,-0.010581563236378133
1772795494215725800,5.233725830078125,0.002218260571360588,-0.023513562056422233,-0.022935360309667883
1772795494225718000,5.243718017578125,-0.019541151294112203,-0.015509119299054144,-0.021248649331741035
1772795494235710000,5.2537099609375,-0.0006505728632211685,-0.009412921315804124,-0.01690915882270783
1772795494245702100,5.2637021484375,0.0044160628765821455,-0.010383958305045961,-0.01289068042896688
1772795494255693800,5.27369384765625,-0.0007458499312400817,0.014192337612062692,-0.04273746409490704
1772795494265686000,5.28368603515625,-0.004597849184274673,0.011740560545772313,-0.02958257977180183
1772795494275679200,5.29367919921875,-0.0219376910418272,0.004871989950537681,-0.01909717038627714
1772795494285671000,5.3036708984375,-0.012803951993584632,-0.001701689351350069,-0.020373473932407796
1772795494295662800,5.313662841796875,-0.0036591070294380184,0.0009213526286184787,-0.029632227599807083
1772795494305655000,5.323655029296875,-0.005104045140743255,-0.012626330404356121,-0.0018103738902136683
1772795494315647000,5.33364697265625,0.007715688943862915,-0.0013612053506076335,0.004270626523904502
1772795494325639000,5.343638916015625,-0.008003273713588714,-0.010135025045275688,0.010342347653023899
1772795494335632100,5.353632080078125,-0.011990297523140906,-0.0029605303060263395,0.003963606401346624
1772795494345624000,5.3636240234375,-0.028975919115543362,-0.002536898066475987,0.02759465735759586
1772795494355616000,5.373615966796875,-0.0536000727623701,-0.001092617542296648,0.021072525579854846
1772795494365608000,5.38360791015625,-0.03482698323130608,0.0022317776400595903,0.007307035077735781
1772795494375600000,5.39360009765625,-0.006150339323282242,-0.003438376950845122,0.007359459384717047
1772795494385592800,5.4035927734375,0.0005155483067035675,0.005162205068767071,-0.008743972545675932
1772795494395585000,5.4135849609375,0.006442015746235847,-0.01735774284042418,-0.006026895606704056
1772795494405577000,5.423576904296875,0.01172960076034069,-0.03728431325554848,-0.00010546966847032308
1772795494415569200,5.433569091796875,-0.009071195206046104,-0.04135317012965679,-0.013203070846386254
1772795494425560800,5.443560791015625,0.009098083212971687,-0.05436908437348902,-0.00678976973798126
1772795494435553000,5.453552978515625,0.013209610185027122,-0.0700100133586675,0.008019749924354254
1772795494445546000,5.4635458984375,-0.001830138036608696,-0.062399319159239526,0.0016641703525558113
1772795494455538000,5.473537841796875,0.0014046061009168624,-0.04266754066385329,0.0007259396543726325
1772795494465529900,5.48352978515625,-0.006407528954744338,-0.027439941719919442,0.0074118471590802065
1772795494475522000,5.49352197265625,-0.0001426233410835266,0.00001534369960427284,-0.008512976801395416
1772795494485514000,5.503513916015625,0.005384615647792816,0.012544351209327578,-0.00650664194766432
1772795494495506200,5.513506103515625,0.002848375168442726,0.01977357181049883,-0.010299969816021621
1772795494505499000,5.523498779296875,-0.010607903254032134,0.04901369482018053,-0.004029620842263102
1772795494515491000,5.533490966796875,0.0022878186762332916,0.037677331161126495,0.004182144522853195
1772795494525483000,5.54348291015625,-0.00878244139254093,0.05911788633577525,-0.011925269462913274
1772795494535475000,5.553474853515625,-0.009522446104884147,0.049340954013168806,-0.0014224705511704087
1772795494545467000,5.563466796875,-0.006508651241660118,0.030151465700939295,-0.007283361941203475
1772795494555460000,5.573460205078125,-0.013543956705927849,0.02751622182652354,-0.005521649498306215
1772795494565452000,5.5834521484375,-0.012953005075454712,-0.002900836008042097,-0.01512300605829805
1772795494575444000,5.59344384765625,-0.015076573100686072,-0.01602715182378888,-0.0035213425265625117
1772795494585436200,5.603436279296875,-0.006432663396000861,-0.0300576499376446,-0.016649594571068883
1772795494595428000,5.613427978515625,0.007466098096966743,-0.03415449079722166,-0.005644727888703346
1772795494605420000,5.623419921875,-0.00854629454910755,-0.05348777149431407,0.007861454090103507
1772795494615413000,5.6334130859375,-0.005220949518680572,-0.0365627940479666,0.015346768344193696
1772795494625405200,5.6434052734375,-0.009048398852348326,-0.029233620203658935,0.0050543242475017906
1772795494635396900,5.65339697265625,-0.0005874444991350174,-0.02903502889163792,0.011007241302542388
1772795494645389000,5.66338916015625,-0.009039631024003028,-0.022511764602735636,-0.020759915966726838
1772795494655381000,5.673381103515625,-0.02363748069703579,-0.01687850795611739,0.00008000643365085125
1772795494665373200,5.683373291015625,0.0003454524368047714,0.004549918389320374,-0.015709646839834748
1772795494675366000,5.693365966796875,-0.0018956044882535933,-0.026137919210642575,-0.0037063071720302102
1772795494685358000,5.703358154296875,0.009128478351235389,-0.013524521353095769,-0.0026910291822627185
1772795494695350000,5.71335009765625,0.017131752064824105,-0.02347702943831682,0.019478972778096793
1772795494705342000,5.723342041015625,0.0028039515048265454,-0.04164112022556364,0.007528678471781313
1772795494715334000,5.733333984375,-0.00421498734652996,-0.058500192828848954,0.012016418345086276
1772795494725327000,5.7433271484375,-0.008754968863725662,-0.05571216954551637,0.00370097340978682
1772795494735318800,5.75331884765625,-0.01806289543509483,-0.04735153376162052,-0.005085924962162971
1772795494745311000,5.76331103515625,-0.022645547050237653,-0.026629575185105205,-0.010663396300934255
1772795494755303000,5.773302978515625,-0.003924479967355728,-0.00980060545913875,-0.018465046495199203
1772795494765295000,5.783295166015625,-0.005663432589173316,0.01319258598499,-0.010942432438023389
1772795494775287000,5.793287109375,-0.019838088414072988,0.02131722105592489,-0.027087840346619485
1772795494785280000,5.803280029296875,-0.01842296091914177,0.05712145182155073,-0.025999752848967907
1772795494795272200,5.813272216796875,-0.0033949031352996824,0.05359766160957515,-0.03149363755751401
1772795494805264000,5.823263916015625,-0.0082914430052042,0.03893324950635433,-0.02849441920891404
1772795494815255800,5.833255859375,-0.00722878220975399,0.024732582457363605,0.003898687938973307
1772795494825248000,5.843248046875,-0.005460018971562385,0.0037890900846570728,0.007939706958085298
1772795494835240000,5.853239990234375,-0.002496492990851402,-0.022847937754541633,0.008854775976389647
1772795494845233000,5.86323291015625,-0.005092354702949524,-0.02059007582515478,0.012737864487431942
1772795494855225000,5.87322509765625,-0.0005184709161520004,-0.03890774973891675,-0.008974456833302974
1772795494865217000,5.883217041015625,-0.0038701194316148758,-0.044271395663917065,0.022314963389001786
1772795494875209200,5.893209228515625,0.010594459250569344,-0.03381554116643965,0.025133527941070495
1772795494885201000,5.903200927734375,0.0009808277308940886,-0.03622947044037282,0.013989873842522501
1772795494895194000,5.913194091796875,-0.000976151555776596,-0.025767624593526123,0.011060396261885761
1772795494905186000,5.92318603515625,-0.0024590835899114608,-0.009495923424139619,0.009187368931621313
1772795494915178000,5.933177978515625,-0.003767828100919723,0.00028400457315146924,-0.004247684039734303
1772795494925170000,5.943169921875,0.004075286614894867,0.003443783778324723,-0.014562705294415354
1772795494935162000,5.953162109375,0.0017757775008678436,0.012503873068466781,-0.014556969673372805
1772795494945154000,5.963154052734375,0.0012596446722745894,0.021635639355331658,-0.011130173562467097
1772795494955147000,5.97314697265625,-0.004058920001983642,0.00935761093199253,-0.01538454307131469
1772795494965139000,5.983138916015625,-0.012240472891926766,0.0112989542581141,-0.01800703706201166
1772795494975131100,5.993131103515625,-0.003101473146677017,-0.010022942972928285,-0.013986330178566276
1772795494985122800,6.003122802734375,0.017860650861263275,-0.012865765183418988,-0.02202441947720945
1772795494995115000,6.013114990234375,-0.006360767203569412,-0.004298866237699985,-0.03785871561001986
1772795495005107000,6.02310693359375,-0.023873043018579482,-0.01307546241134405,-0.02789075422734022
1772795495015100000,6.033099853515625,-0.03061901014745235,-0.025988062411174177,-0.01749547081068158
1772795495025091800,6.043091796875,-0.029143092375993728,-0.015579992578178643,-0.03212397135030478
1772795495035084000,6.053083984375,-0.02272153489589691,-0.009154197314381598,-0.04299026981219649
1772795495045076000,6.063075927734375,0.012151041042804718,0.007222863925620913,-0.025352833247557282
1772795495055068000,6.07306787109375,0.006771101570129394,0.008535261698439716,-0.037711087300255894
1772795495065061000,6.08306103515625,0.025445406901836394,-0.005455269731208682,-0.02057520704958588
1772795495075053000,6.093052978515625,0.011830138525366782,-0.024185762229561803,-0.019811273472383616
1772795495085045000,6.103044921875,-0.013961305335164069,-0.03475399106033146,-0.002978687017224729
1772795495095037000,6.113036865234375,-0.01601999143064022,-0.04861307813003659,0.02545501498039812
1772795495105029000,6.123029052734375,-0.013570260190963744,-0.056488706875964995,0.039609870126284655
1772795495115021000,6.13302099609375,-0.009750994163751601,-0.06672638857811689,0.038417262808233495
1772795495125014000,6.143013916015625,-0.022696984976530075,-0.050827977700531476,0.06204623140525072
1772795495135006000,6.153005859375,-0.009732873985171317,-0.014378800094872713,0.04608918567560613
1772795495144998100,6.162998046875,-0.018610592445731163,-0.0015351006127893923,0.03762618549577892
1772795495154990000,6.172989990234375,-0.009522446104884147,0.02778159476444125,0.061352221259102224
1772795495164982000,6.18298193359375,0.0063315411090850825,0.04742467206306755,0.04528192441333085
1772795495174974000,6.192973876953125,-0.015626023676991462,0.07517441038452088,0.013338972185738384
1772795495184967200,6.20296728515625,-0.00043079263269901275,0.07283274262920021,-0.004126870671659707
1772795495194958800,6.212958740234375,-0.005840542721748352,0.06214870539903641,-0.009928286959417163
1772795495204951000,6.222950927734375,-0.012712766578793526,0.038932811114937065,-0.009953275270201265
1772795495214943000,6.23294287109375,0.006907295170426368,0.02314494793973863,-0.015890410234220324
1772795495224935200,6.24293505859375,-0.004443535405397415,-0.019013766419142483,-0.01905398883167654
1772795495234927900,6.252927978515625,-0.008646247792243957,-0.029027283976599573,-0.02348777002803981
1772795495244920000,6.262920166015625,-0.00016015899777412413,-0.026782427659258246,-0.018854776465147733
1772795495254912000,6.272912109375,-0.009518938973546028,-0.0469956329960376,-0.0172026253439486
1772795495264904000,6.282904052734375,-0.0251923089236021,-0.031747794981673357,-0.03972816274370998
1772795495274896000,6.292895751953125,-0.007204232290387153,-0.017030556712672115,-0.0632747868195176
1772795495284888000,6.30288818359375,-0.01032967083454132,0.008729834422469138,-0.05607563256304711
1772795495294881000,6.312881103515625,-0.005697919380664825,0.019612243768945336,-0.039971250784583384
1772795495304873000,6.322873046875,-0.0028986440509557723,0.030130130651965736,-0.034567674707993865
1772795495314865200,6.332865234375,0.01571545552611351,0.01730382069610059,-0.04879866383001208
1772795495324857000,6.342857177734375,-0.008660860839486122,0.009336860404908656,-0.04924965900052339
1772795495334848800,6.352848876953125,0.00016191256344318388,-0.013073928041383623,-0.023081198521144687
1772795495344841000,6.362841064453125,0.00031388825476169586,-0.022673238774761555,-0.0006945216028019785
1772795495354834200,6.372834228515625,0.011420388680696487,-0.041445378457754846,0.01021112248878926
1772795495364825900,6.382825927734375,0.010883797585964201,-0.0577194177147001,0.023192294212803242
1772795495374818000,6.392818115234375,0.0033417116433382033,-0.05556311646364629,0.04866404113229364
1772795495384810000,6.40281005859375,-0.0026829554736614225,-0.04188727700635791,0.0473608861118555
1772795495394802200,6.41280224609375,0.005058452433347702,-0.04246653819903731,0.05355926582794636
1772795495404793900,6.4227939453125,-0.01485796191394329,-0.02486979897096753,0.06258253023903816
1772795495414787000,6.432787109375,-0.01876782883405685,-0.014011574217677115,0.050113363157771526
1772795495424779000,6.442779052734375,-0.02401508183777332,0.006317877909913659,0.04019596291854977
1772795495434771000,6.45277099609375,-0.014896540358662605,0.03172017632238567,0.013804507338255643
1772795495444763000,6.462762939453125,-0.005757540613412856,0.037772827424854036,0.027857582610100507
1772795495454755000,6.472755126953125,0.0010135609567165373,0.045020314335078,0.010596505077183247
1772795495464748000,6.482748046875,-0.006852934634685516,0.03451294884607196,0.00984455419871956
1772795495474740000,6.492739990234375,0.005514379507303237,0.02225004492662847,0.003886814838089049
1772795495484732000,6.50273193359375,0.018503624939918518,0.02542640994042158,0.018648659433797
1772795495494724000,6.51272412109375,0.0020481647014617918,0.0131784113291651,-0.005495053752325475
1772795495504716000,6.522716064453125,-0.015288170024752615,0.013767244067788124,-0.00026632278598845004
1772795495514708000,6.5327080078125,-0.01031271969974041,-0.011061857566609977,-0.007713314323686063
1772795495524701000,6.542700927734375,-0.004352934512495995,-0.022870953303948043,-0.024079488843493164
1772795495534693000,6.552693115234375,-0.05044248551428318,-0.07521620369963347,-0.03164919344540685
1772795495544684800,6.562684814453125,-0.00916062705516815,-0.14958302402831614,-0.06062558748498559
1772795495554677000,6.572677001953125,0.11016542507112026,-0.0941788975186646,-0.09290058467853814
1772795495564669000,6.5826689453125,0.14060440247654915,-0.010176818360388279,-0.09473148990012704
1772795495574662000,6.592661865234375,-0.0012795184165239333,0.020262962762638927,-0.11407763007879257
1772795495584654000,6.602654052734375,-0.1599076533615589,0.010903452134504913,-0.12281915493905543
1772795495594646000,6.61264599609375,-0.23693068728744981,0.06820975900366902,-0.09606456513479351
1772795495604638200,6.62263818359375,-0.12016484103798866,0.0606405658584088,-0.03484977958500385
1772795495614630000,6.6326298828125,0.045728316473960876,0.04689107664301991,0.04594013259373605
1772795495624622000,6.6426220703125,0.13840484660565852,0.02493468090072274,0.13609065137915313
