time,seconds_elapsed,z,y,x
1772795489049769200,0.067769287109375,0.0016586149577051401,0.02643302083015442,-0.011383293196558952
1772795489059762200,0.07776220703125,0.003893007058650255,0.014988617971539497,-0.006347788032144308
1772795489069754400,0.08775439453125,0.00888854917138815,0.000008455943316221237,-0.0008138840203173459
1772795489079746300,0.097746337890625,0.009006793610751629,-0.01580353081226349,0.0028397066053003073
1772795489089738200,0.10773828125,0.006182054989039898,-0.026407361030578613,0.007096612360328436
1772795489099730700,0.117730712890625,0.0024352537002414465,-0.029737377539277077,0.004592175595462322
1772795489109723600,0.1277236328125,-0.00011599087156355381,-0.032162390649318695,0.00043405621545389295
1772795489119715600,0.137715576171875,-0.0022659609094262123,-0.02550901472568512,-0.002330837771296501
1772795489129707500,0.14770751953125,0.0006846650503575802,-0.018666179850697517,0.0008457390358671546
1772795489139699700,0.15769970703125,0.003058606991544366,-0.008083310909569263,0.00007049291161820292
1772795489149691600,0.167691650390625,0.00330438488163054,0.0029262988828122616,0.001318512950092554
1772795489159683600,0.17768359375,0.005501226522028446,0.014233548194169998,0.00297819497063756
1772795489169676500,0.187676513671875,0.006246975157409906,0.023521119728684425,0.004040671046823263
1772795489179668700,0.197668701171875,0.00623951805755496,0.0339985266327858,-0.00009308767039328814
1772795489189660700,0.20766064453125,0.003694679820910096,0.036797188222408295,-0.004958662204444408
1772795489199652600,0.217652587890625,-0.0011986125027760863,0.040767163038253784,-0.009049810469150543
1772795489209644500,0.22764453125,-0.002310169395059347,0.035091087222099304,-0.00879414938390255
1772795489219637800,0.2376376953125,-0.006793867330998182,0.02831786870956421,-0.010834396816790104
1772795489229629400,0.24762939453125,-0.007546272594481707,0.011506599374115467,-0.006116483360528946
1772795489239621600,0.25762158203125,-0.006048777140676975,-0.0032630262430757284,0.002674078568816185
1772795489249613600,0.267613525390625,-0.005422213114798069,-0.016009924933314323,0.001321438467130065
1772795489259605800,0.277605712890625,-0.007255267351865768,-0.02531074918806553,0.007378265727311373
1772795489269597400,0.287597412109375,-0.0022358822170645,-0.030950801447033882,0.008193030022084713
1772795489279590700,0.297590576171875,-0.0018603764474391937,-0.032822735607624054,0.004126116633415222
1772795489289582800,0.307582763671875,-0.002356115961447358,-0.029072996228933334,0.001300665782764554
1772795489299574500,0.317574462890625,0.0016815024428069592,-0.019015302881598473,0.0020447529386729
1772795489309566700,0.327566650390625,0.0023214910179376602,-0.007729862350970507,0.002115351613610983
1772795489319558700,0.33755859375,0.00457399245351553,0.0010276767425239086,0.001417070860043168
1772795489329551600,0.347551513671875,0.002355298027396202,0.010406382381916046,-0.002098448108881712
1772795489339543600,0.35754345703125,0.0013512861914932728,0.015167316421866417,-0.0014603546587750316
1772795489349535700,0.36753564453125,-0.0031693833880126476,0.017507748678326607,-0.003872296307235956
1772795489359527700,0.377527587890625,-0.0014250128297135234,0.014464020729064941,-0.0011619972065091133
1772795489369519600,0.38751953125,0.002577953040599823,0.0076384409330785275,0.000821854337118566
1772795489379511600,0.397511474609375,0.0027718311175704002,0.0033081411384046078,0.001842644065618515
1772795489389504800,0.4075048828125,0.006227579899132252,-0.0016734031960368156,0.001740049454383552
1772795489399496400,0.417496337890625,0.008514436893165112,-0.006797857582569122,-5.995389074087143e-8
1772795489409488600,0.427488525390625,0.009134029038250446,-0.01163974218070507,-0.0006853954982943833
1772795489419480600,0.43748046875,0.008425362408161163,-0.014066414907574654,-0.0021405466832220554
1772795489429472800,0.44747265625,0.008126492612063885,-0.01173781044781208,0.0020511276088654995
1772795489439464400,0.45746435546875,0.004426563158631325,-0.006679402198642492,-0.0017798295011743903
1772795489449457700,0.467457763671875,-0.0004807179793715477,-0.004353002645075321,-0.0024754302576184273
1772795489459449600,0.47744970703125,-0.004826197866350412,-0.00047916872426867485,-0.0004732657107524574
1772795489469441500,0.487441650390625,-0.007708192802965641,0.004523790441453457,-0.0020674134138971567
1772795489479433500,0.49743359375,-0.00817930605262518,0.003153594210743904,0.0024556994903832674
1772795489489425700,0.50742578125,-0.010288780555129051,0.002525766845792532,0.001186582027003169
1772795489499418600,0.517418701171875,-0.00736063439399004,-0.0014551258645951748,-0.0013173220213502645
1772795489509410600,0.52741064453125,-0.0037621245719492435,-0.006391514558345079,-0.0006719545926898718
1772795489519402800,0.53740283203125,-0.0025543812662363052,-0.01347925141453743,-0.0008336084429174662
1772795489529394700,0.547394775390625,0.003309649182483554,-0.018285706639289856,-0.000801325892098248
1772795489539386600,0.55738671875,0.004734174348413944,-0.019492652267217636,0.00042692397255450487
1772795489549378600,0.567378662109375,0.007968535646796227,-0.01845419965684414,0.003194219432771206
1772795489559371800,0.577371826171875,0.006679832004010677,-0.010510522872209549,0.0004232001374475658
1772795489569363700,0.58736376953125,0.008096696808934212,-0.0014035156928002834,-0.0017290259711444378
1772795489579355600,0.597355712890625,0.005791730713099241,0.009785490110516548,0.0007104296237230301
1772795489589347600,0.60734765625,0.001978491898626089,0.021656539291143417,-0.0024127631913870573
1772795489599339800,0.61733984375,0.0004186783917248249,0.033362194895744324,0.0019377765711396933
1772795489609332500,0.62733251953125,-0.003280405420809984,0.043172262609004974,-0.0024741990491747856
1772795489619324700,0.63732470703125,-0.0031541716307401657,0.04328517988324165,-0.0041221631690859795
1772795489629316600,0.647316650390625,-0.006674589589238167,0.045284297317266464,-0.0008311487035825849
1772795489639308800,0.657308837890625,-0.004815436899662018,0.03624899312853813,-0.006544961128383875
1772795489649300500,0.667300537109375,-0.004518384113907814,0.02573147974908352,-0.0057769473642110825
1772795489659292700,0.677292724609375,-0.001356413122266531,0.00966809131205082,-0.001760633778758347
1772795489669285600,0.68728564453125,0.0004586726427078247,-0.0039513069204986095,0.0009018901037052274
1772795489679277600,0.697277587890625,0.0021929231006652117,-0.019104959443211555,0.0037900882307440042
1772795489689269500,0.70726953125,0.0001909297425299883,-0.03287585824728012,0.0035545870196074247
1772795489699261700,0.71726171875,-0.0007803250337019563,-0.042895734310150146,0.007379685528576374
1772795489709253600,0.727253662109375,-0.0006498764269053936,-0.04531313478946686,0.0062735904939472675
1772795489719246600,0.73724658203125,-0.0013667994644492865,-0.04780185967683792,0.00445518409833312
1772795489729238500,0.747238525390625,0.00199713371694088,-0.04542475938796997,0.0035005195531994104
1772795489739230700,0.757230712890625,0.0037937024608254433,-0.03874262422323227,0.0010408239904791117
1772795489749222400,0.767222412109375,0.0023280384484678507,-0.025549981743097305,-0.00013577635399997234
1772795489759214600,0.777214599609375,0.0029685290064662695,-0.014272026717662811,0.0031774623785167933
1772795489769206500,0.78720654296875,0.0010819772724062204,0.003706072922796011,-0.0006764610297977924
1772795489779199500,0.797199462890625,-0.0012916983105242252,0.02091861516237259,-0.001772618037648499
1772795489789191700,0.807191650390625,-0.001584209268912673,0.031944144517183304,-0.0025908180978149176
1772795489799183600,0.81718359375,-0.0020944708958268166,0.04652202129364014,-0.007058803457766771
1772795489809175800,0.82717578125,0.0008538367692381144,0.047561775892972946,-0.007019409444183111
1772795489819167500,0.83716748046875,0.005836344789713621,0.04625602811574936,-0.008571766316890717
1772795489829160700,0.84716064453125,0.005393071100115776,0.04021811485290527,-0.008347101509571075
1772795489839152600,0.857152587890625,0.008070345968008041,0.024995217099785805,-0.003276175819337368
1772795489849144600,0.86714453125,0.00672574806958437,0.010713914409279823,-0.0006471661617979407
1772795489859136500,0.877136474609375,0.005757155828177929,-0.002765142358839512,0.004053313285112381
1772795489869128700,0.887128662109375,-0.000002477085217833519,-0.017938384786248207,0.006682772655040026
1772795489879120600,0.89712060546875,-0.003939960617572069,-0.026416558772325516,0.0033828492742031813
1772795489889113600,0.907113525390625,-0.012572050094604492,-0.0323115810751915,0.007742856163531542
1772795489899105500,0.91710546875,-0.01820996031165123,-0.031699322164058685,0.0044133723713457584
1772795489909097700,0.92709765625,-0.018947014585137367,-0.02387484535574913,0.005526265595108271
1772795489919089700,0.937089599609375,-0.021816570311784744,-0.015516514889895916,0.001701167318969965
1772795489929081600,0.94708154296875,-0.017476072534918785,-0.007213898468762636,0.003526519052684307
1772795489939074600,0.957074462890625,-0.011525239795446396,0.0022949185222387314,0.005208305083215237
1772795489949066800,0.967066650390625,-0.002661564853042364,0.009483862668275833,0.0031698173843324184
1772795489959058400,0.977058349609375,0.004387289751321077,0.006682750303298235,-0.002383672632277012
1772795489969050600,0.987050537109375,0.012567579746246338,0.0038177138194441795,-0.0030544186010956764
1772795489979042600,0.99704248046875,0.018644381314516068,-0.005965142510831356,-0.0036094211973249912
1772795489989034800,1.00703466796875,0.01794397085905075,-0.006430929061025381,-0.004027803894132376
1772795489999027700,1.01702783203125,0.015428612940013409,-0.011147120967507362,-0.0010511886794120073
1772795490009019600,1.02701953125,0.012501675635576248,-0.010804630815982819,0.0024102837778627872
1772795490019011800,1.03701171875,0.005747632589191198,-0.006135842762887478,-0.0010315856197848916
1772795490029003500,1.04700341796875,0.0034462998155504465,0.0063642761670053005,-0.00012645532842725515
1772795490038995700,1.05699560546875,-0.0006349943578243256,0.015604112297296524,-0.0019949290435761213
1772795490048987600,1.066987548828125,-0.0006752863992005587,0.026768136769533157,-0.0038208132609725
1772795490058980600,1.076980712890625,-0.0007530506700277328,0.033084891736507416,-0.0034314594231545925
1772795490068972500,1.08697265625,0.0004872470162808895,0.03703335300087929,-0.0070998226292431355
1772795490078964700,1.09696484375,0.0015842029824852943,0.03435954079031944,-0.004579407162964344
1772795490088956700,1.106956787109375,0.0038491429295390844,0.025167427957057953,-0.003662767820060253
1772795490098947800,1.11694775390625,0.0027069130446761847,0.014794683083891869,-0.0019357078708708286
1772795490108940800,1.12694091796875,0.0001712394878268242,-0.0012313653714954853,0.0012472813250496984
1772795490118932700,1.1369326171875,-0.0026213512755930424,-0.016502730548381805,-0.0002853678888641298
1772795490128925000,1.146925048828125,-0.004389110952615738,-0.028000615537166595,0.0011999604757875204
1772795490138916600,1.15691650390625,-0.004332119598984718,-0.0383019894361496,0.0020649549551308155
1772795490148908800,1.16690869140625,-0.00446933601051569,-0.043077096343040466,0.0024200803600251675
1772795490158900700,1.176900634765625,-0.0034911567345261574,-0.03884400427341461,0.003970839083194733
1772795490168893700,1.186893798828125,-0.003074042033404112,-0.030575092881917953,0.0034551252610981464
1772795490178885600,1.1968857421875,-0.0028631198219954967,-0.017151162028312683,0.0024678914342075586
1772795490188877800,1.2068779296875,-0.0003116549924015999,-0.0010101194493472576,0.0018524767365306616
1772795490198869800,1.216869873046875,0.002491854829713702,0.01574595645070076,0.0010468706022948027
1772795490208862000,1.226862060546875,0.0021578941959887743,0.028724072501063347,-0.0017915264470502734
1772795490218854700,1.236854736328125,0.005590708926320076,0.036300502717494965,-0.006399061530828476
1772795490228846800,1.246846923828125,0.007393010891973972,0.03888457268476486,-0.005818596575409174
1772795490238838800,1.2568388671875,0.012421858496963978,0.02936270833015442,-0.00848761759698391
1772795490248830700,1.266830810546875,0.010605613701045513,0.01683962345123291,-0.007199508138000965
1772795490258822700,1.27682275390625,0.006370122544467449,-0.007974911481142044,-0.0050055962055921555
1772795490268814800,1.28681494140625,0.006568496115505695,-0.02642226219177246,0.0031216349452733994
1772795490278807600,1.2968076171875,0.007121368311345577,-0.04770278185606003,0.006410372443497181
1772795490288799700,1.3067998046875,0.0026411942671984434,-0.061327848583459854,0.007566148415207863
1772795490298791700,1.316791748046875,0.0020379882771521807,-0.06920095533132553,0.00850784219801426
1772795490308783900,1.326783935546875,-0.0021985978819429874,-0.06900390982627869,0.005771417636424303
1772795490318775600,1.336775634765625,0.00003552786074578762,-0.06054491549730301,0.006351720541715622
1772795490328767700,1.346767822265625,-0.0016365142073482275,-0.04867424815893173,0.0027793976478278637
1772795490338761000,1.356760986328125,-0.0020730062387883663,-0.023367026820778847,0.0023836521431803703
1772795490348752600,1.366752685546875,-0.002333996118977666,-0.0020007528364658356,0.0012922887690365314
1772795490358744800,1.376744873046875,-0.0021899191197007895,0.02571050450205803,-0.0000771086779423058
1772795490368736800,1.38673681640625,-0.001421457971446216,0.04610539972782135,-0.001640132861211896
1772795490378729000,1.39672900390625,-0.0030025767628103495,0.06731908023357391,-0.006432757712900639
1772795490388721700,1.4067216796875,-0.0030730867292732,0.07269499450922012,-0.007893893867731094
1772795490398713900,1.4167138671875,-0.0014770543202757835,0.07394374907016754,-0.013946725986897945
1772795490408705800,1.426705810546875,-0.0025642348919063807,0.07173071801662445,-0.012411435134708881
1772795490418697700,1.43669775390625,0.0002962665166705847,0.05763061344623566,-0.009733626618981361
1772795490428689700,1.446689697265625,0.0018239803612232208,0.04204445332288742,-0.01007094420492649
1772795490438683000,1.456682861328125,0.0031712735071778297,0.029377661645412445,-0.0028186237905174494
1772795490448674600,1.466674560546875,0.0017240187153220177,0.016642862930893898,0.0005863263504579663
1772795490458666800,1.476666748046875,0.00441434420645237,0.009604394435882568,0.0021578576415777206
1772795490468658700,1.48665869140625,-0.00041625380981713533,0.0027585825882852077,-0.0008001569658517838
1772795490478651000,1.49665087890625,-0.0013366423081606627,-0.00418108282610774,-0.0018891234649345279
1772795490488642800,1.506642822265625,0.001023043179884553,-0.011057106778025627,-0.00450477609410882
1772795490498635800,1.5166357421875,0.0006019973661750555,-0.015574626624584198,-0.0024525439366698265
1772795490508627700,1.526627685546875,0.002187408972531557,-0.019579855725169182,-0.0020882864482700825
1772795490518619600,1.53661962890625,0.007435167673975229,-0.027981329709291458,-0.0007098341011442244
1772795490528611600,1.546611572265625,0.009100097231566906,-0.0338309071958065,0.004520593211054802
1772795490538603800,1.556603759765625,0.00792537722736597,-0.04288991913199425,0.007534492760896683
1772795490548595700,1.566595703125,0.005419122986495495,-0.047384489327669144,0.007413934916257858
1772795490558588700,1.576588623046875,-0.00011599087156355381,-0.0500071682035923,0.0044463747180998325
1772795490568580900,1.586580810546875,-0.004069908056408167,-0.054561492055654526,0.004459711257368326
1772795490578572800,1.59657275390625,-0.002764160046353936,-0.051664240658283234,0.004899399355053902
1772795490588564700,1.606564697265625,-0.007774538826197386,-0.04610106721520424,0.005689727608114481
1772795490598556700,1.616556640625,-0.009553263895213604,-0.03045766055583954,0.004915812984108925
1772795490608550000,1.6265498046875,-0.007100350223481655,-0.015906941145658493,0.00913495384156704
1772795490618541800,1.636541748046875,-0.004718419164419174,0.007092117797583342,0.0016538677737116814
1772795490628533800,1.64653369140625,-0.0022813440300524235,0.02548791840672493,-0.001199385616928339
1772795490638525700,1.656525634765625,0.005949421785771847,0.04366612434387207,-0.008581135421991348
1772795490648518000,1.666517822265625,0.0064029269851744175,0.0559692308306694,-0.011886854656040668
1772795490658509800,1.676509765625,0.008026123046875,0.0635448545217514,-0.011231184005737305
1772795490668502800,1.686502685546875,0.0028158207423985004,0.06563827395439148,-0.009792977012693882
1772795490678494700,1.69649462890625,-0.0023339337203651667,0.05807596817612648,-0.008045144379138947
1772795490688487000,1.70648681640625,-0.0064910659566521645,0.04866108298301697,-0.006060061976313591
1772795490698478600,1.716478515625,-0.01115452777594328,0.029912695288658142,-0.00399158475920558
1772795490708470800,1.726470703125,-0.010899929329752922,0.011829973198473454,0.000018250953871756792
1772795490718463700,1.736463623046875,-0.006961113773286343,-0.006400695536285639,0.0021711504086852074
1772795490728455700,1.74645556640625,0.00031249411404132843,-0.02266237512230873,0.000886205118149519
1772795490738447600,1.756447509765625,0.00471310131251812,-0.03282979130744934,0.00012960101594217122
1772795490748439800,1.766439697265625,0.010754546150565147,-0.036140840500593185,0.0023715898860245943
1772795490758431700,1.776431640625,0.011571603827178478,-0.033661436289548874,-0.0005770621937699616
1772795490768423700,1.786423583984375,0.012299525551497936,-0.027347801253199577,0.0011131793726235628
1772795490778416600,1.796416748046875,0.007651244290173054,-0.010613295249640942,0.0012780290562659502
1772795490788408800,1.806408935546875,0.005650974344462156,0.00016987230628728867,-0.001924930140376091
1772795490798400800,1.81640087890625,0.0003510178066790104,0.012387124821543694,-0.0006013389793224633
1772795490808392700,1.826392822265625,-0.003610903862863779,0.013793600723147392,-0.0012904240284115076
1772795490818384600,1.836384521484375,-0.007828285917639732,0.013883350417017937,-0.0015085369814187288
1772795490828376800,1.846376953125,-0.010793466120958328,0.007215046789497137,0.002053384203463793
1772795490838369800,1.856369873046875,-0.011565783061087132,-0.006297299638390541,0.0016568393912166357
1772795490848361700,1.86636181640625,-0.007117362692952156,-0.019843460991978645,0.003199237398803234
1772795490858354000,1.87635400390625,-0.0059961723163723946,-0.030252426862716675,0.005618718918412924
1772795490868345900,1.886345947265625,-0.0012386697344481945,-0.041570696979761124,0.005281233694404364
1772795490878337800,1.896337890625,0.002729173982515931,-0.047105543315410614,0.005100671201944351
1772795490888330800,1.906330810546875,0.008156241849064827,-0.04288848489522934,0.004641296807676554
1772795490898323000,1.916322998046875,0.006202546879649162,-0.03438367694616318,0.002459102775901556
1772795490908314600,1.926314697265625,0.007556263357400894,-0.01750599779188633,0.0008861774113029242
1772795490918306800,1.936306884765625,0.004465398378670216,-0.0003669583238661289,-0.0017639340367168188
1772795490928298800,1.946298828125,0.0039528184570372105,0.018789637833833694,-0.0023285034112632275
1772795490938291000,1.956291015625,-0.000990541186183691,0.03733961656689644,-0.007506486959755421
1772795490948283600,1.96628369140625,-0.0003010024083778262,0.053277622908353806,-0.0059809451922774315
1772795490958275800,1.97627587890625,-0.0019897129386663437,0.06421122699975967,-0.007829445414245129
1772795490968267800,1.986267822265625,-0.005251144990324974,0.07069283723831177,-0.009269521571695805
1772795490978259700,1.996259765625,-0.0016726551111787558,0.06499473750591278,-0.007463365327566862
1772795490988251600,2.006251708984375,-0.00046804628800600767,0.05623020976781845,-0.009271953254938126
1772795490998244900,2.016244873046875,0.00006112386472523212,0.03973298892378807,-0.005949393846094608
1772795491008236500,2.026236572265625,0.002720651915296912,0.022696705535054207,-0.005894988309592009
1772795491018228700,2.036228759765625,0.0028591363225132227,0.0017277742736041546,-0.003752474905923009
1772795491028220700,2.046220703125,0.0033275079913437366,-0.016102833673357964,0.0000781952403485775
1772795491038212900,2.056212890625,0.005268952809274197,-0.028145380318164825,0.003007139777764678
1772795491048204500,2.06620458984375,0.003430635202676058,-0.03613319993019104,0.0072036245837807655
1772795491058197800,2.07619775390625,0.004226121585816145,-0.03890049457550049,0.007781263906508684
1772795491068190000,2.08618994140625,0.0015125481877475977,-0.03913639485836029,0.0046373819932341576
1772795491078181600,2.096181640625,-0.0005886858562007546,-0.03684287890791893,0.001665027579292655
1772795491088173800,2.106173828125,-0.003446476999670267,-0.032076042145490646,-0.0007794050616212189
1772795491098165800,2.116165771484375,-0.0022451248951256275,-0.026336397975683212,-0.0007173533667810261
1772795491108157700,2.12615771484375,-0.006336900405585766,-0.01665843091905117,-0.0020450176671147346
1772795491118150700,2.136150634765625,-0.003787722671404481,-0.016909565776586533,0.0016666300361976027
1772795491128142800,2.146142822265625,-0.0021589952521026134,-0.007032896392047405,0.0012842369033023715
1772795491138134800,2.156134765625,-0.0021941489540040493,-0.0015928572975099087,0.004358590114861727
1772795491148126700,2.166126708984375,-0.0011936624068766832,0.004943274427205324,-0.00012471684021875262
1772795491158118700,2.17611865234375,0.003767274087294936,0.008112169802188873,-0.0023175636306405067
1772795491168111900,2.18611181640625,0.0023280843161046505,0.01230317447334528,-0.005875603295862675
1772795491178103800,2.196103759765625,0.0037576695904135704,0.012139390222728252,-0.00648120604455471
1772795491188095700,2.206095703125,0.006758035626262426,0.008995972573757172,-0.006168557330965996
1772795491198087700,2.216087646484375,0.004714059643447399,0.008632982149720192,-0.002113095484673977
1772795491208080000,2.226079833984375,0.007420613430440426,0.009025251492857933,-0.0018875827081501484
1772795491218071800,2.23607177734375,0.005519382655620575,0.010855909436941147,0.0016847816295921803
1772795491228064800,2.246064697265625,0.0044807977974414825,0.014460145495831966,0.00011271235416643322
1772795491238056700,2.256056640625,0.0016333460807800293,0.02391037344932556,-0.003000789089128375
1772795491248049000,2.266048828125,-0.0006648834096267819,0.027093859389424324,-0.005623183213174343
1772795491258040600,2.27604052734375,-0.0019762238953262568,0.03244867920875549,-0.0052468786016106606
1772795491268032800,2.28603271484375,-0.0034274128265678883,0.03206010162830353,-0.0037512690760195255
1772795491278026000,2.29602587890625,-0.007404843810945749,0.027880001813173294,-0.0012449681526049972
1772795491288017700,2.306017578125,-0.007365945726633072,0.02425890788435936,-0.0006700274534523487
1772795491298009600,2.316009521484375,-0.005326763726770878,0.013783897273242474,0.005276810843497515
1772795491308001800,2.326001708984375,-0.005145370494574308,0.004196414723992348,0.0034306449815630913
1772795491317993700,2.33599365234375,-0.004764538258314133,-0.00646927859634161,0.00327112153172493
1772795491327985700,2.345985595703125,-0.0002454044297337532,-0.017660928890109062,0.0031505387742072344
1772795491337979000,2.355978759765625,0.004610070958733559,-0.028883488848805428,-0.0010647125309333205
1772795491347970800,2.365970703125,0.0036053538788110018,-0.036594048142433167,-0.0025551174767315388
1772795491357962800,2.375962646484375,0.0037896444555372,-0.03583531454205513,0.0018100696615874767
1772795491367954700,2.38595458984375,0.00206322711892426,-0.03515343368053436,0.002951459027826786
1772795491377947000,2.39594677734375,-0.0029754736460745335,-0.027094444260001183,0.003994885366410017
1772795491387938800,2.405938720703125,-0.006193011999130249,-0.02214832603931427,0.005210519302636385
1772795491397931800,2.415931884765625,-0.00535624660551548,-0.013161221519112587,0.0027886407915502787
1772795491407923700,2.425923828125,-0.006114698015153408,-0.005985851399600506,0.0024760430678725243
1772795491417916000,2.435916015625,-0.0036454149521887302,0.002579673193395138,-0.0008417229983024299
1772795491427907600,2.445907470703125,-0.0005196942947804928,0.004937204997986555,0.0007615623762831092
1772795491437899800,2.455899658203125,0.0020726267248392105,0.007773736957460642,-0.004083259962499142
1772795491447892700,2.465892822265625,0.007067651953548193,0.008808109909296036,-0.004727744963020086
1772795491457884700,2.475884765625,0.008889254182577133,0.008753780275583267,-0.006232963874936104
1772795491467876600,2.485876708984375,0.009680651128292084,0.009384858421981335,-0.006045110989362001
1772795491477868800,2.495868896484375,0.008260654285550117,0.01267066691070795,-0.0016112138982862234
1772795491487860700,2.50586083984375,0.008001480251550674,0.014752810820937157,-0.0015909697394818068
1772795491497853000,2.51585302734375,-0.0006061221938580275,0.019331317394971848,-0.002203496638685465
1772795491507845600,2.525845703125,-0.0018015678506344557,0.018377289175987244,0.000585894042160362
1772795491517837800,2.535837890625,-0.006134797353297472,0.021791726350784302,-0.0035369456745684147
1772795491527829800,2.545829833984375,-0.008788684383034706,0.01769387722015381,-0.001701311208307743
1772795491537821700,2.55582177734375,-0.006009142845869064,0.01414627954363823,-0.004908289760351181
1772795491547813600,2.565813720703125,-0.0031226216815412045,0.007605739403516054,0.0006242268718779087
1772795491557805800,2.575805908203125,0.0005402902606874704,0.0032208445481956005,-0.003206197638064623
1772795491567798800,2.585798828125,0.0041157882660627365,-0.007684994488954544,-0.001978975720703602
1772795491577790700,2.595790771484375,0.009304957464337349,-0.014367664232850075,-0.000405846512876451
1772795491587783000,2.605782958984375,0.011918960139155388,-0.02369554154574871,0.0017709801904857159
1772795491597774800,2.61577490234375,0.012477424927055836,-0.021537048742175102,0.0018189169932156801
1772795491607766800,2.625766845703125,0.009259527549147606,-0.024878252297639847,0.0015163819771260023
1772795491617759700,2.635759765625,0.0063795847818255424,-0.023591412231326103,0.0014101217966526747
1772795491627752000,2.645751953125,0.001544521888718009,-0.02252770960330963,0.002504335017874837
1772795491637743600,2.65574365234375,-0.0026941653341054916,-0.019585981965065002,0.004189050756394863
1772795491647735800,2.66573583984375,-0.010026177391409874,-0.013938011601567268,0.0020996599923819304
1772795491657727700,2.675727783203125,-0.011249368079006672,-0.007832448929548264,0.0021811528131365776
1772795491667720000,2.685719970703125,-0.01058439165353775,-0.0018525924533605576,0.0020269914530217648
1772795491677712600,2.695712646484375,-0.00742614921182394,0.004749650601297617,0.0019641409162431955
1772795491687704800,2.705704833984375,-0.004063296131789684,0.00668290676549077,-0.0005231465329416096
1772795491697696800,2.71569677734375,0.0002723298966884613,0.01424362137913704,-0.001503189792856574
1772795491707688700,2.725688720703125,0.004237432032823563,0.015911879017949104,0.0010603482369333506
1772795491717680600,2.7356806640625,0.0039106616750359535,0.019837645813822746,0.00254532671533525
1772795491727672800,2.7456728515625,0.0021708656568080187,0.020053673535585403,-0.004013156518340111
1772795491737665500,2.75566552734375,-0.00032371748238801956,0.01842169091105461,-0.006688301917165518
1772795491747657700,2.76565771484375,0.00011457642540335655,0.0144656365737319,-0.008427840657532215
1772795491757649700,2.775649658203125,0.0025614891201257706,0.01122057531028986,-0.004644021857529879
1772795491767641900,2.785641845703125,0.0033225086517632008,0.006115585565567017,-0.00306463660672307
1772795491777633800,2.7956337890625,0.0005632077809423208,0.004859639331698418,-0.0013610124588012695
1772795491787626800,2.805626708984375,0.0026502504479140043,0.002633156720548868,0.002129482803866267
1772795491797619000,2.815618896484375,0.002546387491747737,0.0017961249686777592,0.0014562357682734728
1772795491807610600,2.825610595703125,0.0003093320410698652,0.0022017243318259716,-0.001911065075546503
1772795491817602600,2.8356025390625,0.0014379797503352165,0.0036001508124172688,-0.0010114492615684867
1772795491827594800,2.8455947265625,0.003568758722394705,0.0010758629068732262,-0.0015298444777727127
1772795491837586700,2.855586669921875,0.004651333671063185,0.0013986378908157349,-0.0042212349362671375
1772795491847579600,2.86557958984375,0.007255201227962971,-0.0038690059445798397,-0.002884429879486561
1772795491857571800,2.87557177734375,0.007642158307135105,-0.009013433940708637,0.0015449397033080459
1772795491867563800,2.885563720703125,0.008644290268421173,-0.015249104239046574,0.0011336032766848803
1772795491877556000,2.895555908203125,0.0067851366475224495,-0.020120292901992798,0.003949097357690334
1772795491887547600,2.905547607421875,0.0017843625973910093,-0.026616036891937256,0.004199212417006493
1772795491897540900,2.915540771484375,0.0016639877576380968,-0.029021937400102615,0.0034335535019636154
1772795491907532800,2.92553271484375,-0.003668381366878748,-0.03140578791499138,0.002397604752331972
1772795491917524700,2.935524658203125,-0.009012014605104923,-0.027603060007095337,0.004395774565637112
1772795491927516700,2.9455166015625,-0.009706550277769566,-0.022869272157549858,0.0040434966795146465
1772795491937508900,2.9555087890625,-0.011744667775928974,-0.01560496911406517,0.00558413565158844
1772795491947500800,2.965500732421875,-0.00845867209136486,-0.001616127323359251,0.00411697942763567
1772795491957493800,2.97549365234375,-0.005417341366410255,0.005950445309281349,0.0014207949861884117
1772795491967485700,2.985485595703125,-0.0005829364527016878,0.016772832721471786,-0.0019025015644729137
1772795491977478000,2.995477783203125,0.00009830016642808914,0.02077556401491165,-0.005862356163561344
1772795491987469600,3.005469482421875,0.002810009056702256,0.023066893219947815,-0.004784820135682821
1772795491997461800,3.015461669921875,0.00453946553170681,0.024051731452345848,-0.0026819880586117506
1772795492007453700,3.02545361328125,0.00033225095830857754,0.024316761642694473,-0.004135191906243563
1772795492017446700,3.03544677734375,-0.0006608418188989162,0.020539067685604095,-0.0018832229543477297
1772795492027438600,3.0454384765625,-0.0032089543528854847,0.01857525296509266,-0.000158293463755399
1772795492037430800,3.0554306640625,-0.005728304386138916,0.008969496935606003,0.0020148458424955606
1772795492047422700,3.065422607421875,-0.005199198145419359,0.004226344637572765,-0.00111477542668581
1772795492057414700,3.07541455078125,-0.0012755629140883684,-0.0012879963032901287,-0.0006884032627567649
1772795492067408000,3.085407958984375,0.0015683649107813835,-0.006853665690869093,0.0018501586746424437
1772795492077399800,3.09539990234375,0.003354547079652548,-0.011941901408135891,0.0014118023682385683
1772795492087391700,3.105391845703125,0.0019271860364824533,-0.013889644294977188,0.0029086656868457794
1772795492097383700,3.1153837890625,0.0025136142503470182,-0.0161858219653368,0.002960597164928913
1772795492107376400,3.12537646484375,0.0024495103862136602,-0.01499863900244236,0.004163567908108234
1772795492117368600,3.13536865234375,-0.0023636205587536097,-0.009126368910074234,-0.000790976919233799
1772795492127361300,3.145361328125,-0.00020138383843004704,-0.002263119909912348,0.0010930013377219439
1772795492137353500,3.155353515625,-0.0007486633257940412,0.0032634721137583256,-0.00021141499746590853
1772795492147345400,3.165345458984375,-0.0024402879644185305,0.011780673637986183,-0.002395061543211341
1772795492157337300,3.17533740234375,-0.002605670364573598,0.019133396446704865,-0.006786348298192024
1772795492167329300,3.185329345703125,-0.004854678176343441,0.0230015367269516,-0.0024510505609214306
1772795492177321500,3.195321533203125,-0.0034605131950229406,0.02138766087591648,-0.005683861672878265
1772795492187314200,3.205314208984375,-0.009686969220638275,0.020438265055418015,-0.002843274734914303
1772795492197306400,3.215306396484375,-0.007898922078311443,0.014164922758936882,-0.002665109233930707
1772795492207298300,3.22529833984375,-0.004691927693784237,0.006140695884823799,-0.0006726538413204253
1772795492217290500,3.23529052734375,-0.001202654093503952,-0.004350560717284679,-0.0019989078864455223
1772795492227282200,3.2452822265625,0.002577938139438629,-0.01959492638707161,0.004108581691980362
1772795492237275400,3.255275390625,0.0040541281923651695,-0.02899002470076084,0.005427112337201834
1772795492247267600,3.265267578125,0.005851776804775,-0.03305279463529587,0.003682888112962246
1772795492257259300,3.27525927734375,0.007608398329466581,-0.040188200771808624,0.0049353730864822865
1772795492267251500,3.28525146484375,0.008740836754441261,-0.033597081899642944,0.004682779777795076
1772795492277243400,3.295243408203125,0.005086181685328484,-0.03009049966931343,0.004266793839633465
1772795492287235300,3.3052353515625,0.005439065862447023,-0.019721994176506996,0.002483600750565529
1772795492297228300,3.315228271484375,-0.0005671611288562417,-0.010428893379867077,-0.0007516073528677225
1772795492307220500,3.325220458984375,-0.002514903200790286,0.0008342377841472626,-0.0020425424445420504
1772795492317212400,3.33521240234375,-0.005380997434258461,0.008393886499106884,-0.002109387656673789
1772795492327204400,3.345204345703125,-0.005352783016860485,0.014821013435721397,0.0021733632311224937
1772795492337196300,3.3551962890625,-0.0028864298947155476,0.01567189395427704,0.0017248867079615593
1772795492347188500,3.3651884765625,-0.006571821868419647,0.01733652502298355,0.0017792563885450363
1772795492357181200,3.37518115234375,-0.007211246993392706,0.016879793256521225,0.004045606590807438
1772795492367173400,3.38517333984375,-0.009903138503432274,0.015591522678732872,0.0008907640585675836
1772795492377165300,3.395165283203125,-0.009247468784451485,0.009542418643832207,0.0008870356250554323
1772795492387157500,3.405157470703125,-0.0096645038574934,0.0024787941947579384,-0.00007661763811483979
1772795492397149400,3.4151494140625,-0.008882599882781506,0.0014452217146754265,-0.002593837445601821
1772795492407142400,3.425142333984375,-0.0034562679938971996,0.0008039423264563084,-0.002866648603230715
1772795492417134300,3.43513427734375,-0.0029792957939207554,0.0029097036458551884,0.0021624646615236998
1772795492427126500,3.44512646484375,-0.0017620907165110111,0.007761056534945965,0.001406642608344555
1772795492437118200,3.4551181640625,-0.00042491755448281765,0.018432341516017914,-0.0017084568971768022
1772795492447110400,3.4651103515625,-0.0007432587444782257,0.029745623469352722,-0.004168319050222635
1772795492457102300,3.475102294921875,-0.0006737502990290523,0.04081745073199272,-0.008379309438169003
1772795492467095300,3.48509521484375,0.0003999108448624611,0.04425666481256485,-0.00967184454202652
1772795492477087200,3.495087158203125,0.0002465129364281893,0.04077538102865219,-0.010724592953920364
1772795492487079400,3.505079345703125,-0.00005512917414307594,0.035668596625328064,-0.00718615110963583
1772795492497071400,3.5150712890625,0.0014391704462468624,0.019548214972019196,-0.001309353276155889
1772795492507063300,3.525063232421875,0.002002930035814643,0.005227966699749231,0.0015749125741422176
1772795492517055200,3.53505517578125,0.003581651719287038,-0.011638631112873554,0.0017139296978712082
1772795492527048400,3.54504833984375,0.006139475852251053,-0.02453206479549408,0.0072257122956216335
1772795492537040400,3.555040283203125,0.006130687892436981,-0.03433170169591904,0.00615032808855176
1772795492547032300,3.5650322265625,0.0015009241178631783,-0.041641004383563995,0.0021403017453849316
1772795492557024500,3.5750244140625,0.0004495079629123211,-0.04099785163998604,-0.0025993259623646736
1772795492567016400,3.585016357421875,-0.0013703397708013654,-0.038149572908878326,0.0015911138616502285
1772795492577009400,3.595009521484375,-0.00498904287815094,-0.03571544215083122,0.0058207460679113865
1772795492587001300,3.60500146484375,-0.006026140414178371,-0.022662557661533356,0.003479684703052044
1772795492596993500,3.61499365234375,-0.00624079117551446,-0.017428647726774216,0.0030570412054657936
1772795492606985200,3.624985107421875,-0.003433569334447384,-0.009966080076992512,0.004092334304004908
1772795492616977400,3.634977294921875,-0.0015917271375656128,-0.007624095771461725,-0.00021053507225587964
1772795492626969300,3.64496923828125,0.0003943806514143944,-0.005935205612331629,-0.003740490647032857
1772795492636962300,3.65496240234375,-0.001942543312907219,-0.0076116654090583324,-0.003068042453378439
1772795492646954200,3.664954345703125,-0.004122497048228979,-0.009766052477061749,-0.0014784431550651789
1772795492656946400,3.674946533203125,-0.008077823556959629,-0.01876087859272957,-0.0005908116581849754
1772795492666938400,3.6849384765625,-0.010205643251538277,-0.02118990197777748,0.002460455521941185
1772795492676930300,3.694930419921875,-0.008817603811621666,-0.017552290111780167,0.0037164022214710712
1772795492686922200,3.704922119140625,-0.007617129012942314,-0.012964673340320587,0.005183782894164324
1772795492696915500,3.71491552734375,-0.0014108980540186167,-0.0015812576748430729,0.001743245287798345
1772795492706907400,3.724907470703125,0.0021544171031564474,0.01427121739834547,-0.002532297745347023
1772795492716899300,3.7348994140625,0.008689281530678272,0.027445342391729355,-0.006434360984712839
1772795492726891300,3.744891357421875,0.011556753888726234,0.04516206681728363,-0.005973285064101219
1772795492736883500,3.754883544921875,0.013356784358620644,0.05845417082309723,-0.009344580583274364
1772795492746876400,3.76487646484375,0.011746261268854141,0.06260699033737183,-0.011427130550146103
1772795492756868400,3.774868408203125,0.008292673155665398,0.06400195509195328,-0.01188759133219719
1772795492766860500,3.784860595703125,0.0042511699721217155,0.05560073256492615,-0.006757670547813177
1772795492776852500,3.7948525390625,0.0015246258117258549,0.04201488569378853,-0.003956291824579239
1772795492786844400,3.804844482421875,-0.003748839721083641,0.02507610432803631,-0.002862162422388792
1772795492796836400,3.81483642578125,-0.0067744567058980465,0.00516764260828495,-0.0005931492196395993
1772795492806829600,3.82482958984375,-0.004599941894412041,-0.017589673399925232,-0.0004911491996608675
1772795492816821200,3.8348212890625,-0.004794884938746691,-0.03351537883281708,0.00004494510358199477
1772795492826813400,3.8448134765625,-0.0021980339661240578,-0.04905001074075699,0.0030687798280268908
1772795492836805400,3.854805419921875,0.0017825926188379526,-0.061114128679037094,0.004454689100384712
1772795492846797600,3.864797607421875,0.0018139553721994162,-0.06951886415481567,0.0036785018164664507
1772795492856789200,3.874789306640625,0.00129597052000463,-0.06844054907560349,0.00565296970307827
1772795492866782500,3.884782470703125,0.004347498994320631,-0.06366955488920212,0.006883104331791401
1772795492876774400,3.8947744140625,0.0044859834015369415,-0.056742407381534576,0.007830390706658363
1772795492886766300,3.904766357421875,0.0028655105270445347,-0.04120825603604317,0.004361321683973074
1772795492896758300,3.91475830078125,0.002008505165576935,-0.0240713432431221,0.0006736425566487014
1772795492906750500,3.92475048828125,0.002300341846421361,-0.007904941216111183,-0.001993863843381405
1772795492916743200,3.9347431640625,0.0016638461966067553,0.010252756997942924,-0.004309216048568487
1772795492926735400,3.9447353515625,0.00280391494743526,0.02616484835743904,-0.0032011002767831087
1772795492936727300,3.954727294921875,0.00226276065222919,0.03489868342876434,-0.004957455210387707
1772795492946719500,3.964719482421875,0.0012155428994446993,0.041425228118896484,-0.0059781200252473354
1772795492956711200,3.974711181640625,0.0010533565655350685,0.045164838433265686,-0.003224411513656378
1772795492966703400,3.984703369140625,0.0022924316581338644,0.044811081141233444,-0.003657873719930649
1772795492976696600,3.994696533203125,-0.0004820495378226042,0.041623279452323914,-0.003271715249866247
1772795492986688300,4.004688232421875,0.0005067347083240747,0.03397409990429878,-0.0018107874784618616
1772795492996680200,4.01468017578125,0.0003299007657915354,0.025502584874629974,-0.0024707189295440912
1772795493006672400,4.02467236328125,-0.0016396003775298595,0.014582062140107155,-0.003201038111001253
1772795493016664300,4.034664306640625,0.0009045174811035395,0.0037935972213745117,0.0007276569958776236
1772795493026657300,4.0446572265625,-0.00036634306889027357,-0.0022970521822571754,-0.0009456070838496089
1772795493036649500,4.0546494140625,-0.0013636968797072768,-0.01234329491853714,0.0019202205585315824
1772795493046641400,4.064641357421875,-0.0012441209983080626,-0.020075783133506775,-0.001511262496933341
1772795493056633600,4.074633544921875,-0.002797808963805437,-0.021444648504257202,-0.0019493524450808764
1772795493066625300,4.084625244140625,-0.0024923295713961124,-0.02407064288854599,0.000356824544724077
1772795493076617500,4.094617431640625,-0.0011775268940255046,-0.02364720031619072,0.0025179795920848846
1772795493086610400,4.1046103515625,-0.0027196374721825123,-0.022152505815029144,0.0047859447076916695
1772795493096602400,4.114602294921875,-0.006787615828216076,-0.018061358481645584,0.0020066697616130114
1772795493106593800,4.12459375,-0.006519028916954994,-0.008969314396381378,0.0004608682938851416
1772795493116586000,4.1345859375,-0.005824476480484009,-0.005155134946107864,-0.005151210818439722
1772795493126578000,4.144577880859375,-0.000039653852581977844,0.0008408748544752598,-0.003633732907474041
1772795493136569900,4.15456982421875,0.0033643986098468304,0.0022669974714517593,-0.003375140018761158
1772795493146562800,4.164562744140625,0.004064013250172138,0.006191828288137913,-0.003491875948384404
1772795493156555000,4.174554931640625,0.008475006558001041,0.003083121031522751,-0.0008558793342672288
1772795493166547000,4.184546875,0.008825259283185005,0.0029449486173689365,0.0033629173412919044
1772795493176539000,4.194538818359375,0.00810061302036047,0.0035159303806722164,0.001734394347295165
1772795493186530800,4.20453076171875,0.00534361507743597,0.006174472626298666,-0.0008522335556335747
1772795493196524000,4.21452392578125,0.0028753976803272963,0.004989100154489279,-0.004462680779397488
1772795493206515700,4.224515625,0.0015895606484264135,0.011183281429111958,-0.005977362859994173
1772795493216508000,4.2345078125,-0.0029383457731455564,0.014012358151376247,-0.0036380423698574305
1772795493226499800,4.244499755859375,-0.0015891732182353735,0.01510427426546812,-0.004257699940353632
1772795493236492000,4.254491943359375,-0.0032965256832540035,0.015945833176374435,-0.00013965403195470572
1772795493246483700,4.264483642578125,-0.004520796239376068,0.01893734186887741,0.0010331424418836832
1772795493256477000,4.274476806640625,-0.004702157340943813,0.013285580091178417,-0.000973016896750778
1772795493266468900,4.28446875,-0.000849316013045609,0.006236381828784943,-0.001882754499092698
1772795493276460800,4.294460693359375,-0.0016575853805989027,-0.0003823726437985897,-0.0012502536410465837
1772795493286452700,4.30445263671875,0.0032887980341911316,-0.008641280233860016,0.0012056116247549653
1772795493296445000,4.31444482421875,0.0023058252409100533,-0.013066122308373451,0.0011084062280133367
1772795493306436900,4.324436767578125,0.0009555863216519356,-0.018985141068696976,0.0015719186048954725
1772795493316429800,4.334429931640625,-0.00014350004494190216,-0.02088743820786476,0.0020028180442750454
1772795493326422000,4.344422119140625,-0.0018875256646424532,-0.02515227720141411,0.004336300306022167
1772795493336414000,4.3544140625,-0.00402417965233326,-0.029905755072832108,0.0033437402453273535
1772795493346406000,4.364406005859375,-0.0019933313596993685,-0.026320159435272217,0.004387497901916504
1772795493356397800,4.374397705078125,0.0020219164434820414,-0.023954207077622414,0.004300678614526987
1772795493366390000,4.38439013671875,0.0034207343123853207,-0.02109624072909355,-0.0015057940036058426
1772795493376382700,4.3943828125,0.004020478576421738,-0.015198670327663422,0.0008468425367027521
1772795493386375000,4.404375,0.008383989334106445,-0.006145997904241085,0.0009983557974919677
1772795493396366800,4.414366943359375,0.0073048765771090984,0.0013145813718438148,-0.0001412107958458364
1772795493406359000,4.424359130859375,0.006568026728928089,0.01261947862803936,-0.00153902149759233
1772795493416350700,4.434350830078125,0.005627931095659733,0.02044970542192459,-0.0032921803649514914
1772795493426344000,4.444343994140625,0.0013227746821939945,0.025490911677479744,-0.003134828759357333
1772795493436335900,4.4543359375,-0.00251057930290699,0.029405226930975914,-0.0048357900232076645
1772795493446327800,4.464327880859375,-0.007425678428262472,0.030469326302409172,-0.005181530024856329
1772795493456319700,4.47431982421875,-0.007309032138437033,0.02617764286696911,-0.0038771135732531548
1772795493466312000,4.48431201171875,-0.010573238134384155,0.01714809611439705,-0.002533077960833907
1772795493476304000,4.494303955078125,-0.009915437549352646,0.008970060385763645,-0.0014483723789453506
1772795493486296800,4.504296875,-0.0044822897762060165,0.0015015150420367718,0.0008086794405244291
1772795493496288800,4.514288818359375,-0.003652715589851141,-0.010752221569418907,0.0015903173480182886
1772795493506281000,4.524281005859375,0.00020346371456980705,-0.020165640860795975,0.0025178752839565277
1772795493516273000,4.53427294921875,0.0004609914030879736,-0.023848259821534157,0.002795909531414509
1772795493526264800,4.544264892578125,0.005588969215750694,-0.023776689544320107,0.003089620266109705
1772795493536256800,4.5542568359375,0.004336484707891941,-0.019371289759874344,0.0026677753776311874
1772795493546250000,4.56425,0.0066182976588606834,-0.011107753962278366,0.0009080154122784734
1772795493556242000,4.574241943359375,0.002362034050747752,0.00042479950934648514,-0.0003932051477022469
1772795493566233900,4.58423388671875,0.004886490758508444,0.010280014015734196,-0.002175661036744714
1772795493576225800,4.594225830078125,0.0029314644634723663,0.015209791250526905,-0.0012211842695251107
1772795493586218000,4.604218017578125,-0.0009693611646071076,0.019587527960538864,-0.00392783572897315
1772795493596211000,4.6142109375,0.0011529119219630957,0.021355602890253067,-0.0022585662081837654
1772795493606203000,4.624202880859375,0.0022055499721318483,0.01838553324341774,-0.005560045130550861
1772795493616195000,4.634195068359375,0.0021831791382282972,0.016750618815422058,-0.0023336259182542562
1772795493626186800,4.644186767578125,0.002323261694982648,0.012901819311082363,0.0031586112454533577
1772795493636179000,4.654178955078125,0.006046360358595848,0.004942696541547775,-0.0007730135112069547
1772795493646171000,4.6641708984375,0.006739455740898848,-0.003994863014668226,-0.0006711179739795625
1772795493656163800,4.674163818359375,0.0027827974408864975,-0.010441843420267105,0.000648211978841573
1772795493666155800,4.68415576171875,0.0034073088318109512,-0.016210250556468964,0.005956690758466721
1772795493676148000,4.69414794921875,-0.002271882025524974,-0.022487852722406387,0.0008620638400316238
1772795493686140000,4.704139892578125,-0.0023829201236367226,-0.023935401812195778,0.0035836934112012386
1772795493696131800,4.7141318359375,-0.0012324346462264657,-0.027895255014300346,0.00041746109491214156
1772795493706124800,4.724124755859375,-0.003831006120890379,-0.03132965788245201,-0.00003937480505555868
1772795493716117000,4.734116943359375,0.0006787909660488367,-0.027735190466046333,0.0012698351638391614
1772795493726108700,4.744108642578125,0.000009914394468069077,-0.02197040244936943,0.003966777119785547
1772795493736100900,4.754100830078125,-0.0008931636111810803,-0.01696179434657097,0.004807803314179182
1772795493746092800,4.7640927734375,-0.0011557983234524727,-0.00633662473410368,0.0019775796681642532
1772795493756085000,4.7740849609375,-0.005412861239165068,0.003321861382573843,-0.000608882459346205
1772795493766077700,4.78407763671875,-0.0048614926636219025,0.016677170991897583,-0.003834604285657406
1772795493776070000,4.79406982421875,-0.004594909958541393,0.024465853348374367,-0.006172859575599432
1772795493786061800,4.804061767578125,0.00036536832340061665,0.03292326256632805,-0.007987109012901783
1772795493796053800,4.8140537109375,0.0036040383856743574,0.032067589461803436,-0.007654745597392321
1772795493806045700,4.824045654296875,0.0075926994904875755,0.031937286257743835,-0.0030285685788840055
1772795493816038000,4.834037841796875,0.010915525257587433,0.030131397768855095,-0.004166537430137396
1772795493826030800,4.84403076171875,0.009836241602897644,0.025916624814271927,-0.0017161801224574447
1772795493836022800,4.854022705078125,0.01423684973269701,0.018212098628282547,0.0012452551163733006
1772795493846015000,4.864014892578125,0.008276083506643772,0.01756887510418892,0.0002432675682939589
1772795493856007000,4.8740068359375,0.0037018381990492344,0.014072678051888943,-0.0017178843263536692
1772795493865999000,4.8839990234375,-0.001704096095636487,0.009141446091234684,-0.003056511515751481
1772795493875991800,4.89399169921875,-0.005126791074872017,0.007184288464486599,-0.005098623223602772
1772795493885984000,4.90398388671875,-0.00705871032550931,0.0012637502513825893,0.0011261075269430876
1772795493895976000,4.913975830078125,-0.0038661127910017967,-0.004851400386542082,0.0017383681843057275
1772795493905967900,4.9239677734375,-0.005331618711352348,-0.009408703073859215,0.00339159625582397
1772795493915959800,4.933959716796875,-0.002532104030251503,-0.01678832247853279,0.002764688106253743
1772795493925952000,4.943951904296875,0.000027695205062627792,-0.02218698151409626,0.002731727436184883
1772795493935944700,4.95394482421875,0.0024935160763561726,-0.028247004374861717,0.0029311981052160263
1772795493945937000,4.96393701171875,0.0034146399702876806,-0.03280187025666237,0.0011970729101449251
1772795493955928800,4.9739287109375,0.004808272235095501,-0.03598141670227051,0.0020817751064896584
1772795493965921000,4.983921142578125,0.0012227019760757685,-0.033676877617836,0.004927054047584534
1772795493975912700,4.99391259765625,-0.0008068931056186557,-0.034799933433532715,0.0031062508933246136
1772795493985905000,5.00390478515625,-0.004390975460410118,-0.028766397386789322,0.004209779668599367
1772795493995897900,5.01389794921875,-0.0031856289133429527,-0.02008342742919922,0.0013823015615344048
1772795494005889800,5.023889892578125,-0.002985359402373433,-0.01495178323239088,0.0008778988849371672
1772795494015881700,5.0338818359375,0.00011908751912415028,-0.005623529199510813,-0.0006598103791475296
1772795494025874000,5.0438740234375,0.0025899687316268682,0.004213513806462288,-0.00198544654995203
1772795494035865900,5.053865966796875,0.0031383137684315443,0.013004874810576439,-0.0026421821676194668
1772795494045858800,5.06385888671875,0.005335249938070774,0.02243695594370365,-0.00017495040083304048
1772795494055851000,5.07385107421875,0.007063108496367931,0.027335841208696365,-0.0039630308747291565
1772795494065843000,5.083843017578125,0.008759306743741035,0.03535265475511551,-0.005375366657972336
1772795494075835000,5.0938349609375,0.004725949838757515,0.038626477122306824,-0.006463534198701382
1772795494085826800,5.103826904296875,0.0040421271696686745,0.04264393076300621,-0.004283628426492214
1772795494095818800,5.11381884765625,0.0043076444417238235,0.0421493835747242,-0.004982708487659693
1772795494105812000,5.12381201171875,-0.001196090830489993,0.035167593508958817,-0.004695970099419355
1772795494115804000,5.133803955078125,-0.004463789518922567,0.0291051734238863,-0.0018634317675605416
1772795494125796000,5.143796142578125,-0.0069732386618852615,0.019922509789466858,-0.000054883130360394716
1772795494135788000,5.1537880859375,-0.005379336420446634,0.010578541085124016,-0.0000982926576398313
1772795494145780000,5.163780029296875,-0.005167568102478981,-0.005565228406339884,0.0014666634378954768
1772795494155772000,5.17377197265625,-0.0045699551701545715,-0.019398219883441925,0.005109867546707392
1772795494165765000,5.18376513671875,-0.0009781343396753073,-0.031555935740470886,0.00251343147829175
1772795494175757000,5.193757080078125,-0.0010409849928691983,-0.043342020362615585,0.004633573815226555
1772795494185749000,5.2037490234375,0.002646693494170904,-0.04825275018811226,0.007953118532896042
1772795494195741000,5.213740966796875,0.003966822754591703,-0.0471709743142128,0.004947475157678127
1772795494205733000,5.223733154296875,0.002818609355017543,-0.04037897661328316,0.004447048529982567
1772795494215725800,5.233725830078125,0.004328887909650803,-0.02928345277905464,0.00029278360307216644
1772795494225718000,5.243718017578125,0.005728551652282476,-0.016479860991239548,0.000809005054179579
1772795494235710000,5.2537099609375,0.0043445066548883915,-0.003075373126193881,-0.00424780510365963
1772795494245702100,5.2637021484375,0.004263264127075672,0.01384500041604042,-0.004017767496407032
1772795494255693800,5.27369384765625,0.00294872815720737,0.02672750875353813,-0.00249443924985826
1772795494265686000,5.28368603515625,0.0028454759158194065,0.03411799296736717,-0.005377023946493864
1772795494275679200,5.29367919921875,0.0019653011113405228,0.04049945995211601,-0.00481030298396945
1772795494285671000,5.3036708984375,0.00036944099701941013,0.039751287549734116,-0.003103383118286729
1772795494295662800,5.313662841796875,0.0005553297232836485,0.033422283828258514,-0.0054427036084234715
1772795494305655000,5.323655029296875,0.0001229732297360897,0.020288117229938507,-0.0008078410755842924
1772795494315647000,5.33364697265625,-0.0005798351485282183,0.010513250716030598,-0.003163140732795
1772795494325639000,5.343638916015625,-0.0025059115141630173,-0.0022682687267661095,0.0015168116660788655
1772795494335632100,5.353632080078125,0.00298233050853014,-0.014499101787805557,0.0027221583295613527
1772795494345624000,5.3636240234375,0.002318090759217739,-0.020247312262654305,0.004451799672096968
1772795494355616000,5.373615966796875,0.0011444357223808765,-0.019222794100642204,0.0013894307194277644
1772795494365608000,5.38360791015625,0.001281557371839881,-0.019644806161522865,0.002338110003620386
1772795494375600000,5.39360009765625,0.0009305526036769152,-0.018741726875305176,-0.002686475869268179
1772795494385592800,5.4035927734375,0.0023876631166785955,-0.014230778440833092,-0.006077314727008343
1772795494395585000,5.4135849609375,0.0020092276390641928,-0.011340714991092682,-0.005998218432068825
1772795494405577000,5.423576904296875,0.0004263855516910553,-0.004609564784914255,-0.0027913430240005255
1772795494415569200,5.433569091796875,-0.000145395053550601,0.001734084915369749,0.0002944617881439626
1772795494425560800,5.443560791015625,-0.0010774702532216907,0.009274318814277649,0.003582956735044718
1772795494435553000,5.453552978515625,-0.0021368758752942085,0.013204079121351242,0.002721424214541912
1772795494445546000,5.4635458984375,-0.002763767959550023,0.01824173331260681,-0.0013414355926215649
1772795494455538000,5.473537841796875,-0.004012524150311947,0.01738552749156952,-0.004966264124959707
1772795494465529900,5.48352978515625,0.002385235158726573,0.014539984986186028,-0.0052370247431099415
1772795494475522000,5.49352197265625,0.002012658631429076,0.010299166664481163,-0.002472397405654192
1772795494485514000,5.503513916015625,0.0027055349200963974,0.003250100649893284,-0.0037203754764050245
1772795494495506200,5.513506103515625,0.008087250404059887,-0.004660286474972963,0.00219583697617054
1772795494505499000,5.523498779296875,0.007973314262926579,-0.010867269709706306,0.0010294555686414242
1772795494515491000,5.533490966796875,0.0068654390051960945,-0.011566882953047752,0.003994885366410017
1772795494525483000,5.54348291015625,0.0075029535219073296,-0.009311230853199959,0.004542880691587925
1772795494535475000,5.553474853515625,0.0026874253526329994,-0.004103419370949268,-0.0008865056443028152
1772795494545467000,5.563466796875,-0.0004196219379082322,0.002884780988097191,-0.0036161034367978573
1772795494555460000,5.573460205078125,-0.003120333654806018,0.00634422805160284,-0.003380413632839918
1772795494565452000,5.5834521484375,-0.006365567445755005,0.0074636442586779594,-0.003248421708121896
1772795494575444000,5.59344384765625,-0.007918456569314003,0.009191236458718777,0.0010184950660914183
1772795494585436200,5.603436279296875,-0.009568018838763237,0.0036742324009537697,0.0029165297746658325
1772795494595428000,5.613427978515625,-0.008420196361839771,-0.000652605202049017,0.003227054374292493
1772795494605420000,5.623419921875,-0.005656431429088116,-0.003644323907792568,0.004492894280701876
1772795494615413000,5.6334130859375,-0.0008062822744250298,-0.013066055253148079,-0.0008262373739853501
1772795494625405200,5.6434052734375,0.0016945828683674335,-0.016611099243164062,-0.0006309867021627724
1772795494635396900,5.65339697265625,0.0025100428611040115,-0.015522666275501251,-0.001025400822982192
1772795494645389000,5.66338916015625,0.003017562674358487,-0.014384642243385315,-0.001315439585596323
1772795494655381000,5.673381103515625,0.0018750668969005346,-0.013556398451328278,-0.0015415418893098831
1772795494665373200,5.683373291015625,-0.0016800517914816737,-0.006463785655796528,-0.0003872860106639564
1772795494675366000,5.693365966796875,-0.0032276147976517677,-0.0009350636973977089,0.0003711823374032974
1772795494685358000,5.703358154296875,-0.0037084221839904785,0.007849913090467453,0.0004213727079331875
1772795494695350000,5.71335009765625,-0.0030074783135205507,0.016450591385364532,-0.0011040859390050173
1772795494705342000,5.723342041015625,-0.00002505118027329445,0.017618874087929726,-0.0012351961340755224
1772795494715334000,5.733333984375,0.0010250334162265062,0.0171581469476223,-0.0061258249916136265
1772795494725327000,5.7433271484375,0.004365170374512672,0.013171928003430367,-0.0011023043189197779
1772795494735318800,5.75331884765625,0.006279449909925461,0.00457764184102416,-0.0035079377703368664
1772795494745311000,5.76331103515625,0.006529206410050392,-0.0012229057028889656,-0.0035915570333600044
1772795494755303000,5.773302978515625,0.003293732414022088,-0.013637498021125793,-0.003220578655600548
1772795494765295000,5.783295166015625,0.0032890643924474716,-0.018076062202453613,0.004331896547228098
1772795494775287000,5.793287109375,0.002713022753596306,-0.020626835525035858,0.0023720762692391872
1772795494785280000,5.803280029296875,-0.0032510324381291866,-0.022954612970352173,0.0007154896738938987
1772795494795272200,5.813272216796875,-0.0054073939099907875,-0.016164351254701614,0.0014973937068134546
1772795494805264000,5.823263916015625,-0.006476512178778648,-0.008687252178788185,-0.00007131206803023815
1772795494815255800,5.833255859375,-0.008405972272157669,0.0008399402722716331,0.002070668386295438
1772795494825248000,5.843248046875,-0.004205384291708469,0.011525729671120644,-0.00449390197172761
1772795494835240000,5.853239990234375,-0.004341471940279007,0.019834792241454124,-0.004103216342628002
1772795494845233000,5.86323291015625,0.0037314940709620714,0.020880870521068573,-0.0021922949235886335
1772795494855225000,5.87322509765625,0.004914203658699989,0.023842837661504745,-0.003952911123633385
1772795494865217000,5.883217041015625,0.003128601470962167,0.021686788648366928,-0.0030891646165400743
1772795494875209200,5.893209228515625,0.005710002966225147,0.013891716487705708,-0.0018974000122398138
1772795494885201000,5.903200927734375,0.005947713274508715,0.011695707216858864,-0.001428459887392819
1772795494895194000,5.913194091796875,0.00265444815158844,0.0015629115514457226,-0.0017557624960318208
1772795494905186000,5.92318603515625,0.00546386418864131,-0.0062004257924854755,0.00028643125551752746
1772795494915178000,5.933177978515625,0.002503760624676943,-0.012959528714418411,0.00033277025795541704
1772795494925170000,5.943169921875,0.002550881588831544,-0.020863134413957596,-0.0006354317301884294
1772795494935162000,5.953162109375,0.0013801557943224907,-0.023383282124996185,-0.0019004333298653364
1772795494945154000,5.963154052734375,0.0005336322356015444,-0.027138127014040947,0.0023728585802018642
1772795494955147000,5.97314697265625,-0.0003364224685356021,-0.02342488057911396,0.0009443388553336263
1772795494965139000,5.983138916015625,-0.0026241710875183344,-0.022307511419057846,0.0038507459685206413
1772795494975131100,5.993131103515625,-0.0037629385478794575,-0.02221962809562683,0.005473410245031118
1772795494985122800,6.003122802734375,-0.005858470685780048,-0.015472665429115295,0.004803849849849939
1772795494995115000,6.013114990234375,-0.007269945926964283,-0.009232612326741219,0.004560437053442001
1772795495005107000,6.02310693359375,-0.006311490200459957,-0.0017380891367793083,0.004991458263248205
1772795495015100000,6.033099853515625,-0.006548511795699596,0.006241274066269398,0.00012559682363644242
1772795495025091800,6.043091796875,-0.004405026789754629,0.010949511080980301,-0.002168264240026474
1772795495035084000,6.053083984375,-0.0015631676651537418,0.015237733721733093,-0.003954979125410318
1772795495045076000,6.063075927734375,0.0020564591977745295,0.017740029841661453,-0.008420197293162346
1772795495055068000,6.07306787109375,0.0033608756493777037,0.017020177096128464,-0.008664409630000591
1772795495065061000,6.08306103515625,0.005749073810875416,0.015902191400527954,-0.0013935507740825415
1772795495075053000,6.093052978515625,0.0036081585567444563,0.018729936331510544,-0.004985356237739325
1772795495085045000,6.103044921875,0.0021363229025155306,0.01682121306657791,0.0003943097544834018
1772795495095037000,6.113036865234375,-0.001313802320510149,0.02030622586607933,0.0021016623359173536
1772795495105029000,6.123029052734375,-0.0010169382439926267,0.02507174387574196,-0.005369590129703283
1772795495115021000,6.13302099609375,-0.00012531201355159283,0.028902165591716766,-0.0033895298838615417
1772795495125014000,6.143013916015625,0.004542065784335136,0.02769140899181366,-0.00898929312825203
1772795495135006000,6.153005859375,0.007770615629851818,0.025663677603006363,-0.009513403289020061
1772795495144998100,6.162998046875,0.008962756022810936,0.02140420489013195,-0.002585050417110324
1772795495154990000,6.172989990234375,0.011438431218266487,0.011566754430532455,-0.004295598715543747
1772795495164982000,6.18298193359375,0.012936631217598915,-0.002414276823401451,-0.000812531856354326
1772795495174974000,6.192973876953125,0.008677171543240547,-0.015544992871582508,0.0003131863195449114
1772795495184967200,6.20296728515625,0.004770769737660885,-0.028892701491713524,0.0008913379861041903
1772795495194958800,6.212958740234375,0.0008617816492915154,-0.04296084865927696,0.004089261870831251
1772795495204951000,6.222950927734375,-0.004773890599608421,-0.04659675061702728,0.0031254226341843605
1772795495214943000,6.23294287109375,-0.00837075524032116,-0.05181121826171875,0.007136675529181957
1772795495224935200,6.24293505859375,-0.00850530806928873,-0.04880617558956146,0.0067594293504953384
1772795495234927900,6.252927978515625,-0.011156484484672546,-0.04132802039384842,0.008081156760454178
1772795495244920000,6.262920166015625,-0.014781673438847065,-0.031889334321022034,0.005806918255984783
1772795495254912000,6.272912109375,-0.006036385893821716,-0.024413838982582092,0.006202930584549904
1772795495264904000,6.282904052734375,-0.004132851958274841,-0.013111351057887077,0.003088549245148897
1772795495274896000,6.292895751953125,-0.0001748618669807911,-0.006255042273551226,-0.0006249625002965331
1772795495284888000,6.30288818359375,0.0006017310079187155,0.006124543957412243,-0.0025007473304867744
1772795495294881000,6.312881103515625,0.0032209500204771757,0.01787387952208519,-0.005752200726419687
1772795495304873000,6.322873046875,0.0014620579313486814,0.026457639411091805,-0.006222764030098915
1772795495314865200,6.332865234375,-0.004506352357566357,0.03186146169900894,-0.0033923564478754997
1772795495324857000,6.342857177734375,-0.0030939215794205666,0.03590349480509758,-0.002286570845171809
1772795495334848800,6.352848876953125,-0.007442330941557884,0.03910062089562416,-0.0016058669425547123
1772795495344841000,6.362841064453125,-0.006183031480759382,0.03626850247383118,-0.0037246362771838903
1772795495354834200,6.372834228515625,-0.0017651136731728911,0.032233815640211105,-0.005046363454312086
1772795495364825900,6.382825927734375,0.004854972008615732,0.023245912045240402,-0.0015475021209567785
1772795495374818000,6.392818115234375,0.006680035963654518,0.019658103585243225,-0.0041707162745296955
1772795495384810000,6.40281005859375,0.01116829365491867,0.010785947553813457,0.0002482052077539265
1772795495394802200,6.41280224609375,0.013584844768047333,0.008914810605347157,-0.0015646086540073156
1772795495404793900,6.4227939453125,0.013851990923285484,0.008165030740201473,-0.00214204378426075
1772795495414787000,6.432787109375,0.010874578729271889,0.010211937129497528,-0.002928475383669138
1772795495424779000,6.442779052734375,0.009246272966265678,0.008909199386835098,-0.003641932737082243
1772795495434771000,6.45277099609375,0.005264581181108952,0.007639404386281967,-0.0021814550273120403
1772795495444763000,6.462762939453125,0.0017835325561463833,0.0005942517891526222,-0.0028240999672561884
1772795495454755000,6.472755126953125,-0.006228054873645306,-0.010661598294973373,-0.002213703468441963
1772795495464748000,6.482748046875,-0.009161165915429592,-0.02089257538318634,0.00037265766877681017
1772795495474740000,6.492739990234375,-0.011214995756745338,-0.032463207840919495,0.003195075783878565
1772795495484732000,6.50273193359375,-0.011087806895375252,-0.04535248875617981,0.006149095483124256
1772795495494724000,6.51272412109375,-0.007851799950003624,-0.05240001156926155,0.007478545419871807
1772795495504716000,6.522716064453125,-0.006809392012655735,-0.056817613542079926,0.007357721216976643
1772795495514708000,6.5327080078125,-0.0008220731979236007,-0.05762695148587227,0.007309784181416035
1772795495524701000,6.542700927734375,0.0023751617409288883,-0.03028336726129055,0.01948811300098896
1772795495534693000,6.552693115234375,-0.004980222787708044,0.0740310549736023,0.07442246377468109
1772795495544684800,6.562684814453125,-0.01270414236932993,0.19863148033618927,0.11322152614593506
1772795495554677000,6.572677001953125,-0.013379519805312157,0.2754857838153839,0.07694021612405777
1772795495564669000,6.5826689453125,-0.0033097630366683006,0.2818043529987335,-0.01741609163582325
1772795495574662000,6.592661865234375,0.009233991615474224,0.22858375310897827,-0.1027030199766159
1772795495584654000,6.602654052734375,0.018664024770259857,0.15362060070037842,-0.1325031816959381
1772795495594646000,6.61264599609375,0.01868746057152748,0.05271555483341217,-0.1244114339351654
1772795495604638200,6.62263818359375,0.017507463693618774,-0.08395116776227951,-0.09379032254219055
1772795495614630000,6.6326298828125,0.018245957791805267,-0.2022751420736313,-0.036397337913513184
1772795495624622000,6.6426220703125,0.01835404895246029,-0.2707996070384979,0.030324677005410194
