time,seconds_elapsed,z,y,x
1772556254248433000,0.066432861328125,0.33275428327322004,-0.1620201154708862,0.012888342341408133
1772556254258424800,0.0764248046875,0.41318507981598374,-0.22125644055455923,0.04709295589067042
1772556254268417800,0.086417724609375,0.4651028985798359,-0.23268647384643554,0.1293422730974853
1772556254278409700,0.09640966796875,0.4255792819648981,-0.2876692331388593,0.20208499935567378
1772556254288402700,0.106402587890625,0.34857904439270493,-0.3081444504126906,0.3034375148307532
1772556254298394600,0.11639453125,0.28145547319054603,-0.22185148383826017,0.25928704213276504
1772556254308387800,0.126387939453125,0.2201578316628933,-0.16035568939000366,0.26704788539260627
1772556254318379800,0.1363798828125,0.12513210805654526,-0.08473930739164352,0.29556656225994227
1772556254328372700,0.146372802734375,0.11660042655467986,-0.022920564599335193,0.31699023936502635
1772556254338365000,0.156364990234375,0.19030220710337162,0.06105418816059827,0.3352475613936782
1772556254348357600,0.166357666015625,0.21513971123993395,0.14076426921337842,0.35447928141243756
1772556254358349800,0.176349853515625,0.15443009873330593,0.08186609004288911,0.3016600933620706
1772556254368342800,0.1863427734375,0.08460311379134655,-0.06569967587888241,0.27030644879713656
1772556254378334700,0.196334716796875,0.05753098247051239,-0.25180647711902854,0.2279897308649495
1772556254388328000,0.206327880859375,0.03736556179821491,-0.3541153434708714,0.09783712776526808
1772556254398319600,0.216319580078125,0.12364508436918258,-0.35492958246320483,-0.017902590306848286
1772556254408312800,0.226312744140625,0.167628603002429,-0.32084464977085586,0.006064560735970735
1772556254418304800,0.2363046875,0.15460487077832222,-0.2882861959934234,0.08507716104388237
1772556254428297700,0.246297607421875,0.11513210756778716,-0.2732075770661235,0.10183635346926748
1772556254438291000,0.256291015625,0.14001988058686254,-0.22543080362975595,0.15023443714175372
1772556254448282600,0.26628271484375,0.2464426119983196,-0.09177344381213187,0.18560425854548812
1772556254458274800,0.27627490234375,0.28825521633327006,0.053500996302068234,0.18379709952566772
1772556254468267800,0.286267822265625,0.35876667640805243,0.05401639847829938,0.14051076937634496
1772556254478260700,0.2962607421875,0.35656536697149277,-0.14724281757771968,0.036444136104360224
1772556254488253000,0.3062529296875,0.32060382675230503,-0.40143312109336254,-0.1041553710013628
1772556254498245600,0.31624560546875,0.3221305979281664,-0.5390247516199946,-0.10767828443050384
1772556254508237800,0.32623779296875,0.428326534846425,-0.5282144576616585,-0.0865166557950899
1772556254518230800,0.336230712890625,0.6021908173680305,-0.5456742726370692,-0.07675919535793363
1772556254528222700,0.34622265625,0.7529319984555244,-0.6655781246513128,-0.03440437390506267
1772556254538216000,0.3562158203125,0.9337123439759015,-0.8041381618186831,0.0631261721290648
1772556254548207900,0.366207763671875,1.0724597204089164,-0.871848446867615,0.13486227862797676
1772556254558200800,0.376200927734375,1.1642442701369524,-0.8496126496620475,0.11161120343264191
1772556254568192800,0.38619287109375,1.2909575099050998,-0.7516668008252978,0.04712346062678843
1772556254578185700,0.396185791015625,1.3630588695198296,-0.6334925490826367,-0.07444383108764886
1772556254588177700,0.406177734375,1.3814596186071633,-0.43745793580710884,-0.09128383366428315
1772556254598171000,0.4161708984375,1.1636065567553042,-0.07195946692600846,-0.05371843844503164
1772556254608162800,0.426162841796875,1.0640431897193192,0.24612083269804716,-0.24571013300530611
1772556254618155800,0.43615576171875,1.0721446631103753,0.4785306815601885,-0.5016201729856431
1772556254628148000,0.44614794921875,0.8041583278238773,0.6179010121971369,-0.4463515824891627
1772556254638140700,0.456140625,0.687428137409687,0.6524199523925781,-0.3056304217651486
1772556254648132900,0.4661328125,0.6262362943440676,0.7072311545103788,-0.17923435818739233
1772556254658125300,0.476125244140625,0.6762807204514741,0.7832714610092342,-0.04147898846641183
1772556254668117500,0.486117431640625,0.698461572599411,0.8373137245811522,0.0676776248883456
1772556254678110500,0.4961103515625,0.7696773815512656,0.7993931592486798,0.10532426865026354
1772556254688102400,0.506102294921875,0.8058762376576661,0.6403429994992912,0.10646678974889218
1772556254698095600,0.516095703125,0.6754606362402439,0.3580516600064933,-0.029719577089697122
1772556254708087600,0.526087646484375,0.3351432242363691,0.03197875419333577,-0.1429001852635294
1772556254718080500,0.53608056640625,-0.14133447031676769,-0.19879136463776229,-0.254803101651743
1772556254728072400,0.546072509765625,-0.910744140842557,-0.3610354981228709,-0.45543804832957685
1772556254738065400,0.5560654296875,-1.8002058396816252,-0.4107568297557532,-0.6244369167719036
1772556254748057300,0.566057373046875,-2.633244809553027,-0.3322261677458882,-0.6616252223070711
1772556254758050600,0.576050537109375,-3.350160322731733,-0.21433219424933195,-0.5815570485316217
1772556254768042500,0.58604248046875,-3.8888808307081457,-0.07836173518374562,-0.4181505202036351
1772556254778035500,0.596035400390625,-4.368192287382484,0.052038522534072394,-0.21326273838691412
1772556254788027600,0.606027587890625,-4.756702944669128,0.1564801631309092,-0.03837042799182236
1772556254798020400,0.616020263671875,-4.88497276622951,0.261316209872812,0.09825352654643356
1772556254808012500,0.626012451171875,-4.7399207366943354,0.3534861056566238,0.18003171911016105
1772556254818005500,0.636005615234375,-4.449670547151565,0.38874548895582556,0.20653781404606997
1772556254827997400,0.64599755859375,-4.072975999864935,0.37000425586774943,0.10755283141992986
1772556254837990400,0.655990478515625,-3.6987908050507303,0.3076417615875602,-0.08649879134483635
1772556254847982300,0.665982421875,-3.3324814581781625,0.26893326074779034,-0.35080161581300195
1772556254857975600,0.6759755859375,-2.899965070426464,0.3062052990436554,-0.5191480116959661
1772556254867967500,0.685967529296875,-2.376124151673913,0.3585153319954872,-0.5086079860463738
1772556254877960400,0.69596044921875,-1.8595149377405642,0.388006068765372,-0.34274303171560166
1772556254887952400,0.705952392578125,-1.3722978225082159,0.36925723689273,-0.0424846583776176
1772556254897945300,0.7159453125,-1.014671548306942,0.37151086103841663,0.23581067028157413
1772556254907937500,0.7259375,-0.7478495806246995,0.391481489790976,0.3783237559236586
1772556254917930200,0.73593017578125,-0.3810410520583391,0.4366048261091113,0.42048400465250013
1772556254927922400,0.74592236328125,0.18043664664924144,0.4409416862696409,0.3620231939859688
1772556254937915600,0.75591552734375,0.8767863416612148,0.4139167550913989,0.28677929856181145
1772556254947907300,0.7659072265625,1.5545003097862005,0.2733170287899673,0.2780839509308338
1772556254957900500,0.775900634765625,2.3622172068744898,-0.010957739605009556,0.3027902299031615
1772556254967892500,0.785892578125,2.699794380259514,-0.34193083854988215,0.35333895227089523
1772556254977885400,0.795885498046875,2.5883885997384786,-0.5204844479314983,0.23737550844550132
1772556254987877400,0.80587744140625,2.462568509417772,-0.6798856130756438,-0.06757394531816244
1772556254997870300,0.815870361328125,2.2562176693111655,-0.716663145852834,-0.15259879165291784
1772556255007862300,0.8258623046875,2.0480998195320366,-0.7753583497971296,-0.2885525918446481
1772556255017855500,0.83585546875,1.7641805865764617,-0.8031471049547195,-0.40471389632970095
1772556255027847400,0.845847412109375,1.575862831288576,-0.7166166763626038,-0.4360540603585541
1772556255037840400,0.85584033203125,1.5141104317307472,-0.5647565742477775,-0.43607451862469315
1772556255047832600,0.86583251953125,1.464046716400981,-0.4448416163176298,-0.36873116719201204
1772556255057825500,0.875825439453125,1.294345983299613,-0.39658042036518454,-0.2803833869796246
1772556255067817500,0.8858173828125,0.9708394208431244,-0.39129195856824517,-0.2874620201289654
1772556255077810400,0.895810546875,0.8574041803210973,-0.2959906328909099,-0.36285789124444123
1772556255087802400,0.90580224609375,0.9641215107649564,-0.17505495361089704,-0.43528534100838
1772556255097795600,0.915795654296875,1.091384785631299,-0.11450623075440525,-0.42883360758572814
1772556255107788500,0.92578857421875,1.3371540284126997,-0.13851649028658866,-0.3297898074444383
1772556255117780500,0.935780517578125,1.7088479909330605,-0.17534458420723675,-0.22391046219468116
1772556255127773400,0.9457734375,2.138456966805458,-0.177087920743227,-0.1557956879980862
1772556255137765400,0.955765380859375,2.452753802368045,0.11632628578841686,0.03768113055340946
1772556255147758600,0.965758544921875,2.230916639316082,0.37101445582360026,0.09976466176174581
1772556255157750300,0.975750244140625,1.9421113878846168,-0.1825344957113266,-0.4461364053685218
1772556255167743500,0.985743408203125,1.9746353548705577,-0.4109416848033666,-0.8129781786173581
1772556255177735400,0.9957353515625,2.337068737092614,-0.024452011950314042,-0.6132753982231021
1772556255187728400,1.005728271484375,2.4103724582344292,0.28992519537210465,-0.4400073280289769
1772556255197720600,1.015720458984375,2.3042793971687554,0.5082268777742982,-0.5001515617378056
1772556255207713300,1.02571337890625,2.590619719791412,0.8157114029735326,-0.5286211387664079
1772556255217705500,1.03570556640625,3.2019419381201266,1.3185098259583115,-0.5333315084144473
1772556255227698700,1.04569873046875,3.833394505807757,1.592996629180014,-0.7785998890016228
1772556255237690400,1.0556904296875,4.406649151548743,1.7191376220181582,-0.6314999139606953
1772556255247683600,1.06568359375,4.650356201103329,1.753885110272467,-0.40752182988990093
1772556255257675500,1.075675537109375,4.267620620086789,1.5295608065798878,-0.24491660800743847
1772556255267668500,1.08566845703125,3.320514541530609,0.9196125069528818,0.02631280085351318
1772556255277660400,1.095660400390625,2.0231465800613164,0.2503139004737139,0.2320367047008127
1772556255287653400,1.1056533203125,1.1715420259296894,-0.403473540879786,0.07349113347269594
1772556255297645300,1.115645263671875,0.7519500016808509,-1.2759481568217277,-0.3492247949503362
1772556255307638500,1.125638427734375,-1.2990706737339497,-2.0027894362092016,-0.515615380590409
1772556255317630500,1.13563037109375,-2.8473966787993907,-2.4013082772910592,-0.700018373587355
1772556255327623400,1.14562353515625,-5.118219212046266,-2.5442145269691943,-0.4063486579246819
1772556255337615600,1.15561572265625,-8.124034766954184,-3.4900375799775123,0.021362466703448442
1772556255347608300,1.1656083984375,-11.861681664621829,-4.269347005487978,0.733975442116335
1772556255357600500,1.1756005859375,-16.49591733652949,-3.9931098514676093,0.324776545859687
1772556255367593500,1.185593505859375,-19.40641666045189,-2.5512299586892127,-1.2199338625244796
1772556255377585400,1.19558544921875,-19.933211168313026,-1.5244643602237105,-1.041305872732401
1772556255387578400,1.205578369140625,-18.252993644058705,-1.7682932825922966,-1.7068658772051333
1772556255397570300,1.2155703125,-14.988831688868999,-1.7826926870837807,-3.7528336531445383
1772556255407563500,1.2255634765625,-11.096771643602848,-1.6438766293287277,-5.602283416205644
1772556255417555500,1.235555419921875,-7.261902389067411,-2.2693287875577806,-6.2829322687387466
1772556255427548400,1.24554833984375,-4.370616884180903,-3.151755765454471,-5.528819536066055
1772556255437540600,1.25554052734375,-3.2658097223967313,-2.7434695635959505,-3.8773406150400636
1772556255447533300,1.265533203125,-3.4823534552156925,-0.9114058196216821,-2.2111196135647595
1772556255457525500,1.275525390625,-3.6836294762760398,0.6532049652904272,-0.19403700971752405
1772556255467518200,1.285518310546875,-3.1372651755481957,1.5550874620243906,1.6610380458794534
1772556255477510400,1.295510498046875,-1.6322043117135763,2.0956085896819827,2.670041631552577
1772556255487503600,1.305503662109375,0.6364110668778419,2.114305106845498,3.0179499370768665
1772556255497495300,1.315495361328125,2.9597593216538427,1.7439768797203898,2.9951161739781496
1772556255507488500,1.325488525390625,4.536691828000545,1.5254396349966526,2.874468810120225
1772556255517480400,1.33548046875,5.393218640965223,1.6711597730517387,2.720659473633766
1772556255527473400,1.345473388671875,5.587255358421802,1.8445409482315183,2.735387379427254
1772556255537465300,1.35546533203125,5.626541074627638,1.9331451143577694,2.877786556366086
1772556255547458300,1.365458251953125,5.975237607920169,1.951055741840601,3.0296114410370585
1772556255557450500,1.375450439453125,6.683188308876752,1.8494822040259837,3.166086488623917
1772556255567443500,1.385443359375,7.746684386107325,1.7156050639778375,3.1177339611262083
1772556255577435400,1.395435302734375,9.050435326611995,1.662999847471714,2.8809312841325996
1772556255587428400,1.405428466796875,9.96289854633212,1.4700707989960908,2.633590261989832
1772556255597420500,1.415420654296875,10.235547612732649,1.2606851212382315,2.379195229682326
1772556255607413500,1.42541357421875,10.021840564644336,1.1588856657132505,2.0662119609363376
1772556255617405400,1.435405517578125,9.694313076108694,1.1089368089348077,1.857163406178355
1772556255627398400,1.4453984375,9.537700957161187,1.1912564879640937,1.6503300432518124
1772556255637390300,1.455390380859375,9.492441427242756,1.3924965609282254,1.443224000863731
1772556255647383600,1.465383544921875,9.291117475387454,1.5640686408594249,1.2036200757790356
1772556255657376800,1.475376708984375,8.921812453830242,1.6244976828590034,0.8409591684114187
1772556255667369700,1.48536962890625,8.492645961028337,1.6630223515644669,0.461863186006248
1772556255677361700,1.495361572265625,8.146518985962867,1.6919848266765474,0.07184537555966526
1772556255687355000,1.50535498046875,8.01913471506536,1.6638132096812128,-0.2603446248942986
1772556255697346600,1.5153466796875,8.151515479075908,1.5072808779716491,-0.6310536314979195
1772556255707339800,1.52533984375,8.406610768607258,1.4106430429935455,-0.8259393669992685
1772556255717332000,1.53533203125,8.504055243793129,1.3649077122569084,-0.7614175027281046
1772556255727324700,1.54532470703125,8.424766018500923,1.454456758017838,-0.6582197247125208
1772556255737316900,1.55531689453125,8.0776956251055,1.5690245097011326,-0.520065711062774
1772556255747309600,1.5653095703125,7.255778937751054,1.5075854138761757,-0.23389511898383497
1772556255757301800,1.5753017578125,6.271757963773608,1.3353098618507384,-0.138356148625724
1772556255767295000,1.585294921875,5.385175035241246,1.2185399239480494,-0.23404680241420864
1772556255777286700,1.59528662109375,4.4407676942497485,1.136794976066798,-0.3001897650811821
1772556255787280000,1.60527978515625,2.7385867599904534,0.9066863898843527,-0.08880736054815351
1772556255797271800,1.615271728515625,-0.48110593887567515,-0.11804390336126089,1.0589615756060928
1772556255807264800,1.6252646484375,-4.006176838311553,-1.7043446881644426,2.3358326194263994
1772556255817256700,1.635256591796875,-6.5624962290942666,-2.302174826104939,1.4168838370792567
1772556255827249700,1.645249755859375,-8.816995988571643,-1.51019793446213,-1.1279066631469874
1772556255837241900,1.655241943359375,-12.56736091351509,-1.2875121917568146,-1.721161821322143
1772556255847234800,1.66523486328125,-18.35951223706007,-1.239729134710133,-0.6616179888486862
1772556255857226800,1.675226806640625,-24.432671290028093,0.607734715230763,-0.876548660447821
1772556255867219700,1.6852197265625,-28.251778327286242,2.7567665598034856,-0.9514145894050597
1772556255877212000,1.6952119140625,-28.023459400999545,2.5842519383251665,-0.44807924653198566
1772556255887204900,1.705204833984375,-23.000973768568038,0.4880779698453843,-0.9181964296098798
1772556255897196800,1.71519677734375,-16.92142706038952,-1.281275050932914,-1.5026093790292738
1772556255907189800,1.725189697265625,-12.92188045387268,-1.5410640512384473,-2.0804646504335103
1772556255917181700,1.735181640625,-10.277501086843014,-1.035135221273452,-1.7225164508014916
1772556255927175000,1.7451748046875,-8.005542827564478,-0.8461798987343907,-0.9288638810314237
1772556255937166600,1.75516650390625,-6.661278090363741,-0.7687098516933619,-0.455767353349179
1772556255947159800,1.765159912109375,-5.973788578155636,-0.31199674192667004,-0.2102773659005761
1772556255957152000,1.775152099609375,-4.654725502228737,0.04710822652503848,-0.23783413893319666
1772556255967144700,1.785144775390625,-2.3818740935027596,-0.1381941264644265,-0.7038401968978345
1772556255977137000,1.795136962890625,0.42276773167550563,-0.776279994686693,-1.4595033738829195
1772556255987129600,1.805129638671875,3.385641970479488,-1.2275542744003236,-1.6967951495677231
1772556255997121800,1.815121826171875,5.478954558178782,-1.108962235637009,-0.9139487821027636
1772556256007115000,1.825114990234375,6.184948864370584,-0.8017891875397414,0.6210564074881374
1772556256017106700,1.835106689453125,6.204536777415871,-0.6408117860548198,1.8403467114120722
1772556256027100000,1.845099853515625,5.828575220578909,-0.72548270438537,2.3513616124697028
1772556256037091800,1.855091796875,5.240242832693458,-0.9702086486589163,2.469321490809321
1772556256047084800,1.865084716796875,5.139626157212257,-0.9708798989839851,2.3006793268501755
1772556256057076700,1.87507666015625,5.311424739375711,-0.960712140712887,1.8234785787194967
1772556256067069700,1.885069580078125,5.55033227969408,-1.0397410345684737,1.4521062493689358
1772556256077062000,1.895061767578125,5.775114848548173,-0.7616752768814563,1.4433321374133228
1772556256087054800,1.905054931640625,5.980470247876644,-0.45263599652089176,1.4876812744885681
1772556256097046800,1.915046875,6.368747680929303,-0.3425104650687426,1.3389704301849006
1772556256107039700,1.925039794921875,6.692860977107286,-0.15962017818968743,0.9295699834741652
1772556256117032000,1.935031982421875,6.61614481717348,0.04792721475772559,0.4295738680263981
1772556256127025000,1.94502490234375,6.239090204402804,0.12344791782926767,-0.06297363018216565
1772556256137016800,1.955016845703125,5.930303072172403,0.18346523722279814,-0.3891142857355997
1772556256147009800,1.965009765625,5.937105153402686,0.3204439600154757,-0.4621375459682196
1772556256157001700,1.975001708984375,6.336185135498643,0.4874722955698147,-0.746109605089575
1772556256166994700,1.98499462890625,7.039743154454231,0.5740795157251879,-1.2134328831326215
1772556256176986600,1.994986572265625,7.603761185294389,0.32296080167461183,-1.5062372141376137
1772556256186979800,2.004979736328125,8.013152133524418,0.11482125152032821,-1.2531208234637976
1772556256196971800,2.0149716796875,8.193762967696786,0.12426102431043982,-0.19719059664392843
1772556256206964700,2.02496484375,7.945598354211449,0.38387064946107563,0.7841885758541524
1772556256216957000,2.03495703125,7.317352473610639,0.42709684692099686,0.9324914238788187
1772556256226949600,2.04494970703125,7.179853635933995,0.4619873969078064,0.2876340522276237
1772556256236941800,2.05494189453125,7.393455470082164,0.6629585898026824,0.10989844469800591
1772556256246934800,2.064934814453125,7.844375529530644,0.849552151646465,-0.387734339151904
1772556256256926700,2.0749267578125,7.946069478854537,0.8617577724207193,-0.6752582455359399
1772556256266920000,2.084919921875,7.470950213173031,0.7501704978529363,-0.6027659138422459
1772556256276911600,2.09491162109375,6.582025689950585,0.46146088881567116,-0.5281988217011094
1772556256286904800,2.10490478515625,5.61077768830657,0.09243263837322592,-0.558663006613031
1772556256296896800,2.114896728515625,4.525999753594398,-0.5061395501062274,-0.4571402491375804
1772556256306889700,2.1248896484375,2.0723393577754496,-1.741668456647545,-0.26767259316220876
1772556256316882000,2.1348818359375,-1.4340671732008456,-2.909970331612229,-0.08736819459050893
1772556256326874600,2.14487451171875,-5.5760413059681655,-3.9303967901840804,-0.482841165170446
1772556256336866800,2.15486669921875,-10.761780979579687,-4.785776478940249,-1.5439745318576692
1772556256346859800,2.16485986328125,-17.169332146155835,-4.9608396158576005,-2.4579054860427973
1772556256356851700,2.174851806640625,-22.32980936821699,-3.722527069947123,-3.429066978447139
1772556256366845000,2.184844970703125,-23.80599601974487,-0.27979981493800876,-4.407930715791881
1772556256376836900,2.1948369140625,-21.657719085192678,2.312925791091472,-3.443474273984134
1772556256386829800,2.204829833984375,-18.084992700612545,1.5103956489913164,-1.7409728755988179
1772556256396821800,2.21482177734375,-15.315736077070236,0.15421689437404273,-1.8453281530864536
1772556256406814700,2.224814697265625,-13.563676136398314,-1.2981335390143096,-0.810597859352082
1772556256416806700,2.234806640625,-11.833560316509008,-1.6891168700248003,0.29098855028729886
1772556256426799900,2.2447998046875,-10.437385359328985,-1.7444076723530888,0.16032646329551933
1772556256436791800,2.254791748046875,-8.435918696156143,-1.9621404688261448,-1.57204151943475
1772556256446784800,2.26478466796875,-5.1570934248417615,-1.1427383215758948,-2.991566372542083
1772556256456777000,2.27477685546875,-1.5725889241844415,0.03234159615635872,-3.1577319172546265
1772556256466769700,2.284769775390625,0.9289964213699102,0.684885686385259,-2.6556796364620325
1772556256476761900,2.294761962890625,2.027304284262657,0.7164172082677484,-0.8174991631731391
1772556256486754800,2.3047548828125,2.1426339602291584,0.34267274295836686,2.476007836705446
1772556256496746800,2.314746826171875,1.7628063756138086,0.248783841362223,5.661236540433764
1772556256506740000,2.324739990234375,1.2771405814766883,0.6259020208884031,5.539865246215462
1772556256516731600,2.334731689453125,1.5076070411860942,0.18765476133450865,4.662362865239381
1772556256526724900,2.344724853515625,3.171805743053555,-1.1883289100795984,3.8929432578414676
1772556256536716800,2.354716796875,5.98711684628427,-2.046933406101167,3.3778087926357983
1772556256546709800,2.364709716796875,8.87823167077899,-2.163006301650405,3.0054654262959954
1772556256556702000,2.374701904296875,10.69163484568596,-2.066608997429907,3.2309847849920392
1772556256566694700,2.384694580078125,11.190030942058563,-1.9525724300138652,3.712924252082407
1772556256576686800,2.394686767578125,10.70828787432313,-1.9294358845762907,3.53526788380146
1772556256586679800,2.4046796875,9.207157335674761,-1.7668161957770585,2.893564263473451
1772556256596671700,2.414671630859375,6.971120869126915,-1.5878680341199038,2.0874733601517974
1772556256606665000,2.4246650390625,5.088349558961391,-1.4433780223816632,1.323645143020153
1772556256616657000,2.434656982421875,4.115890427961945,-1.3005869235157965,0.6659547028787434
1772556256626649900,2.44464990234375,3.841991069239378,-1.09773992681168,0.24124190155006944
1772556256636641800,2.454641845703125,4.184055032649636,-1.095776590849459,0.04492492766920477
1772556256646634800,2.464634765625,4.692860294833779,-1.2192512140225618,0.07645226656692101
1772556256656626700,2.474626708984375,5.362419598075747,-1.2683958417460321,0.30834636619295924
1772556256666618000,2.4846181640625,6.11910364254117,-1.3047026882715522,0.5142299906466156
1772556256676611000,2.494611083984375,6.819159206333756,-1.430682645329088,0.546078652186878
1772556256686603300,2.504603271484375,7.417630126395821,-1.4507634564578533,0.5334426406387239
1772556256696596200,2.51459619140625,7.849574267217516,-1.471133459791541,0.477972865014337
1772556256706588200,2.524588134765625,8.148180781695245,-1.5978611664764582,0.25826427495628596
1772556256716581000,2.5345810546875,8.162448961022497,-1.7280549418367444,0.1231036801020149
1772556256726573300,2.5445732421875,8.09354844327569,-1.7575877641826867,0.0780895306462422
1772556256736566300,2.554566162109375,8.204398928001522,-1.745639844496548,0.07289615412107668
1772556256746558200,2.56455810546875,8.420833939749002,-1.6364339121073483,0.00880673558358103
1772556256756551200,2.57455126953125,8.225351115137338,-1.4145149159908295,0.1035299873783253
1772556256766543000,2.584543212890625,7.782187661164999,-1.221490809642896,0.31730737902279943
1772556256776536300,2.594536376953125,6.759057496592402,-0.9271476516980677,0.7346287183932959
1772556256786528000,2.604528076171875,4.987663909897208,-0.6159376031696796,1.008253790219128
1772556256796521200,2.614521240234375,2.395542553371191,-0.5775823362143709,1.0721049886871128
1772556256806513400,2.624513427734375,-0.8885387387752532,-0.5908217570157721,1.3475351371735333
1772556256816506000,2.634506103515625,-4.262598992532491,-0.5088429273134097,1.8754532422371208
1772556256826498300,2.644498291015625,-8.263630869171022,-0.17240814716285094,2.5387144682481884
1772556256836491000,2.654490966796875,-13.32410750182271,0.8062884717203677,1.9744997457921505
1772556256846483200,2.664483154296875,-20.045843860280513,1.2805964210189877,1.0132009642977267
1772556256856476400,2.674476318359375,-26.721261535155772,1.2672595311924815,-0.3118881669856608
1772556256866468000,2.684468017578125,-29.720971758925913,3.8985067371875046,-2.7635879302561284
1772556256876461300,2.69446142578125,-28.185009560871123,6.581647504287957,-3.8145290618181225
1772556256886453200,2.704453369140625,-23.761773431658742,3.8473090493917463,-3.291828837533295
1772556256896446200,2.7144462890625,-19.770975948786734,0.9673204529367386,-3.9753213890597223
1772556256906438100,2.724438232421875,-19.51954268889427,0.45265893900506193,-4.478502673882246
1772556256916431000,2.73443115234375,-20.92980462361574,-0.1276194313602522,-3.162282127904892
1772556256926423300,2.74442333984375,-19.874536861026286,-1.0397770557299255,-1.4075516528494656
1772556256936416300,2.754416259765625,-16.22415791244507,-1.4766021004609762,-0.7920546330541371
1772556256946408200,2.764408203125,-11.61497718681693,-1.693663427413255,-0.9268437003154307
1772556256956401200,2.774401123046875,-7.047108130264282,-1.7000918530255555,-1.375849523640424
1772556256966393300,2.784393310546875,-3.1500439931005237,-1.4553484461605548,-1.120315550430864
1772556256976386300,2.79438623046875,0.23166122245192527,-1.0813621349193154,0.2702766747133806
1772556256986378200,2.804378173828125,3.660812664312124,-0.803883748666197,2.082491041694581
1772556256996371200,2.81437109375,6.794983965498209,-0.7816794425774365,3.6503266338720914
1772556257006363100,2.824363037109375,8.91081467447579,-0.9594893209196627,4.423397457253933
1772556257016356400,2.8343564453125,10.262100104093552,-1.4131583868153392,4.122933916732669
1772556257026348000,2.84434814453125,11.276467701017856,-1.8015481942012905,3.253243086290359
1772556257036341200,2.85434130859375,11.560016931617259,-1.7385602614991367,2.4833447554647923
1772556257046333400,2.86433349609375,11.770178269922733,-1.3540250837147234,2.2399644536465404
1772556257056326100,2.874326171875,12.370871542209386,-0.9397302890911697,2.499667236973345
1772556257066318300,2.884318359375,12.753383835864067,-0.6812330821618438,2.82703193616271
1772556257076311000,2.89431103515625,12.677557318246365,-0.5415887568891048,2.997560352259874
1772556257086303200,2.90430322265625,12.248174552345276,-0.41886191987600174,2.6919968582510947
1772556257096296200,2.914296142578125,11.373162819141148,-0.30385793219991025,1.9619512298643589
1772556257106288000,2.9242880859375,10.138846649390459,-0.19423026726730167,1.2392168012738227
1772556257116281300,2.93428125,8.866548831769823,-0.11822652991916983,0.8083520531866699
1772556257126273300,2.944273193359375,7.788910247418284,-0.09202464209422469,0.5561456169646233
1772556257136266200,2.954266357421875,6.987255426847934,-0.10262450817227363,0.26924554156735536
1772556257146258200,2.964258056640625,6.429890424156189,-0.12548402676675469,0.04266249916255474
1772556257156251100,2.974251220703125,5.962546468651294,-0.064577686111629,0.06873392900824546
1772556257166243300,2.984243408203125,5.7033647865891455,0.0019671901534311473,0.3143509038373828
1772556257176236000,2.994236083984375,5.840852518349886,-0.0072325816020369525,0.6250612592153251
1772556257186228200,3.004228271484375,6.156657420387864,-0.06962906948337332,0.8395211714975536
1772556257196221200,3.01422119140625,6.455857224583625,-0.1471662269438617,0.882038709231466
1772556257206213000,3.024213134765625,6.714452631190419,-0.23888114550178868,0.8076141673661767
1772556257216205000,3.034205078125,7.063389402979612,-0.2947149869319051,0.8340461010873317
1772556257226198300,3.0441982421875,7.388300571537018,-0.4083293834131211,0.6846097189880908
1772556257236190200,3.054190185546875,7.7034280127048484,-0.4608413686778396,0.6291523279212415
1772556257246183200,3.06418310546875,7.991011028864979,-0.46624125496000046,0.7852072513774037
1772556257256175400,3.07417529296875,8.151280501276254,-0.440797199765034,0.8459460169132799
1772556257266168000,3.08416796875,8.102029855895042,-0.2966817569602281,0.8074201791640371
1772556257276160300,3.09416015625,7.601938061520457,-0.7637007913596928,0.13134447976537048
1772556257286153000,3.104153076171875,6.538639552688598,-0.5739991804979742,-0.6329701326437294
1772556257296145200,3.114145263671875,4.520221754714846,-0.14336334579586982,-0.9255560716576874
1772556257306138400,3.124138427734375,1.3687573734223841,-0.3346523719795048,-1.1653407601367682
1772556257316130000,3.134130126953125,-2.286671259763837,-0.6799070942550898,-0.6376737072248011
1772556257326123300,3.144123291015625,-6.6014733177423475,-0.632794629946351,-0.0494583698477596
1772556257336115200,3.154115234375,-11.046826586216687,0.04243804275691509,-0.15064751145467162
1772556257346108200,3.164108154296875,-14.683773221772908,0.7275767540551722,-0.9775219673469662
1772556257356100000,3.17410009765625,-19.294169752931595,0.6827901754107326,-2.346190931833535
1772556257366093000,3.184093017578125,-25.466891588413713,-0.24652071873582898,-3.555022093324363
1772556257376085200,3.194085205078125,-28.26418889604807,1.1350094078242778,-5.658212808698416
1772556257386078200,3.204078125,-25.273019706130025,3.7893782539486884,-7.28917033522129
1772556257396070100,3.214070068359375,-20.680001010751724,1.4613117384791374,-4.834303486222028
1772556257406063000,3.22406298828125,-16.13232134026885,-2.693308525371551,-1.712475679910928
1772556257416055300,3.23405517578125,-13.207457975429296,-2.35530669683367,-2.7556758419573306
1772556257426048300,3.24404833984375,-12.848487885403632,-1.3765053572006523,-2.5866613375544545
1772556257436040200,3.254040283203125,-12.946650153470038,-1.3859443628057837,-1.4667008841715752
1772556257446033200,3.264033203125,-11.56723226982355,-0.7623791873671114,-1.6995910638965666
1772556257456025000,3.274025146484375,-9.523566633346677,-0.052608139115571974,-2.2171505642920732
1772556257466018300,3.284018310546875,-7.26490624705851,0.1643929090168327,-2.0011127351686357
1772556257476010000,3.294010009765625,-4.740779983872175,0.30233152635023,-1.4996499447017908
1772556257486003200,3.304003173828125,-2.0128087259203196,0.3857870044764131,-0.7770256984874606
1772556257495995400,3.313995361328125,0.6567740559488534,0.24496114126890897,0.1533316359721124
1772556257505988000,3.323988037109375,2.835820222774148,-0.0005150368500500917,1.134654603037238
1772556257515980300,3.333980224609375,4.336240567326546,-0.25248883336000144,1.9784290480650961
1772556257525973000,3.343972900390625,5.525432816237211,-0.6676619451880454,2.3625901318401095
1772556257535965200,3.353965087890625,6.723630793902277,-1.3705389961421488,2.2999494051404294
1772556257545958400,3.36395849609375,8.064089709079266,-1.9965294990316031,2.138055692528188
1772556257555950000,3.3739501953125,9.34414530121982,-2.2872077047280968,2.114017229814827
1772556257565943300,3.383943359375,10.240089347815513,-2.491842242436111,2.4594568071380256
1772556257575935200,3.393935302734375,10.767533844017981,-2.7498765080288052,2.956353897124529
1772556257585928200,3.40392822265625,11.009501356428862,-2.966567832624912,3.2309491291567682
1772556257595920100,3.413920166015625,10.99348194952011,-3.0827254838481544,3.1234926707834005
1772556257605913000,3.4239130859375,10.647128179961442,-3.0076418935522433,2.856512297669053
1772556257615905300,3.4339052734375,9.892993235456943,-2.8522213224768636,2.454662850859761
1772556257625898200,3.443898193359375,8.754568466231227,-2.6062235316365956,1.9978654238104818
1772556257635890200,3.45389013671875,7.577208109411597,-2.2977914964541792,1.70087116683498
1772556257645882000,3.463882080078125,6.708522072097659,-1.962804924084246,1.475412598415464
1772556257655875300,3.473875244140625,6.130451550507545,-1.5056646749466658,1.3609006685726344
1772556257665866500,3.483866455078125,5.841445223546028,-1.1436622314877807,1.4727192676782608
1772556257675859700,3.493859619140625,5.497512543654442,-0.8173173768654465,1.5642983579620717
1772556257685851600,3.5038515625,4.959803843069076,-0.5281131527116522,1.6469610052101313
1772556257695844600,3.5138447265625,4.657408457702398,-0.30916345472950485,1.7954143676213918
1772556257705836800,3.5238369140625,4.542574456298351,-0.00006524725593626499,2.0090406055584547
1772556257715829500,3.53382958984375,4.757720012757182,0.560705691421777,1.9470337928481398
1772556257725821700,3.54382177734375,5.141991132777929,0.8222405124813318,1.9363311970479786
1772556257735814700,3.553814697265625,5.683534881481528,0.5367139173943549,1.7425737349241972
1772556257745806600,3.563806640625,6.217177647802234,0.5847030549397692,1.3248420977197586
1772556257755799800,3.5737998046875,6.322894276770949,0.9135917122934013,1.1604606599450111
1772556257765791700,3.583791748046875,5.500988110810518,1.3207660804525017,1.1893278579890727
1772556257775784700,3.59378466796875,4.704864036360383,1.94862383851856,1.209884469936043
1772556257785776600,3.603776611328125,4.1009418651551,2.3550937847353515,0.8871117016468196
1772556257795769600,3.61376953125,2.98453135933876,1.6692003095470367,-0.4623115873608738
1772556257805761500,3.623761474609375,1.6499737771600484,0.11503646517358719,-2.6036498817563056
1772556257815754800,3.633754638671875,1.1731126362472772,-0.9693431178707629,-3.965032342496514
1772556257825746400,3.643746337890625,-3.9246576620101927,-1.633266826378554,-4.3083389994442465
1772556257835739600,3.65373974609375,-10.868334643894434,-1.8684112147711216,-4.422005126112699
1772556257845731800,3.66373193359375,-8.157109353560209,-2.5867063457399606,1.0440944074723868
1772556257855724500,3.673724609375,-11.144252356702088,-1.0023210391692816,0.4412456376522779
1772556257865716700,3.683716796875,-13.63032098417282,-0.150114281360805,-0.15791255228789522
1772556257875709700,3.693709716796875,-15.68531407034993,-1.3811837242752312,2.309845214602351
1772556257885701600,3.70370166015625,-17.552175279200075,-1.8749667738944291,3.8254432545423507
1772556257895694800,3.71369482421875,-16.95323907971382,-0.32258477143645287,1.9855987935639916
1772556257905686500,3.7236865234375,-14.726666607081889,-0.857242560018599,1.6304389094762504
1772556257915679700,3.7336796875,-12.721779906332491,-4.586731285671889,1.647007328569889
1772556257925671700,3.743671630859375,-12.102385440707206,-7.296347094982862,0.04652043496603146
1772556257935664600,3.75366455078125,-11.377260317587853,-6.750984664773941,-0.990352295890823
1772556257945656600,3.763656494140625,-10.774882453215122,-3.9439182427972552,-1.2766647806584834
1772556257955649500,3.7736494140625,-10.017531469273566,-1.9596675028413533,-1.4047922711387275
1772556257965641700,3.783641845703125,-8.285985324320196,-1.0846034549281,-1.0061154630161822
1772556257975633700,3.793633544921875,-5.7988142885655165,-1.0520563993275165,-0.0470928828254342
1772556257985626600,3.803626708984375,-3.2498107737541195,-0.9557610941767692,0.7616901821896433
1772556257995618600,3.81361865234375,-0.7076070020854472,0.034708325287699696,0.455124817661941
1772556258005611800,3.82361181640625,1.3521370780110358,0.32671032693386076,0.22855843413099644
1772556258015603500,3.833603515625,2.6111288393348455,0.3904197057783603,-0.6971954981863498
1772556258025596700,3.8435966796875,3.4987387728273864,0.8090259338602424,-2.0961692923046646
1772556258035588900,3.8535888671875,4.941198511320352,0.9741960377946496,-1.9892900492973624
1772556258045581600,3.86358154296875,5.718112273865938,0.3629737727090716,-0.9514655889399349
1772556258055573800,3.87357373046875,5.9771168457955115,-0.8835676723644137,0.6234823194608092
1772556258065566500,3.88356640625,7.5036834389954805,-1.561541460469365,1.2877011384576558
1772556258075558700,3.89355859375,8.677197641780971,-1.6526469418920575,-0.45617491123676296
1772556258085551600,3.903551513671875,10.181372954952716,-2.3740208957843483,-1.2644991265684364
1772556258095543600,3.91354345703125,11.585219177412986,-2.6268437103390694,-1.29736357755512
1772556258105536800,3.923536865234375,11.74243218486309,-1.1700313291057944,-3.1649665446832773
1772556258115528700,3.93352880859375,12.378363943791388,-0.809751179394871,-3.9182778978452086
1772556258125521700,3.943521728515625,12.66706398128271,-1.3893576783806085,-3.2216005783140655
1772556258135513600,3.953513671875,12.08436112371683,-1.5867906141467392,-2.5833412532210347
1772556258145506600,3.963506591796875,11.288946074318885,-1.2311952612511814,-2.971021597163379
1772556258155498800,3.973498779296875,10.473827961063384,-1.547638753453642,-2.076770033699274
1772556258165491500,3.983491455078125,9.703690560784935,-0.5992959727093577,-1.7197563384383916
1772556258175483600,3.993483642578125,9.068356183227896,0.6608628596324473,-2.100651844546199
1772556258185476600,4.0034765625,8.592261935034394,0.9843288708828389,-2.0153426283121108
1772556258195468500,4.013468505859375,8.175265187975764,1.0951821320876478,-1.927602970060706
1772556258205461800,4.023461669921875,7.985840932750701,1.190592982554063,-1.8876999987393617
1772556258215453700,4.03345361328125,7.871037911006808,1.4033483559407294,-1.649943820413202
1772556258225446700,4.04344677734375,7.35248633083403,1.6650386598229407,-1.1245950543809682
1772556258235438600,4.0534384765625,6.7928259106814854,1.8738437612138688,-0.5499616676326841
1772556258245431600,4.063431640625,6.308073724257945,1.979795221851766,-0.47729668278582393
1772556258255423500,4.073423583984375,5.821052423858642,2.006069480793178,-0.5675871945638209
1772556258265416700,4.083416748046875,5.896217847219109,1.8603037500306963,-0.926313173635304
1772556258275408600,4.09340869140625,6.119592887362837,2.4347753703460095,-3.006801643335819
1772556258285400600,4.103400634765625,5.830577208051085,2.1360259402662516,-1.1304612430006264
1772556258295393800,4.113393798828125,5.505374363070726,1.6136754062019287,-0.3245387550484389
1772556258305385500,4.123385498046875,4.396754949522018,1.3985109989121556,-1.3212993105463682
1772556258315378700,4.133378662109375,2.0730413685649633,0.304255699345842,-0.8747152344755827
1772556258325370600,4.14337060546875,-0.7810077538609504,-2.1764191793225702,1.508126535015553
1772556258335363600,4.153363525390625,-2.2768764264583585,-2.508795423063636,0.041304143356159326
1772556258345355800,4.163355712890625,-4.179832446518541,-0.9962851200059055,-1.1184567708216606
1772556258355348500,4.173348388671875,-9.672340898275374,-0.3803202635031193,-0.6098641284748911
1772556258365340700,4.183340576171875,-17.290837880408763,0.26009930836372075,1.1540481625542045
1772556258375333600,4.193333740234375,-23.48072127857208,3.5298382599681615,2.689749079324305
1772556258385325600,4.20332568359375,-28.1094051615715,5.817081182140112,3.1503342082187533
1772556258395318800,4.21331884765625,-31.06014647951126,4.805764497219026,3.47916839543879
1772556258405310700,4.223310791015625,-30.437962675428388,2.7113240745335814,4.8687505302250385
1772556258415303700,4.2333037109375,-27.876870663416383,1.385610016284883,4.570007822147011
1772556258425295600,4.243295654296875,-24.2856991060853,0.5456134458279237,3.153430128407478
1772556258435288600,4.25328857421875,-19.49243139460683,-0.48987186752483247,2.363123946455866
1772556258445280500,4.263280517578125,-15.528717148971557,-0.9212582283332943,0.6013910452924669
1772556258455273700,4.273273681640625,-12.66667235161662,-0.7554682389348745,-1.4188731112003325
1772556258465265700,4.283265625,-10.600005194258689,-1.4602172212406992,-2.6363269934773443
1772556258475258600,4.293258544921875,-8.532511522948742,-1.880344521410018,-3.2056913537815213
1772556258485250800,4.303250732421875,-6.153542503237724,-1.928148767375201,-3.432127827322483
1772556258495243500,4.313243408203125,-3.5773359242022034,-1.6845619831994174,-3.4754181029945608
1772556258505235700,4.323235595703125,-0.8113567148953675,-1.3938096893534064,-3.1545760835722088
1772556258515228700,4.333228759765625,2.1541548866748808,-1.4569362998738884,-2.2748908055990933
1772556258525220600,4.343220703125,5.097395619726181,-1.4482391986772418,-1.8687701112113893
1772556258535212800,4.353212890625,7.636306195068359,-1.1505907155767083,-1.6692083467230199
1772556258545205500,4.36320556640625,9.343790496432781,-0.7817937896721064,-1.4989046792924403
1772556258555197700,4.37319775390625,10.34916230147481,-0.46636795007959003,-1.3191124680265784
1772556258565190700,4.383190673828125,11.2032399677217,-0.16671828322447835,-0.41731538455374534
1772556258575182600,4.3931826171875,11.840145540118217,-0.3215375274058431,-0.20684293447248636
1772556258585175800,4.40317578125,12.454184616190194,-0.5930211302235722,-0.38106377534680064
1772556258595167700,4.413167724609375,13.155111702120303,-0.8693800109274685,-0.6377742449898273
1772556258605160700,4.42316064453125,13.824453563219308,-1.1281568385157734,-0.9083583416845649
1772556258615152600,4.433152587890625,14.317578441190719,-1.336399264522642,-1.1013526374161242
1772556258625145600,4.4431455078125,14.447503628742695,-1.3532117215052246,-1.3774120967820287
1772556258635137500,4.453137451171875,14.297505959498881,-1.179274958269298,-1.5685785194993018
1772556258645130800,4.463130859375,13.809722442555426,-0.8842021708756684,-1.690962351761013
1772556258655122700,4.473122802734375,12.859879047989844,-0.44004115723334253,-1.6060636160239576
1772556258665115600,4.48311572265625,11.570194626760482,0.007282339027896523,-1.280427348062396
1772556258675107800,4.49310791015625,9.950753350508213,0.5134844329763204,-0.9565483720969408
1772556258685100800,4.503100830078125,8.244791144144534,0.9623378422185778,-0.6122884330123662
1772556258695092700,4.5130927734375,6.83645871618092,1.2974372273132204,-0.3123958242468536
1772556258705085700,4.523085693359375,5.919777001982927,1.4814787665866314,-0.003578735269606113
1772556258715077600,4.53307763671875,5.4102656373560425,1.4867647441655396,0.21843188465312122
1772556258725070600,4.543070556640625,5.30911120173633,1.5739583128415047,0.5322508735708892
1772556258735062500,4.5530625,5.343382304650545,1.8178595697939395,0.758128690315783
1772556258745055700,4.5630556640625,5.372175268414616,2.096776610548049,0.906389160503447
1772556258755047700,4.573047607421875,5.0729327941209075,2.162166343694925,1.0017242423199118
1772556258765040600,4.58304052734375,4.052088694658876,2.0956135581180453,0.9393541492551565
1772556258775032800,4.59303271484375,2.6155221058577296,1.8271341786175965,0.5768976784184575
1772556258785024800,4.603024658203125,1.2342542104303835,1.3150953413397073,0.34190804219618437
1772556258795017700,4.613017822265625,-0.38518472773432727,-0.058694911683350795,0.37879429604485626
1772556258805009700,4.623009765625,-1.9640753824114798,-1.77279994636178,0.018005794952996073
1772556258815002600,4.633002685546875,-3.1946120336234567,-3.1955557442143556,-0.9413334134388714
1772556258824994800,4.642994873046875,-5.3844519816637035,-3.6895492217138406,-1.955974639672786
1772556258834987500,4.652987548828125,-10.837461366724968,-3.1163848846048117,-2.1811207811422646
1772556258844979700,4.662979736328125,-20.92208425849676,-2.9367139616310594,-2.047504630117863
1772556258854972700,4.67297265625,-30.24118221222162,-0.20683190162181853,-1.5667302612841127
1772556258864964600,4.682964599609375,-31.564457937407493,2.6400217563420534,1.422128313603997
1772556258874957800,4.692957763671875,-28.373295751976965,-0.020468203011155126,3.133849814146757
1772556258884949800,4.70294970703125,-24.08017419540882,-1.586787107015401,4.135219105549156
1772556258894942700,4.712942626953125,-20.50534587011337,-1.3168988836303352,3.6398958407506345
1772556258904934700,4.7229345703125,-18.12077245452404,-1.7672940424218773,4.410844849672913
1772556258914927600,4.732927734375,-15.713305654603243,-2.632491360837221,4.266010262280703
1772556258924919600,4.74291943359375,-13.420547768402098,-2.0994388154946266,2.70526550514698
1772556258934912800,4.752912841796875,-11.432135232591628,-1.3142353635095059,1.2297471082694829
1772556258944904700,4.76290478515625,-8.92780204963386,-0.911990779902786,0.2772049761392176
1772556258954897700,4.772897705078125,-5.682650499862432,-0.3969121365375817,0.17626666748821734
1772556258964889900,4.782889892578125,-2.061383663997054,-0.2272854915857315,0.387870898078382
1772556258974882600,4.792882568359375,1.4115648340135811,-0.26993038202635944,0.46525881979390976
1772556258984874800,4.802874755859375,4.078794330754876,-0.32778694318942725,0.34534941482171416
1772556258994867700,4.81286767578125,5.595518744376301,-0.39854792104586956,-0.10731792668551206
1772556259004859600,4.822859619140625,6.4191188547730444,-0.8027781255118548,-0.6862536868028343
1772556259014852900,4.832852783203125,7.46849171410501,-1.6904291216671465,-1.477209857095778
1772556259024844500,4.842844482421875,9.060560999307036,-1.4668072671554981,-1.4465382399782538
1772556259034836700,4.852836669921875,10.785378128266334,-1.1353352787777782,-1.1038846401117741
1772556259044829700,4.86282958984375,12.5030728579998,-1.130285740303248,-1.0666408049970864
1772556259054821600,4.872821533203125,14.035808495223522,-1.1049750656969846,-1.1634642256751655
1772556259064814800,4.88281494140625,14.912680177080631,-1.4273862341322003,-1.4221734679199753
1772556259074806800,4.892806884765625,15.3957360809803,-1.5003165919169783,-1.3228294427230953
1772556259084799700,4.9027998046875,15.549704991942644,-1.042574431363493,-1.3287006728440522
1772556259094791700,4.912791748046875,15.006167439073323,-0.620103198416531,-1.6488494493052361
1772556259104784600,4.92278466796875,14.192224214816093,-0.14408581485152244,-1.6899074358806012
1772556259114776600,4.932776611328125,13.070170150154828,0.4316511492244899,-1.6074408957265316
1772556259124769800,4.942769775390625,11.705476372909546,1.0009725471697748,-1.4817862251006066
1772556259134761700,4.95276171875,10.311641841375828,1.4467660573847592,-1.498142462748289
1772556259144753700,4.962753662109375,9.05689955419004,1.8633159374587236,-1.5387991750463843
1772556259154747000,4.972746826171875,8.15043236001432,2.40346618597731,-1.4923787846550345
1772556259164738600,4.982738525390625,7.587101726916432,2.9656454570829864,-1.4120882733657956
1772556259174731800,4.992731689453125,7.1741299975901835,3.3190193345367907,-1.4348448795750737
1772556259184723700,5.0027236328125,7.026576798889041,3.533485092037916,-1.364033852031827
1772556259194716700,5.012716552734375,7.075960130739212,3.7275250243648883,-1.1233241576623172
1772556259204708900,5.022708984375,7.156632334822416,3.7826708652645347,-0.8506184657037258
1772556259214701600,5.03270166015625,7.021721175551414,3.7499388084858656,-0.6272358267754315
1772556259224693800,5.04269384765625,6.844392431789636,3.543671262748539,-0.3688962215606123
1772556259234686700,5.052686767578125,6.565463846728205,3.2810438241466877,-0.10850267949067055
1772556259244678700,5.0626787109375,5.91747632382512,3.03149301699996,0.24826361688040197
1772556259254672000,5.072671875,4.970403563016653,2.725101839995384,0.5123419849429279
1772556259264663800,5.082663818359375,3.3181747004061934,2.221133934839815,0.6686119393892586
1772556259274656800,5.09265673828125,1.2286737799495457,1.3042865086860953,1.2476841853678227
1772556259284648700,5.102648681640625,-1.0670289275318383,-0.11110825887918471,1.6113579230397939
1772556259294641700,5.1126416015625,-3.80754051810503,-1.5686470546908675,1.0086321220122276
1772556259304633600,5.122633544921875,-7.2409057782679795,-3.192183929693699,0.09482019109688698
1772556259314626800,5.132626708984375,-11.470484544730185,-4.631393726480007,0.2060430893316865
1772556259324618500,5.142618408203125,-16.582020918011665,-4.737765604487061,0.4891417996846139
1772556259334611700,5.15261181640625,-21.982582322955132,-3.892711787173152,0.7297925304085016
1772556259344604000,5.16260400390625,-25.378378607702253,-2.800262879441678,1.0247282474189996
1772556259354595600,5.172595703125,-22.905565767645836,-2.29135532592684,1.5512240645945072
1772556259364588800,5.1825888671875,-16.61966646579504,-4.831591304653883,1.3323122874699531
1772556259374581800,5.192581787109375,-10.918887604045867,-8.275546347892284,-0.06358235493134706
1772556259384573700,5.20257373046875,-8.226718896359206,-6.2641772993862626,-1.3848057141646741
1772556259394566700,5.212566650390625,-11.470088238888978,-3.4578614035159347,-1.5372667047820985
1772556259404558600,5.22255859375,-17.53654048769474,-2.8635709840089083,0.012788316033035516
1772556259414551800,5.2325517578125,-20.19273421115875,-1.2699901252001524,1.1441397858716547
1772556259424543700,5.242543701171875,-17.94581336250305,-0.2399123334467411,1.5970108332574366
1772556259434536700,5.25253662109375,-13.722642709517478,-0.7112190551027655,1.323049076823145
1772556259444528600,5.262528564453125,-9.537034602206944,-0.7175596563011407,0.38630839800201355
1772556259454520600,5.2725205078125,-6.14329174285829,-0.8694687121242284,-0.33242673181928695
1772556259464513800,5.282513671875,-2.9974025313496586,-0.9232330355376005,-0.7313024965800344
1772556259474505700,5.292505615234375,0.05546586663424968,-0.6433600092329085,-1.0461599617000668
1772556259484498700,5.302498779296875,2.6946517566740513,-0.2978755698546767,-1.0947807116799055
1772556259494490600,5.31249072265625,4.339298785853385,0.3092059421643615,-1.0889374655444175
1772556259504483600,5.322483642578125,4.823885552582144,0.8160305519253015,-0.7216616847924888
1772556259514475500,5.3324755859375,4.956807583862543,0.7554885510705411,-0.2565186733979732
1772556259524468700,5.34246875,5.664616830521822,0.26528262928575275,-0.33378253034241495
1772556259534460700,5.352460693359375,7.221656303396821,-0.37268808812424536,-0.5809324868924916
1772556259544453600,5.36245361328125,9.605658641099929,-0.903672741151601,-0.7567316099341959
1772556259554445800,5.37244580078125,12.22690496982336,-1.2705128339000045,-0.9975012908626347
1772556259564438500,5.3824384765625,14.192875372201204,-1.5322045990869402,-1.0774132511630654
1772556259574430700,5.3924306640625,14.716649070936441,-1.4091380452580748,-0.9821961697030812
1772556259584423700,5.402423583984375,14.178911144256592,-0.8417121056705713,-1.08606527110897
1772556259594415600,5.41241552734375,12.89659286788106,-0.17982523675262926,-1.1054825768277048
1772556259604408800,5.422408935546875,11.203084484899044,0.6516032291822135,-0.8018260124187916
1772556259614400500,5.432400390625,9.379016708114742,1.616435226304084,-0.4981223209325224
1772556259624392700,5.442392822265625,7.59262487425208,2.248192914418131,-0.3017154402785003
1772556259634385700,5.4523857421875,6.165511757972836,2.635374807319045,-0.15488814469911158
1772556259644377600,5.462377685546875,5.34050061173439,3.015470687481761,-0.16387480342686175
1772556259654370800,5.472370849609375,5.278218050822615,3.1654829697728157,-0.19623006278239188
1772556259664362500,5.482362548828125,5.889253853425383,3.0742268278330562,-0.06999335448481142
1772556259674355200,5.492355224609375,6.886681421464681,2.954660244949162,0.047715325572714205
1772556259684347400,5.502347412109375,7.828370735669136,2.995357873779535,0.10022964892499148
1772556259694340400,5.51234033203125,8.573100722968578,3.0189024154961106,0.05611899678073823
1772556259704332300,5.522332275390625,8.928663050377368,3.1223221656993028,0.10471782718971372
1772556259714325500,5.532325439453125,8.86838247693777,3.1878882783263918,0.0983989263664931
1772556259724317400,5.5423173828125,8.522002988415956,3.190089003241062,-0.04180427489802241
1772556259734310400,5.552310302734375,8.037253724601864,3.045550768446922,-0.06637582157477737
1772556259744302300,5.56230224609375,7.5406789984375235,2.524374684989452,-0.08782287955544889
1772556259754295300,5.57229541015625,6.925523485556244,1.5262152955442667,-0.10216770431548357
1772556259764287200,5.582287353515625,5.95481499761641,-0.17860124791562557,-0.34950733821876345
1772556259774280200,5.5922802734375,4.779271919351816,-2.6021786401599645,-0.6265742941267788
1772556259784272400,5.6022724609375,3.4592449668288228,-4.38063792745769,-0.7361601657442748
1772556259794265300,5.612265380859375,1.7177245403498411,-4.313470517113805,-1.3880933575332164
1772556259804257300,5.62225732421875,-2.171461410784721,-2.0862898494556545,-1.3211406128533183
1772556259814249200,5.632249267578125,-10.112481205034255,-0.8690206760957837,0.7267571082353591
1772556259824242400,5.642242431640625,-19.465694194328783,-1.8361515978097915,1.3360124571621417
1772556259834234000,5.652234130859375,-25.35085464096069,-0.4703589194118976,0.29947927872426805
1772556259844227300,5.662227294921875,-25.492407137942312,0.5211277142710984,1.3660466531589626
1772556259854219500,5.672219482421875,-21.79341467283964,-0.33593890465870496,2.0439359778508543
1772556259864212200,5.682212158203125,-18.19296675311923,0.1617991661965847,1.9206003978222608
1772556259874204400,5.692204345703125,-16.354232737600803,0.5059893279805779,2.0853193969883024
1772556259884197000,5.702197021484375,-15.716072781229018,0.13310732471942902,2.6048884836405515
1772556259894189300,5.712189208984375,-14.015596897321938,-0.021091303345561026,2.7001103143408893
1772556259904182500,5.7221826171875,-9.882317527663707,-0.36002456751465794,2.2229003599904478
1772556259914174200,5.73217431640625,-4.305698714068532,-1.0398261555686592,1.4458831370703875
1772556259924167400,5.74216748046875,1.0865759240448474,-1.6709565055646,0.6587345423668622
1772556259934159400,5.752159423828125,5.166857863008976,-1.8751243025436997,-0.0593909311234951
1772556259944152300,5.76215234375,7.842451283469796,-1.7009239199355244,-0.7875587829396128
1772556259954144300,5.772144287109375,9.263103679302334,-1.407239225899428,-1.2402521356709302
1772556259964137200,5.78213720703125,9.74072119154036,-1.3659654046162961,-1.244598494312167
1772556259974129400,5.79212939453125,9.9894580519557,-1.588098189613968,-1.3186765608273445
1772556259984122400,5.802122314453125,10.580449429917335,-1.7521129860334097,-1.3977699712865055
1772556259994114300,5.8121142578125,11.423499506193398,-1.6108378446884453,-1.6115537378728388
1772556260004106200,5.822106201171875,11.887338668447732,-1.7207981025762855,-1.8547452391207218
1772556260014099500,5.832099365234375,11.977239304125309,-1.7355469050273298,-1.948502988617867
1772556260024091100,5.842091064453125,11.78999122389555,-1.640248209698498,-2.046840613251179
1772556260034084400,5.85208447265625,11.292739621382951,-1.2883860519818962,-1.873180182738602
1772556260044076300,5.862076171875,10.703988131302594,-0.8172636008515953,-1.2711962861195205
1772556260054069200,5.8720693359375,9.835602538239955,-0.19037395716533065,-0.5873962760791183
1772556260064061400,5.8820615234375,8.144913888853788,0.512667782831192,-0.23426643651425838
1772556260074054100,5.89205419921875,5.906494326561689,1.1733530208744107,-0.1303036654755473
1772556260084046300,5.90204638671875,3.6681659496843815,1.8095872698806226,-0.10626900215446948
1772556260094039600,5.91203955078125,1.7671832755237817,2.103392229295522,0.06363222195506095
1772556260104031200,5.92203125,0.18305355114936828,1.6990948048122225,0.2745633755892515
1772556260114024400,5.9320244140625,-1.2873323051452636,0.7990225723706186,0.6735135938256979
1772556260124016400,5.942016357421875,-2.885766449204087,0.32927886224761604,1.153517124417424
1772556260134009300,5.95200927734375,-5.077613060891628,1.0466000336177645,1.176248742315918
1772556260144001300,5.962001220703125,-8.644868320584298,2.305909482588619,1.4261502625964582
1772556260153994200,5.971994140625,-14.61250714393854,3.637533495533466,2.1877784854657945
1772556260163986200,5.981986083984375,-22.072741317307948,4.3263720842629665,1.961057495895028
1772556260173979400,5.9919794921875,-26.878563389933106,5.562887809884548,0.931727307638526
1772556260183971300,6.001971435546875,-26.183438268280028,6.069067399740219,1.321607645843178
1772556260193963300,6.01196337890625,-21.050241851854324,3.9079368288338183,2.45248316873312
1772556260203956500,6.02195654296875,-13.36569389618635,0.9341729472249746,2.3784137239158154
1772556260213948200,6.0319482421875,-6.988426224192977,-0.48744770911782975,1.5459337031014262
1772556260223941400,6.04194140625,-4.772435351330041,-1.2065838209554551,0.634394027967006
1772556260233933300,6.051933349609375,-5.732255365508794,-1.0582225207418203,-0.20047668737620114
1772556260243926300,6.06192626953125,-6.965259868139028,-0.04781747077293694,-0.20575871943235396
1772556260253918500,6.07191845703125,-6.671583211278915,0.5914557806029915,0.18788447843715547
1772556260263911200,6.0819111328125,-4.283388682582975,0.5236065254747867,-0.06170373811051249
1772556260273903400,6.0919033203125,-0.28049685729146,0.17585224146842957,-0.16384660024568437
1772556260283896300,6.101896240234375,4.099391128581762,-0.2358396041151136,-0.02315641918182373
1772556260293888300,6.11188818359375,7.709964720997214,-0.52880139070414,0.06502718344479799
1772556260303881500,6.121881591796875,10.235622431534528,-0.8174202527180313,0.32381402097046375
1772556260313873400,6.131873291015625,11.765011096417902,-1.1416103404592721,0.294040156410262
1772556260323866400,6.141866455078125,12.561539075493812,-1.4713377501919864,0.2220422571700066
1772556260333858300,6.1518583984375,13.012732691186665,-1.9491873176202177,0.1884456925164908
1772556260343851300,6.161851318359375,13.233330083310603,-2.185122856390476,0.09795600490458309
1772556260353843200,6.17184326171875,13.15601420391798,-2.2455071824654937,-0.2459855158805847
1772556260363835400,6.18183544921875,12.887075682473181,-2.257462993197143,-0.6626026890370994
1772556260373828400,6.191828369140625,12.368688937473296,-2.076352100548148,-0.8665101545795798
1772556260383820300,6.2018203125,11.511104139888285,-1.6595637355431914,-0.9320937297981232
1772556260393813200,6.211813232421875,10.026260719174147,-0.9373145331863313,-0.9999650506276637
1772556260403805200,6.22180517578125,7.557561744177341,-0.04449738643951714,-0.9559767096888273
1772556260413798400,6.23179833984375,4.309102969554067,0.7902255909960717,-0.8651916193269192
1772556260423790300,6.241790283203125,0.7793471271723509,1.4089301015958189,-0.811720068315044
1772556260433783300,6.251783203125,-2.5171733753085137,1.901545276479423,-0.6234956173337995
1772556260443775500,6.261775390625,-5.5197483408600085,2.3955197570174933,-0.4741733631335199
1772556260453768200,6.271768310546875,-8.011537099543213,2.6357351650640366,-0.521363970712386
1772556260463760400,6.281760498046875,-10.142958176362514,2.102538681206107,-0.3272431917015463
1772556260473753000,6.291753173828125,-11.794500225752591,0.4520968481428921,0.2785748397203162
1772556260483745300,6.301745361328125,-12.567643822109698,-1.3941244543910025,1.0759193593434988
1772556260493738500,6.311738525390625,-12.62679977543354,-1.8305971785530446,1.7562226133093237
1772556260503730200,6.321730224609375,-13.179067747247219,-0.5334679942756891,1.375967012540251
1772556260513723400,6.331723388671875,-15.19864231404066,-0.8552247904554009,0.5833366984900087
1772556260523715300,6.34171533203125,-12.665913642203806,-0.6214424841962755,2.6691987509876487
1772556260533707300,6.351707275390625,-5.6418023566454645,-2.3053946649342776,2.447346682627499
1772556260543700200,6.3617001953125,-2.465025254920125,-3.6827439256131647,0.5593903345068917
1772556260553692400,6.3716923828125,-1.3380208743751048,-1.1840899573355912,0.557641664208658
1772556260563685400,6.381685302734375,-3.1606969045400617,0.16069909600019455,-0.7995341751545667
1772556260573677300,6.39167724609375,-6.566942687109113,0.16249606241956352,-1.3493151524581015
1772556260583670300,6.401670166015625,-8.25018978831768,1.0238833210274576,-0.6969627123437822
1772556260593662200,6.411662109375,-6.824764186733961,2.133345761271566,0.10559599826373159
1772556260603655400,6.421655517578125,-3.077052991169691,2.3264396449200806,-0.35525015618707984
1772556260613647000,6.431647216796875,1.5798603764921426,2.2110879032522437,-1.1379944149844348
1772556260623640300,6.441640380859375,5.738860462862253,2.1970950337350366,-1.4164232338301836
1772556260633632500,6.451632568359375,8.657168414708972,2.020954038453102,-1.2453745932511984
1772556260643625200,6.461625244140625,10.458847834074497,1.8532748743072152,-0.9250678497493267
1772556260653617400,6.471617431640625,11.823477313911914,1.6140261193357408,-0.7025915120109916
1772556260663610400,6.4816103515625,13.08443248426318,1.1567965844795107,-0.5745271864274516
1772556260673602300,6.491602294921875,14.022414760643242,0.6505716941773891,-0.3721257780663669
1772556260683595500,6.501595458984375,14.424249009883402,0.14194149629920721,-0.36951263642590493
1772556260693587200,6.511587158203125,13.935525581741333,-0.21974574373066424,-0.5003797079378739
1772556260703579400,6.521579345703125,12.555723082691431,-0.104425420114398,-0.5793050683537497
1772556260713572600,6.531572509765625,10.355831696236132,0.11582856539934873,-0.36049770145174115
1772556260723564300,6.541564208984375,7.728748916444182,0.38502778360694645,-0.11242770744729787
1772556260733557500,6.5515576171875,4.8673967775285245,0.7229308279454708,0.2633622922150418
1772556260743549400,6.561549560546875,2.429142625156045,1.0605950950920582,0.388642722701095
1772556260753542400,6.57154248046875,0.25172727440297604,1.5138529498383402,0.29723296110220254
1772556260763534300,6.581534423828125,-1.8767139098227024,1.197635959868133,0.4284099753461778
1772556260773527300,6.59152734375,-3.152341748648882,-0.6513616755113005,1.0325978117503225
1772556260783519500,6.60151953125,-3.2010593100666997,-2.82334857147485,1.7075757790401578
1772556260793512400,6.611512451171875,-3.0279186656445263,-4.557800374741852,2.11901503810212
1772556260803504400,6.62150439453125,-4.059547193971276,-5.032770295080542,2.3618147635534403
1772556260813497300,6.631497314453125,-7.29357120052874,-3.8642861954167484,2.0699923562578855
1772556260823489500,6.641489501953125,-12.572944266605376,-3.7936452637434,1.440056769004464
1772556260833481200,6.651481201171875,-12.732327019309997,-3.577484685023129,4.306583680209517
1772556260843474400,6.661474365234375,-6.042338967290521,-4.642215272484719,5.0859331454694265
1772556260853466600,6.671466552734375,-3.4632156240254637,-6.759014826494455,0.011151873937621713
1772556260863459300,6.681459228515625,-4.164159076568484,-2.7671289638638497,-1.248676849666983
1772556260873451500,6.691451416015625,-9.16379983998537,2.2354291483044624,-1.5014780369117855
1772556260883444200,6.7014443359375,-14.953984831893443,1.9106117955103517,-1.5753522514179348
1772556260893436400,6.7114365234375,-16.359747117108107,1.9792004708290099,0.7479030643776059
1772556260903429600,6.7214296875,-13.251274905323982,3.401862160657346,1.4318772619411348
1772556260913421300,6.73142138671875,-7.25714847253859,3.4478120109274983,0.2303078350815922
1772556260923414500,6.74141455078125,-0.6558838291108607,3.0923069666638967,-0.6914350349634886
1772556260933406500,6.751406494140625,5.0045197676301,3.0432281707182525,-1.16234632756114
1772556260943399400,6.7613994140625,9.08826850592196,2.698650763182342,-0.8651683845818042
1772556260953391400,6.771391357421875,11.737180840206145,2.1204420021653174,-0.5305445811096579
1772556260963384300,6.78138427734375,13.602099098294973,2.088400265738368,-0.7597767497837543
1772556260973376500,6.79137646484375,14.610042799651621,2.0150395537123083,-0.8913720625050365
1772556260983369500,6.801369384765625,14.715394686961174,1.6867796592488884,-0.7616573028333484
1772556260993361400,6.811361328125,13.943570941030979,1.5346391327574849,-0.6116826491389423
1772556261003353300,6.821353271484375,12.816408155053853,1.7312518381819129,-0.32233167345821856
1772556261013346600,6.8313466796875,11.510398037445544,2.1118401780366898,-0.10993117792382835
1772556261023338200,6.841338134765625,9.907835415279864,2.4823072291105985,-0.012409326652809976
1772556261033331500,6.85133154296875,7.901615420100092,2.972427372308075,0.09566975713092833
1772556261043323400,6.861323486328125,5.801825160819292,3.5672613971725102,0.17426153821088372
1772556261053316400,6.87131640625,3.9102433522105216,3.90484733838588,0.24294834014177322
1772556261063308500,6.88130859375,2.0152783309042452,3.963368793198466,0.2922323032706976
1772556261073301200,6.89130126953125,0.07962298729121685,3.3642063837409015,0.47360476946532726
1772556261083293400,6.90129345703125,-1.4681003757059574,0.9105576783597469,1.258495648369938
1772556261093286400,6.911286376953125,-2.457290861275792,-2.471308865234256,1.975496647875011
1772556261103278300,6.9212783203125,-3.280345612749457,-4.972545251220464,1.926600368889421
1772556261113271600,6.931271484375,-5.017684954151511,-5.503245534348488,1.0506828459519892
1772556261123263200,6.94126318359375,-8.052029853451252,-4.613020449921488,0.5097019918281585
1772556261133255400,6.95125537109375,-9.770482708075642,-5.020736742937564,1.5831423207722604
1772556261143248400,6.961248291015625,-9.658093177214264,-6.754981040933727,2.744587753970921
1772556261153240300,6.971240234375,-8.735943260738253,-7.604190224361419,-1.3737047666966915
1772556261163233500,6.981233642578125,-5.947071251621842,-6.746923406684398,-2.3214066191889344
1772556261173225500,6.9912255859375,-5.437103959921002,-3.316308906534314,-1.4741158366031943
1772556261183218400,7.001218505859375,-10.048719219219684,-0.38687896443158387,-1.7798080715581774
1772556261193210400,7.01121044921875,-16.278569886112212,-0.7661690811693668,-1.0721426903489977
1772556261203203300,7.021203369140625,-19.133063829696177,-0.5761202643051743,-0.5630022779263556
1772556261213195300,7.0311953125,-16.136149958646296,0.706854137891531,-0.6751636991202831
1772556261223188500,7.0411884765625,-10.157704494595528,0.42309681749939915,-0.8047448224749416
1772556261233180400,7.051180419921875,-4.240646103921533,-0.08989537498056888,-0.9928725350834429
1772556261243173400,7.06117333984375,0.550350155493617,-0.19143588730841873,-1.051207527413219
1772556261253165600,7.07116552734375,4.049166669732332,0.05931377423405647,-1.1145472692277283
1772556261263158300,7.081158203125,6.449332206729054,0.4517001039102673,-1.328003338229656
1772556261273150500,7.091150390625,8.096337781733274,1.0175275222599505,-1.5246081526085733
1772556261283142400,7.101142333984375,9.412588722848891,1.3647317711681126,-1.4599606161311267
1772556261293135400,7.11113525390625,10.601322706598042,1.4168699546843766,-1.3848217885166405
1772556261303127300,7.121127197265625,11.692062764585017,1.382721016845107,-1.2242596898343414
1772556261313120300,7.131120361328125,12.507854247057438,1.2300824777036905,-1.136760050883889
1772556261323112400,7.141112548828125,12.924052537214756,1.0020721789747475,-1.1675457959003746
1772556261333105400,7.15110546875,12.861412833428382,0.8784984062761068,-0.9909075916860252
1772556261343097300,7.161097412109375,12.408024922561644,1.0239505410447716,-0.6415326476752757
1772556261353090300,7.17109033203125,11.41661500737667,1.4671595877245067,-0.17096819575391708
1772556261363082500,7.18108251953125,9.90308909753561,1.957709646771848,0.17433533409945665
1772556261373075500,7.191075439453125,8.053053935801982,2.4397405915379524,0.3189774676594883
1772556261383067400,7.2010673828125,5.995592413684726,2.963348870578408,0.4901257692206651
1772556261393060400,7.211060302734375,3.807618844038248,3.2437074884429573,0.4732338172610849
1772556261403052300,7.22105224609375,1.7080179698497056,3.4058547374248502,0.2255208930660039
1772556261413044500,7.23104443359375,-0.36374914099574085,2.7693103995561597,-0.017009075533226132
1772556261423037200,7.241037109375,-2.017536923485994,1.0822954702466725,0.09138298318982124
1772556261433029400,7.251029296875,-3.1146932782560586,-0.8715376273527741,0.6180054954849183
1772556261443022600,7.261022705078125,-4.062330102688074,-2.983820872981846,1.1040116274923086
1772556261453014300,7.27101416015625,-5.099127558085322,-4.2202638256281615,1.4396210079357028
1772556261463007500,7.281007568359375,-7.107584518536925,-3.2206293951943517,1.1831874555379152
1772556261472999400,7.29099951171875,-10.219584319925307,-1.722086827212572,1.7679044294051824
1772556261482992400,7.300992431640625,-11.432010144907235,-2.1972487629920243,4.012656263458728
1772556261492984300,7.310984375,-10.585746367281674,-2.308219074705243,0.600841448585689
1772556261502977300,7.320977294921875,-9.968165088558196,-1.8423939993306993,-2.7083570414215323
1772556261512969500,7.330969482421875,-9.065801238048076,-0.7503551337048411,-0.9200344586919993
1772556261522962400,7.34096240234375,-10.345947431081532,0.6491548131167888,0.5571337512191384
1772556261532954400,7.350954345703125,-12.460465888416767,0.26392215458750723,0.8918502014108002
1772556261542947300,7.360947265625,-12.057837858450412,-0.21116145525872707,0.9136639007467776
1772556261552939500,7.370939453125,-9.282112331154941,-0.018965104971826074,-0.14975786913856864
1772556261562931200,7.38093115234375,-5.392733487796783,0.1509317352235317,-1.3261479196213184
1772556261572924400,7.39092431640625,-1.2819511966288089,0.42444355593323707,-1.7544253546290098
1772556261582916600,7.40091650390625,2.3000176480710506,0.8007865133032203,-1.7512220285430549
1772556261592909300,7.410909423828125,5.104999664989114,1.09811555519104,-1.5022861384242772
1772556261602901500,7.420901611328125,7.326900638678669,1.1815998940855263,-1.279901278361678
1772556261612894200,7.430894287109375,9.426162490171194,1.2864686740532516,-1.287768066214025
1772556261622886400,7.440886474609375,11.2955932572484,1.2102794606029987,-1.174016818545386
1772556261632879600,7.450879638671875,12.605924160665273,0.9715332483261823,-0.8277029426056891
1772556261642871300,7.460871337890625,13.051046932011841,0.9608660161003469,-0.45813320569768545
1772556261652864500,7.470864501953125,12.543460982489584,1.0088266216710209,-0.11279570050947367
1772556261662857200,7.480857177734375,11.280109272390604,1.1164055373802781,0.18316417191699147
1772556261672850400,7.490850341796875,9.715893624275923,1.5508166528373957,0.31385398716591295
1772556261682842400,7.50084228515625,7.7029440285801885,2.331832590004802,0.5988612345539033
1772556261692834300,7.510834228515625,5.123945188477635,3.2151462876081465,0.7979215523261577
1772556261702827500,7.52082763671875,2.522292033496499,3.6355201098844407,0.7425901987917721
1772556261712819500,7.5308193359375,0.4669996721118688,2.817281526520848,0.7066826537821441
1772556261722812400,7.5408125,-0.1263069970548153,0.962121276858449,0.9355996920924633
1772556261732804400,7.550804443359375,0.814481568917632,-0.7568301749378442,1.0938543175499886
1772556261742797300,7.56079736328125,1.4185259051978587,-1.9320123109355567,0.8777981490522623
1772556261752789500,7.57078955078125,0.3637169922918081,-2.4093320092707873,0.6154120449256152
1772556261762782200,7.5807822265625,-2.580066177073121,-2.0524697051793335,0.4333024235628545
1772556261772774400,7.5907744140625,-6.4834764683932065,-1.6237418960556387,0.8704976167805493
1772556261782767400,7.600767333984375,-8.709978213876486,-2.2468021907120943,2.0577209037058055
1772556261792759300,7.61075927734375,-7.677161937069893,-3.2370883625641462,2.268986257730424
