time,seconds_elapsed,z,y,x
1772556254248433000,0.066432861328125,-0.06742961704730988,-0.14800572395324707,-0.14989061653614044
1772556254258424800,0.0764248046875,-0.058159422129392624,-0.18892225623130798,-0.1339116394519806
1772556254268417800,0.086417724609375,-0.05170731619000435,-0.23844589293003082,-0.11643525213003159
1772556254278409700,0.09640966796875,-0.03352085500955582,-0.28514546155929565,-0.09786423295736313
1772556254288402700,0.106402587890625,-0.020916908979415894,-0.3357934057712555,-0.07508330047130585
1772556254298394600,0.11639453125,-0.011305825784802437,-0.35752028226852417,-0.06384715437889099
1772556254308387800,0.126387939453125,0.005756711587309837,-0.36583977937698364,-0.05568342283368111
1772556254318379800,0.1363798828125,0.03893756866455078,-0.3610279858112335,-0.057542841881513596
1772556254328372700,0.146372802734375,0.07467757910490036,-0.3301374912261963,-0.07479988783597946
1772556254338365000,0.156364990234375,0.10689890384674072,-0.29942992329597473,-0.10825265198945999
1772556254348357600,0.166357666015625,0.13224580883979797,-0.28708508610725403,-0.15648473799228668
1772556254358349800,0.176349853515625,0.15432234108448029,-0.27771472930908203,-0.20228497684001923
1772556254368342800,0.1863427734375,0.17459379136562347,-0.23866133391857147,-0.24129550158977509
1772556254378334700,0.196334716796875,0.18673302233219147,-0.17445358633995056,-0.2651158571243286
1772556254388328000,0.206327880859375,0.17921239137649536,-0.11472976952791214,-0.28587257862091064
1772556254398319600,0.216319580078125,0.15401941537857056,-0.1091403216123581,-0.312070369720459
1772556254408312800,0.226312744140625,0.13139678537845612,-0.14500142633914948,-0.32642021775245667
1772556254418304800,0.2363046875,0.1180194690823555,-0.19497351348400116,-0.31658223271369934
1772556254428297700,0.246297607421875,0.1269892007112503,-0.21998460590839386,-0.30297964811325073
1772556254438291000,0.256291015625,0.17057928442955017,-0.20197391510009766,-0.29994550347328186
1772556254448282600,0.26628271484375,0.26019686460494995,-0.13613839447498322,-0.32464295625686646
1772556254458274800,0.27627490234375,0.3713683784008026,-0.06924112141132355,-0.3797277808189392
1772556254468267800,0.286267822265625,0.4769429564476013,-0.0005720676854252815,-0.43560099601745605
1772556254478260700,0.2962607421875,0.5488978028297424,0.09050831198692322,-0.4938584268093109
1772556254488253000,0.3062529296875,0.5678403377532959,0.2069760262966156,-0.5294389724731445
1772556254498245600,0.31624560546875,0.534654974937439,0.3327193260192871,-0.5627710819244385
1772556254508237800,0.32623779296875,0.45526406168937683,0.43441399931907654,-0.5929239392280579
1772556254518230800,0.336230712890625,0.36174237728118896,0.48766523599624634,-0.6061180233955383
1772556254528222700,0.34622265625,0.27746742963790894,0.5094546675682068,-0.6065154671669006
1772556254538216000,0.3562158203125,0.19830338656902313,0.4851522445678711,-0.6002926826477051
1772556254548207900,0.366207763671875,0.1098211258649826,0.40644335746765137,-0.5887720584869385
1772556254558200800,0.376200927734375,0.012644506990909576,0.2787274718284607,-0.5753870010375977
1772556254568192800,0.38619287109375,-0.07739989459514618,0.1299409121274948,-0.5505875945091248
1772556254578185700,0.396185791015625,-0.14732331037521362,0.007909550331532955,-0.5172150135040283
1772556254588177700,0.406177734375,-0.16993503272533417,0.008411334827542305,-0.47024938464164734
1772556254598171000,0.4161708984375,-0.16197244822978973,0.07698799669742584,-0.40826672315597534
1772556254608162800,0.426162841796875,-0.13528524339199066,0.10582994669675827,-0.3283504843711853
1772556254618155800,0.43615576171875,-0.07929866760969162,0.22717157006263733,-0.21599064767360687
1772556254628148000,0.44614794921875,0.00290127145126462,0.3634067177772522,-0.07414010912179947
1772556254638140700,0.456140625,0.09098000079393387,0.4594208598136902,0.08499361574649811
1772556254648132900,0.4661328125,0.18759235739707947,0.5163000822067261,0.24448539316654205
1772556254658125300,0.476125244140625,0.2863386571407318,0.5335358381271362,0.3813686966896057
1772556254668117500,0.486117431640625,0.3868562579154968,0.5043944120407104,0.48243963718414307
1772556254678110500,0.4961103515625,0.47263455390930176,0.44358623027801514,0.514639675617218
1772556254688102400,0.506102294921875,0.5274458527565002,0.318913996219635,0.4825951159000397
1772556254698095600,0.516095703125,0.54524827003479,0.1773989498615265,0.3875732421875
1772556254708087600,0.526087646484375,0.5276041626930237,0.07365207374095917,0.24910293519496918
1772556254718080500,0.53608056640625,0.49113914370536804,-0.01929650828242302,0.09790729731321335
1772556254728072400,0.546072509765625,0.4289368689060211,-0.07671000808477402,-0.03414904698729515
1772556254738065400,0.5560654296875,0.3504774868488312,-0.08681883662939072,-0.12385097146034241
1772556254748057300,0.566057373046875,0.2596987187862396,-0.05001262202858925,-0.15695036947727203
1772556254758050600,0.576050537109375,0.17221225798130035,0.016184240579605103,-0.14222575724124908
1772556254768042500,0.58604248046875,0.10246141254901886,0.10835174471139908,-0.09222260862588882
1772556254778035500,0.596035400390625,0.06570339947938919,0.17957772314548492,-0.022066159173846245
1772556254788027600,0.606027587890625,0.05743201822042465,0.21187731623649597,0.05743812769651413
1772556254798020400,0.616020263671875,0.07376625388860703,0.1988115906715393,0.1281605064868927
1772556254808012500,0.626012451171875,0.09941534698009491,0.14972415566444397,0.1804543286561966
1772556254818005500,0.636005615234375,0.1314355880022049,0.09758958220481873,0.20535622537136078
1772556254827997400,0.64599755859375,0.15643197298049927,0.09762772917747498,0.20814654231071472
1772556254837990400,0.655990478515625,0.16350293159484863,0.13216999173164368,0.19346186518669128
1772556254847982300,0.665982421875,0.15177278220653534,0.1955394297838211,0.16667409241199493
1772556254857975600,0.6759755859375,0.1272309422492981,0.28036004304885864,0.13511855900287628
1772556254867967500,0.685967529296875,0.1022176668047905,0.35213643312454224,0.10433569550514221
1772556254877960400,0.69596044921875,0.09429290145635605,0.37463614344596863,0.08594763278961182
1772556254887952400,0.705952392578125,0.11415588855743408,0.35807690024375916,0.10091204941272736
1772556254897945300,0.7159453125,0.16071780025959015,0.37847140431404114,0.15942835807800293
1772556254907937500,0.7259375,0.22521549463272095,0.4377008378505707,0.2480493038892746
1772556254917930200,0.73593017578125,0.2819187045097351,0.5202124714851379,0.33651605248451233
1772556254927922400,0.74592236328125,0.3284676671028137,0.5956348180770874,0.3986564874649048
1772556254937915600,0.75591552734375,0.35820209980010986,0.6198882460594177,0.40875229239463806
1772556254947907300,0.7659072265625,0.3701780140399933,0.6246692538261414,0.37064433097839355
1772556254957900500,0.775900634765625,0.3447698652744293,0.5104950070381165,0.2744709253311157
1772556254967892500,0.785892578125,0.30014094710350037,0.23779357969760895,0.131874680519104
1772556254977885400,0.795885498046875,0.2620987594127655,0.06720852851867676,-0.007339393720030785
1772556254987877400,0.80587744140625,0.22532235085964203,-0.024467283859848976,-0.13007545471191406
1772556254997870300,0.815870361328125,0.16831819713115692,-0.10645882785320282,-0.22224558889865875
1772556255007862300,0.8258623046875,0.08458413928747177,-0.22066959738731384,-0.2731468379497528
1772556255017855500,0.83585546875,-0.008029148913919926,-0.3404974639415741,-0.26076897978782654
1772556255027847400,0.845847412109375,-0.10585923492908478,-0.4435545802116394,-0.21193957328796387
1772556255037840400,0.85584033203125,-0.18870031833648682,-0.5479779243469238,-0.1410914957523346
1772556255047832600,0.86583251953125,-0.24301782250404358,-0.6580722332000732,-0.06168506667017937
1772556255057825500,0.875825439453125,-0.26618465781211853,-0.7183457016944885,0.05797209218144417
1772556255067817500,0.8858173828125,-0.2768918573856354,-0.6582291126251221,0.20199596881866455
1772556255077810400,0.895810546875,-0.28984972834587097,-0.5459704399108887,0.3472021520137787
1772556255087802400,0.90580224609375,-0.32144638895988464,-0.453355073928833,0.46455875039100647
1772556255097795600,0.915795654296875,-0.3630140721797943,-0.395221471786499,0.5393861532211304
1772556255107788500,0.92578857421875,-0.3986884355545044,-0.3794589638710022,0.5680322051048279
1772556255117780500,0.935780517578125,-0.43394923210144043,-0.39147064089775085,0.547476589679718
1772556255127773400,0.9457734375,-0.42269623279571533,-0.47058406472206116,0.5161863565444946
1772556255137765400,0.955765380859375,-0.30256956815719604,-0.6141965985298157,0.5586240887641907
1772556255147758600,0.965758544921875,-0.2589927911758423,-0.5715836882591248,0.6177368760108948
1772556255157750300,0.975750244140625,-0.34224003553390503,-0.5142349004745483,0.6596499681472778
1772556255167743500,0.985743408203125,-0.4371415376663208,-0.5310510993003845,0.6888408660888672
1772556255177735400,0.9957353515625,-0.4883248507976532,-0.5272520780563354,0.736588180065155
1772556255187728400,1.005728271484375,-0.501831591129303,-0.469089537858963,0.8205891251564026
1772556255197720600,1.015720458984375,-0.4814174175262451,-0.36633172631263733,0.9143238663673401
1772556255207713300,1.02571337890625,-0.43725648522377014,-0.3093264102935791,0.9691554307937622
1772556255217705500,1.03570556640625,-0.4400072395801544,-0.33829253911972046,0.933978796005249
1772556255227698700,1.04569873046875,-0.47918906807899475,-0.4799645245075226,0.8255465030670166
1772556255237690400,1.0556904296875,-0.5387413501739502,-0.6283135414123535,0.6637985706329346
1772556255247683600,1.06568359375,-0.5601640343666077,-0.7813622355461121,0.5054879784584045
1772556255257675500,1.075675537109375,-0.44828176498413086,-0.8801053166389465,0.41194045543670654
1772556255267668500,1.08566845703125,-0.18642346560955048,-0.8364688754081726,0.4451264441013336
1772556255277660400,1.095660400390625,0.11795374751091003,-0.5332804918289185,0.5240260362625122
1772556255287653400,1.1056533203125,0.18075348436832428,0.002328062430024147,0.16164161264896393
1772556255297645300,1.115645263671875,0.23225556313991547,0.584011971950531,-0.07555095851421356
1772556255307638500,1.125638427734375,0.22961105406284332,0.6769991517066956,-0.11230010539293289
1772556255317630500,1.13563037109375,0.20741093158721924,0.16528956592082977,-0.12770408391952515
1772556255327623400,1.14562353515625,0.09888205677270889,-0.5907216668128967,-0.3477990925312042
1772556255337615600,1.15561572265625,-0.032392341643571854,-1.596544861793518,-0.5664656162261963
1772556255347608300,1.1656083984375,-0.14314982295036316,-2.495541572570801,-0.5883151292800903
1772556255357600500,1.1756005859375,-0.276120662689209,-2.728653907775879,-0.3194189667701721
1772556255367593500,1.185593505859375,-0.19399157166481018,-2.4747157096862793,0.09204482287168503
1772556255377585400,1.19558544921875,0.06064604967832565,-1.809386134147644,0.5617750287055969
1772556255387578400,1.205578369140625,0.20338517427444458,-1.3314225673675537,0.9116443991661072
1772556255397570300,1.2155703125,0.1602156013250351,-1.254563570022583,1.0828948020935059
1772556255407563500,1.2255634765625,-0.06063489988446236,-1.433068871498108,0.9314681887626648
1772556255417555500,1.235555419921875,-0.4698948562145233,-1.6844630241394043,0.2516563832759857
1772556255427548400,1.24554833984375,-0.8015808463096619,-1.724944829940796,-0.6324448585510254
1772556255437540600,1.25554052734375,-0.9075450897216797,-1.3998517990112305,-1.2931450605392456
1772556255447533300,1.265533203125,-0.7948009967803955,-0.7375641465187073,-1.5968689918518066
1772556255457525500,1.275525390625,-0.570605456829071,-0.03692799434065819,-1.5860469341278076
1772556255467518200,1.285518310546875,-0.3447544276714325,0.4359689950942993,-1.3595865964889526
1772556255477510400,1.295510498046875,-0.22148869931697845,0.6473187804222107,-1.0734992027282715
1772556255487503600,1.305503662109375,-0.23118726909160614,0.5541549921035767,-0.850973904132843
1772556255497495300,1.315495361328125,-0.29262933135032654,0.25222551822662354,-0.7205458879470825
1772556255507488500,1.325488525390625,-0.32247787714004517,-0.03453350067138672,-0.6429938673973083
1772556255517480400,1.33548046875,-0.3028125762939453,-0.11823585629463196,-0.5658082365989685
1772556255527473400,1.345473388671875,-0.2630316913127899,0.08765445649623871,-0.44268158078193665
1772556255537465300,1.35546533203125,-0.19464649260044098,0.45338955521583557,-0.29521968960762024
1772556255547458300,1.365458251953125,-0.09562551230192184,0.8218527436256409,-0.14375899732112885
1772556255557450500,1.375450439453125,0.029112692922353745,1.0840905904769897,-0.01905675046145916
1772556255567443500,1.385443359375,0.14857889711856842,1.1461529731750488,0.07043915241956711
1772556255577435400,1.395435302734375,0.22356419265270233,1.0020837783813477,0.08761574327945709
1772556255587428400,1.405428466796875,0.2594708502292633,0.7154632210731506,0.05752754956483841
1772556255597420500,1.415420654296875,0.2753526270389557,0.4340275228023529,0.03333219885826111
1772556255607413500,1.42541357421875,0.2917334735393524,0.3137836456298828,0.049937084317207336
1772556255617405400,1.435405517578125,0.3059704601764679,0.3082005977630615,0.0775093287229538
1772556255627398400,1.4453984375,0.32023999094963074,0.3478473722934723,0.06865841150283813
1772556255637390300,1.455390380859375,0.35500916838645935,0.41910770535469055,0.011627351865172386
1772556255647383600,1.465383544921875,0.40016698837280273,0.5492388010025024,-0.06407880038022995
1772556255657376800,1.475376708984375,0.42970624566078186,0.7254878878593445,-0.13385441899299622
1772556255667369700,1.48536962890625,0.43380844593048096,0.8983712196350098,-0.1551065593957901
1772556255677361700,1.495361572265625,0.4092745780944824,1.0171804428100586,-0.12639182806015015
1772556255687355000,1.50535498046875,0.3505813479423523,1.061724305152893,-0.07584775984287262
1772556255697346600,1.5153466796875,0.26097607612609863,1.052912950515747,-0.061497047543525696
1772556255707339800,1.52533984375,0.16210044920444489,1.0106909275054932,-0.10375820100307465
1772556255717332000,1.53533203125,0.07990357279777527,0.9787699580192566,-0.17580203711986542
1772556255727324700,1.54532470703125,0.028150826692581177,1.014872670173645,-0.30222639441490173
1772556255737316900,1.55531689453125,0.01039127167314291,1.1412303447723389,-0.4855663776397705
1772556255747309600,1.5653095703125,0.02898026630282402,1.3318754434585571,-0.6442999839782715
1772556255757301800,1.5753017578125,0.061256974935531616,1.5037747621536255,-0.7684291005134583
1772556255767295000,1.585294921875,0.09601935744285583,1.5617625713348389,-0.9355708956718445
1772556255777286700,1.59528662109375,0.15688617527484894,1.4069050550460815,-1.1877243518829346
1772556255787280000,1.60527978515625,0.2508859634399414,1.153445839881897,-1.385845422744751
1772556255797271800,1.615271728515625,0.4558361768722534,1.017147421836853,-1.360384225845337
1772556255807264800,1.6252646484375,0.6228949427604675,0.6718614101409912,-1.1520817279815674
1772556255817256700,1.635256591796875,0.4651694893836975,-0.3063136637210846,-1.0526808500289917
1772556255827249700,1.645249755859375,0.09694353491067886,-1.6963343620300293,-1.2318713665008545
1772556255837241900,1.655241943359375,-0.18806502223014832,-2.9693901538848877,-1.3825684785842896
1772556255847234800,1.66523486328125,-0.3184543251991272,-3.585636615753174,-1.092376947402954
1772556255857226800,1.675226806640625,-0.16257819533348083,-3.1204898357391357,-0.2744477689266205
1772556255867219700,1.6852197265625,0.21913330256938934,-1.696226716041565,0.7226223349571228
1772556255877212000,1.6952119140625,0.5584948658943176,-0.6593707203865051,1.1566909551620483
1772556255887204900,1.705204833984375,0.6237895488739014,-0.3805399537086487,0.7839301824569702
1772556255897196800,1.71519677734375,0.46676313877105713,-0.3490009307861328,0.16323649883270264
1772556255907189800,1.725189697265625,0.34916889667510986,-0.2164115011692047,-0.3586401641368866
1772556255917181700,1.735181640625,0.3383881747722626,-0.08637920022010803,-0.8973012566566467
1772556255927175000,1.7451748046875,0.35257190465927124,-0.11454769968986511,-1.365653157234192
1772556255937166600,1.75516650390625,0.38261181116104126,-0.1418887823820114,-1.5210832357406616
1772556255947159800,1.765159912109375,0.4395441710948944,-0.1502804011106491,-1.371591329574585
1772556255957152000,1.775152099609375,0.4889463484287262,-0.1480550616979599,-1.0937312841415405
1772556255967144700,1.785144775390625,0.4450056254863739,-0.019885394722223282,-0.8518447875976562
1772556255977137000,1.795136962890625,0.2667323052883148,0.17344865202903748,-0.7988268733024597
1772556255987129600,1.805129638671875,0.05181887000799179,0.3318311274051666,-0.9428087472915649
1772556255997121800,1.815121826171875,-0.05469531938433647,0.43494606018066406,-1.097259283065796
1772556256007115000,1.825114990234375,-0.0050820354372262955,0.48316654562950134,-1.1292500495910645
1772556256017106700,1.835106689453125,0.08903993666172028,0.4384180009365082,-1.0573925971984863
1772556256027100000,1.845099853515625,0.18318182229995728,0.38933566212654114,-0.8511951565742493
1772556256037091800,1.855091796875,0.2649323344230652,0.3342718780040741,-0.5487745404243469
1772556256047084800,1.865084716796875,0.29259786009788513,0.21682731807231903,-0.23020386695861816
1772556256057076700,1.87507666015625,0.2612205147743225,0.08685973286628723,0.042003143578767776
1772556256067069700,1.885069580078125,0.2342715859413147,-0.021306946873664856,0.2466926872730255
1772556256077062000,1.895061767578125,0.24523422122001648,-0.06630504876375198,0.39988356828689575
1772556256087054800,1.905054931640625,0.2779340147972107,-0.03040408343076706,0.47069746255874634
1772556256097046800,1.915046875,0.30039405822753906,0.049713388085365295,0.44169723987579346
1772556256107039700,1.925039794921875,0.3013419508934021,0.18530184030532837,0.35545381903648376
1772556256117032000,1.935031982421875,0.2715616822242737,0.40242695808410645,0.27080950140953064
1772556256127025000,1.94502490234375,0.20215705037117004,0.618004560470581,0.22179870307445526
1772556256137016800,1.955016845703125,0.12674538791179657,0.7603628039360046,0.23479093611240387
1772556256147009800,1.965009765625,0.03300663083791733,0.8192505836486816,0.276237815618515
1772556256157001700,1.975001708984375,-0.13698667287826538,0.776264488697052,0.28394633531570435
1772556256166994700,1.98499462890625,-0.3489086329936981,0.6746997833251953,0.27501535415649414
1772556256176986600,1.994986572265625,-0.5678308606147766,0.6119397282600403,0.2557772099971771
1772556256186979800,2.004979736328125,-0.651313841342926,0.6458039879798889,0.2419973760843277
1772556256196971800,2.0149716796875,-0.581387996673584,0.7617345452308655,0.28493738174438477
1772556256206964700,2.02496484375,-0.4135149419307709,0.9065577983856201,0.45637133717536926
1772556256216957000,2.03495703125,-0.2796708643436432,1.0872544050216675,0.6899015307426453
1772556256226949600,2.04494970703125,-0.1713382601737976,1.1998988389968872,0.9235390424728394
1772556256236941800,2.05494189453125,-0.09313612431287766,1.2151461839675903,1.094861626625061
1772556256246934800,2.064934814453125,-0.060009926557540894,1.1201605796813965,1.146597146987915
1772556256256926700,2.0749267578125,-0.029526052996516228,1.0129531621932983,1.1063905954360962
1772556256266920000,2.084919921875,0.03330417349934578,0.9531298279762268,1.029333233833313
1772556256276911600,2.09491162109375,0.11895782500505447,0.9193329811096191,0.9648575782775879
1772556256286904800,2.10490478515625,0.21095019578933716,0.6660879254341125,0.8878925442695618
1772556256296896800,2.114896728515625,0.2591424882411957,-0.014448257163167,0.7669895887374878
1772556256306889700,2.1248896484375,0.2772136330604553,-0.9721130728721619,0.6861769556999207
1772556256316882000,2.1348818359375,0.29286104440689087,-2.0735907554626465,0.6261529922485352
1772556256326874600,2.14487451171875,0.0650848001241684,-2.765399694442749,0.22719645500183105
1772556256336866800,2.15486669921875,-0.2840007543563843,-2.93544864654541,-0.18701112270355225
1772556256346859800,2.16485986328125,-0.5437684655189514,-2.3879504203796387,-0.11836487799882889
1772556256356851700,2.174851806640625,-0.6964014172554016,-1.179231882095337,0.12199526280164719
1772556256366845000,2.184844970703125,-0.564540684223175,-0.022818325087428093,0.20786353945732117
1772556256376836900,2.1948369140625,-0.16773313283920288,0.5040239095687866,0.034675247967243195
1772556256386829800,2.204829833984375,-0.03613355755805969,0.264904260635376,-0.40840843319892883
1772556256396821800,2.21482177734375,-0.09103568643331528,-0.41467317938804626,-0.8416382074356079
1772556256406814700,2.224814697265625,-0.036726053804159164,-1.0178288221359253,-1.1811511516571045
1772556256416806700,2.234806640625,0.09882591664791107,-1.23326575756073,-1.4121711254119873
1772556256426799900,2.2447998046875,0.14596766233444214,-1.2046020030975342,-1.540950894355774
1772556256436791800,2.254791748046875,0.025968294590711594,-0.8442295789718628,-1.7155195474624634
1772556256446784800,2.26478466796875,-0.19604691863059998,-0.3010541796684265,-2.0835578441619873
1772556256456777000,2.27477685546875,-0.48815226554870605,0.21721398830413818,-2.5378003120422363
1772556256466769700,2.284769775390625,-0.8097519278526306,0.6774803400039673,-2.8257648944854736
1772556256476761900,2.294761962890625,-0.9384198784828186,1.0313297510147095,-2.837249279022217
1772556256486754800,2.3047548828125,-0.6134332418441772,0.9748427867889404,-2.579313278198242
1772556256496746800,2.314746826171875,-0.23514880239963531,0.6422459483146667,-2.0030832290649414
1772556256506740000,2.324739990234375,-0.026906175538897514,0.19745118916034698,-1.1041268110275269
1772556256516731600,2.334731689453125,0.048686057329177856,-0.19504256546497345,-0.18790648877620697
1772556256526724900,2.344724853515625,0.0517612062394619,-0.45020508766174316,0.42378804087638855
1772556256536716800,2.354716796875,0.014443928375840187,-0.588742196559906,0.6297335028648376
1772556256546709800,2.364709716796875,-0.009503679350018501,-0.6073557734489441,0.5022445917129517
1772556256556702000,2.374701904296875,0.06968142092227936,-0.4911418557167053,0.16140128672122955
1772556256566694700,2.384694580078125,0.18612466752529144,-0.3368249833583832,-0.25104114413261414
1772556256576686800,2.394686767578125,0.2699444890022278,-0.2032698541879654,-0.6006143093109131
1772556256586679800,2.4046796875,0.30210939049720764,-0.0678425058722496,-0.7705729007720947
1772556256596671700,2.414671630859375,0.2891469895839691,0.07946465164422989,-0.7274315357208252
1772556256606665000,2.4246650390625,0.22781825065612793,0.1896534413099289,-0.5603176951408386
1772556256616657000,2.434656982421875,0.13257376849651337,0.2721240818500519,-0.3607665002346039
1772556256626649900,2.44464990234375,0.020775988698005676,0.26763907074928284,-0.16549290716648102
1772556256636641800,2.454641845703125,-0.08183134347200394,0.20035402476787567,0.008720966055989265
1772556256646634800,2.464634765625,-0.155151829123497,0.12316710501909256,0.15397261083126068
1772556256656626700,2.474626708984375,-0.18376031517982483,0.05475476384162903,0.2504059374332428
1772556256666618000,2.4846181640625,-0.18803972005844116,0.03134213387966156,0.31816864013671875
1772556256676611000,2.494611083984375,-0.16860343515872955,0.09277807176113129,0.33166953921318054
1772556256686603300,2.504603271484375,-0.1239536926150322,0.24913917481899261,0.310439795255661
1772556256696596200,2.51459619140625,-0.09763872623443604,0.40080487728118896,0.2802528738975525
1772556256706588200,2.524588134765625,-0.08928732573986053,0.4975191056728363,0.3050680458545685
1772556256716581000,2.5345810546875,-0.08205205202102661,0.5316144824028015,0.4118618667125702
1772556256726573300,2.5445732421875,-0.06340533494949341,0.5200582146644592,0.56399005651474
1772556256736566300,2.554566162109375,-0.05311807617545128,0.44975370168685913,0.6725252866744995
1772556256746558200,2.56455810546875,-0.03606606647372246,0.4146098494529724,0.7264569997787476
1772556256756551200,2.57455126953125,0.0016709249466657639,0.4369191527366638,0.7303606867790222
1772556256766543000,2.584543212890625,0.06989733874797821,0.4193742573261261,0.6779783368110657
1772556256776536300,2.594536376953125,0.18862052261829376,0.38676759600639343,0.6094437837600708
1772556256786528000,2.604528076171875,0.2749233841896057,0.3232349157333374,0.5516486167907715
1772556256796521200,2.614521240234375,0.33157122135162354,0.250789999961853,0.5347878932952881
1772556256806513400,2.624513427734375,0.3948653042316437,0.09192796796560287,0.5046705007553101
1772556256816506000,2.634506103515625,0.5299578905105591,-0.2541612684726715,0.42854052782058716
1772556256826498300,2.644498291015625,0.6796402931213379,-0.9414767622947693,0.3214402496814728
1772556256836491000,2.654490966796875,0.7578852772712708,-1.64053475856781,0.3637791872024536
1772556256846483200,2.664483154296875,0.8020065426826477,-1.7266489267349243,0.725091278553009
1772556256856476400,2.674476318359375,0.7176759839057922,-1.1853952407836914,1.1796423196792603
1772556256866468000,2.684468017578125,0.7382376790046692,-0.4507867097854614,1.4015613794326782
1772556256876461300,2.69446142578125,0.8351221084594727,0.1311083734035492,1.1067742109298706
1772556256886453200,2.704453369140625,0.7279210090637207,0.21574415266513824,0.29282882809638977
1772556256896446200,2.7144462890625,0.44920414686203003,0.14698612689971924,-0.5080254673957825
1772556256906438100,2.724438232421875,0.2052735835313797,0.20307497680187225,-0.7780636548995972
1772556256916431000,2.73443115234375,0.09682728350162506,0.30793696641921997,-0.6194979548454285
1772556256926423300,2.74442333984375,0.04988519847393036,0.1976996511220932,-0.3065500259399414
1772556256936416300,2.754416259765625,0.00106040108948946,-0.16827993094921112,-0.008586790412664413
1772556256946408200,2.764408203125,-0.11223099380731583,-0.5885528922080994,0.14943842589855194
1772556256956401200,2.774401123046875,-0.2790844440460205,-0.7850009202957153,0.18630722165107727
1772556256966393300,2.784393310546875,-0.38186705112457275,-0.5347250699996948,0.14948713779449463
1772556256976386300,2.79438623046875,-0.3483562469482422,0.033991944044828415,0.034848444163799286
1772556256986378200,2.804378173828125,-0.19275133311748505,0.5504075884819031,-0.12863028049468994
1772556256996371200,2.81437109375,0.0360536091029644,0.7826815843582153,-0.2562904953956604
1772556257006363100,2.824363037109375,0.24975238740444183,0.6842877268791199,-0.222635418176651
1772556257016356400,2.8343564453125,0.3530785143375397,0.2846558690071106,-0.08475637435913086
1772556257026348000,2.84434814453125,0.35218775272369385,-0.24851486086845398,0.12548479437828064
1772556257036341200,2.85434130859375,0.324531614780426,-0.637976348400116,0.38536536693573
1772556257046333400,2.86433349609375,0.3172398805618286,-0.8683871626853943,0.5224760174751282
1772556257056326100,2.874326171875,0.34772348403930664,-0.9961882829666138,0.5061702728271484
1772556257066318300,2.884318359375,0.4101314842700958,-1.0468080043792725,0.3950340449810028
1772556257076311000,2.89431103515625,0.485404908657074,-1.0385860204696655,0.2269347906112671
1772556257086303200,2.90430322265625,0.5071879029273987,-1.0189255475997925,0.04819735884666443
1772556257096296200,2.914296142578125,0.46670785546302795,-0.9871375560760498,-0.10792060196399689
1772556257106288000,2.9242880859375,0.3991626501083374,-0.8801657557487488,-0.22759981453418732
1772556257116281300,2.93428125,0.32277625799179077,-0.6809277534484863,-0.32390931248664856
1772556257126273300,2.944273193359375,0.226819708943367,-0.41925573348999023,-0.3992128074169159
1772556257136266200,2.954266357421875,0.10762619227170944,-0.1592819094657898,-0.4553722143173218
1772556257146258200,2.964258056640625,-0.018341317772865295,0.05786559358239174,-0.46531471610069275
1772556257156251100,2.974251220703125,-0.1075766533613205,0.20241132378578186,-0.4013325273990631
1772556257166243300,2.984243408203125,-0.16248038411140442,0.269124835729599,-0.2795715630054474
1772556257176236000,2.994236083984375,-0.19298982620239258,0.2391645312309265,-0.142070934176445
1772556257186228200,3.004228271484375,-0.21714003384113312,0.170647531747818,-0.020996328443288803
1772556257196221200,3.01422119140625,-0.2593359649181366,0.1493249386548996,0.08161766827106476
1772556257206213000,3.024213134765625,-0.29757368564605713,0.15777353942394257,0.1700538694858551
1772556257216205000,3.034205078125,-0.35168832540512085,0.19751881062984467,0.24005186557769775
1772556257226198300,3.0441982421875,-0.3998270332813263,0.275469571352005,0.2869845926761627
1772556257236190200,3.054190185546875,-0.40803784132003784,0.37785372138023376,0.31630411744117737
1772556257246183200,3.06418310546875,-0.3902081549167633,0.48404645919799805,0.32270318269729614
1772556257256175400,3.07417529296875,-0.3348090648651123,0.4782184064388275,0.28352195024490356
1772556257266168000,3.08416796875,-0.3987901210784912,0.31376954913139343,0.22944402694702148
1772556257276160300,3.09416015625,-0.617212176322937,0.007751283701509237,0.13906672596931458
1772556257286153000,3.104153076171875,-0.813260555267334,-0.23741880059242249,-0.04318057745695114
1772556257296145200,3.114145263671875,-1.0076191425323486,-0.2564622461795807,-0.07556115835905075
1772556257306138400,3.124138427734375,-1.1066396236419678,-0.18756814301013947,0.14581692218780518
1772556257316130000,3.134130126953125,-1.0458893775939941,-0.21284154057502747,0.601159930229187
1772556257326123300,3.144123291015625,-0.7885629534721375,-0.6654306054115295,1.0534306764602661
1772556257336115200,3.154115234375,-0.36497411131858826,-1.5926234722137451,1.2612028121948242
1772556257346108200,3.164108154296875,-0.08008703589439392,-2.7682929039001465,1.3532962799072266
1772556257356100000,3.17410009765625,-0.10379369556903839,-3.1623694896698,1.5655517578125
1772556257366093000,3.184093017578125,-0.1931052803993225,-2.163344144821167,2.0167722702026367
1772556257376085200,3.194085205078125,-0.12132696807384491,-0.8183192014694214,2.2250757217407227
1772556257386078200,3.204078125,0.13426779210567474,0.35440802574157715,1.9042590856552124
1772556257396070100,3.214070068359375,0.4346523880958557,0.9307237863540649,1.040915846824646
1772556257406063000,3.22406298828125,0.423138827085495,0.7079847455024719,-0.014305888675153255
1772556257416055300,3.23405517578125,0.32769617438316345,0.39548835158348083,-0.7779347896575928
1772556257426048300,3.24404833984375,0.3345909118652344,0.24043644964694977,-1.1386464834213257
1772556257436040200,3.254040283203125,0.3276826739311218,0.09820208698511124,-1.2365453243255615
1772556257446033200,3.264033203125,0.25828808546066284,-0.11321216821670532,-1.229249358177185
1772556257456025000,3.274025146484375,0.1916898638010025,-0.2316080629825592,-1.1395889520645142
1772556257466018300,3.284018310546875,0.17149019241333008,-0.18268097937107086,-1.0115163326263428
1772556257476010000,3.294010009765625,0.20411817729473114,-0.018277917057275772,-0.9302526116371155
1772556257486003200,3.304003173828125,0.2273804247379303,0.13602322340011597,-0.913784921169281
1772556257495995400,3.313995361328125,0.2554418742656708,0.17872540652751923,-0.9290192723274231
1772556257505988000,3.323988037109375,0.3527601659297943,0.2801332473754883,-0.9756882786750793
1772556257515980300,3.333980224609375,0.5206828713417053,0.4723069667816162,-1.0285773277282715
1772556257525973000,3.343972900390625,0.6522400975227356,0.7139752507209778,-1.0472115278244019
1772556257535965200,3.353965087890625,0.6992071270942688,0.9322769641876221,-1.0430164337158203
1772556257545958400,3.36395849609375,0.6685373783111572,1.0605204105377197,-1.044283151626587
1772556257555950000,3.3739501953125,0.600261926651001,0.9862033128738403,-1.0436525344848633
1772556257565943300,3.383943359375,0.5269197821617126,0.7267738580703735,-1.0143083333969116
1772556257575935200,3.393935302734375,0.4558229148387909,0.36995452642440796,-0.954521894454956
1772556257585928200,3.40392822265625,0.37278756499290466,-0.021550405770540237,-0.8806226849555969
1772556257595920100,3.413920166015625,0.26690053939819336,-0.4890776574611664,-0.8268057703971863
1772556257605913000,3.4239130859375,0.13550342619419098,-1.0259089469909668,-0.7881707549095154
1772556257615905300,3.4339052734375,-0.03473248332738876,-1.5241221189498901,-0.7394018769264221
1772556257625898200,3.443898193359375,-0.2125503420829773,-1.751929521560669,-0.6592667102813721
1772556257635890200,3.45389013671875,-0.3821689486503601,-1.6278245449066162,-0.5467782020568848
1772556257645882000,3.463882080078125,-0.5338621139526367,-1.2969284057617188,-0.42679521441459656
1772556257655875300,3.473875244140625,-0.6600749492645264,-0.9033382534980774,-0.3219641447067261
1772556257665866500,3.483866455078125,-0.7727792263031006,-0.6338939666748047,-0.2570277154445648
1772556257675859700,3.493859619140625,-0.9027934670448303,-0.41735023260116577,-0.18760550022125244
1772556257685851600,3.5038515625,-1.0373692512512207,-0.1488114297389984,-0.06092005595564842
1772556257695844600,3.5138447265625,-1.1571142673492432,0.17018359899520874,0.12197946012020111
1772556257705836800,3.5238369140625,-1.314279556274414,0.5642619132995605,0.3746210038661957
1772556257715829500,3.53382958984375,-1.5303494930267334,1.0408869981765747,0.6847114562988281
1772556257725821700,3.54382177734375,-1.6791791915893555,1.2974998950958252,0.9632865190505981
1772556257735814700,3.553814697265625,-1.6532905101776123,1.1862599849700928,1.1145827770233154
1772556257745806600,3.563806640625,-1.4417904615402222,0.948124349117279,1.1485408544540405
1772556257755799800,3.5737998046875,-1.202406644821167,0.8173282742500305,1.203477382659912
1772556257765791700,3.583791748046875,-0.9424640536308289,0.9468899965286255,1.297554612159729
1772556257775784700,3.59378466796875,-0.5743366479873657,1.3905670642852783,1.3812934160232544
1772556257785776600,3.603776611328125,0.19954165816307068,2.1647756099700928,1.4428367614746094
1772556257795769600,3.61376953125,0.9633969664573669,3.183643102645874,1.660861849784851
1772556257805761500,3.623761474609375,1.0995558500289917,3.6177728176116943,1.7999688386917114
1772556257815754800,3.633754638671875,0.6911853551864624,3.6517484188079834,1.7979083061218262
1772556257825746400,3.643746337890625,0.21091389656066895,1.684848427772522,2.542526960372925
1772556257835739600,3.65373974609375,0.36746835708618164,0.49838703870773315,3.1275691986083984
1772556257845731800,3.66373193359375,0.3800228238105774,0.08213016390800476,3.5235602855682373
1772556257855724500,3.673724609375,0.0568157322704792,-0.3477272093296051,3.751460552215576
1772556257865716700,3.683716796875,-0.2244124859571457,-0.5301771759986877,3.649266242980957
1772556257875709700,3.693709716796875,-0.2524757981300354,-0.622580885887146,3.3773975372314453
1772556257885701600,3.70370166015625,-0.26114732027053833,-0.5016158223152161,2.9781317710876465
1772556257895694800,3.71369482421875,-0.18232068419456482,0.06412266939878464,2.409821033477783
1772556257905686500,3.7236865234375,0.0579339936375618,0.7867026925086975,1.5676625967025757
1772556257915679700,3.7336796875,0.11088962107896805,1.08815336227417,0.5559531450271606
1772556257925671700,3.743671630859375,0.07900679856538773,1.2043873071670532,-0.39517128467559814
1772556257935664600,3.75366455078125,0.046085331588983536,1.1999331712722778,-1.1546683311462402
1772556257945656600,3.763656494140625,-0.10412527620792389,1.0047024488449097,-1.7311911582946777
1772556257955649500,3.7736494140625,-0.25035360455513,0.7643318772315979,-2.1735382080078125
1772556257965641700,3.783641845703125,-0.2565152645111084,0.7403000593185425,-2.524661064147949
1772556257975633700,3.793633544921875,-0.03892330825328827,0.8736793994903564,-2.817434549331665
1772556257985626600,3.803626708984375,0.17947182059288025,1.0268279314041138,-3.0017130374908447
1772556257995618600,3.81361865234375,0.40134483575820923,1.281283974647522,-2.974860906600952
1772556258005611800,3.82361181640625,0.5627114176750183,1.3799798488616943,-2.6949896812438965
1772556258015603500,3.833603515625,0.5127704739570618,1.19620680809021,-2.2024693489074707
1772556258025596700,3.8435966796875,0.32930952310562134,0.9842562675476074,-1.6627309322357178
1772556258035588900,3.8535888671875,0.19153514504432678,0.8204628229141235,-1.1438097953796387
1772556258045581600,3.86358154296875,0.2528097629547119,0.9456012845039368,-0.6227850914001465
1772556258055573800,3.87357373046875,0.52463299036026,0.7364068031311035,-0.2157219648361206
1772556258065566500,3.88356640625,0.6899235844612122,0.455352246761322,0.08619990199804306
1772556258075558700,3.89355859375,0.7176457643508911,0.14395681023597717,0.28001970052719116
1772556258085551600,3.903551513671875,0.7987565398216248,-0.043791551142930984,0.27382692694664
1772556258095543600,3.91354345703125,0.6145134568214417,-0.10133979469537735,0.20193621516227722
1772556258105536800,3.923536865234375,0.2870734632015228,-0.1831936538219452,0.07282408326864243
1772556258115528700,3.93352880859375,0.028395548462867737,-0.4567732810974121,-0.09935087710618973
1772556258125521700,3.943521728515625,-0.10186072438955307,-0.7009305357933044,-0.27713897824287415
1772556258135513600,3.953513671875,-0.29772475361824036,-0.8768584132194519,-0.4369843006134033
1772556258145506600,3.963506591796875,-0.4487387239933014,-0.8894314765930176,-0.563110888004303
1772556258155498800,3.973498779296875,-0.4908944368362427,-0.951192319393158,-0.7117416262626648
1772556258165491500,3.983491455078125,-0.5747158527374268,-0.9859063625335693,-0.8490510582923889
1772556258175483600,3.993483642578125,-0.6714937686920166,-0.8768144845962524,-0.9621951580047607
1772556258185476600,4.0034765625,-0.760330319404602,-0.6399713158607483,-1.039563536643982
1772556258195468500,4.013468505859375,-0.8498170375823975,-0.39626652002334595,-1.0686482191085815
1772556258205461800,4.023461669921875,-0.8954485058784485,-0.22359246015548706,-1.0145118236541748
1772556258215453700,4.03345361328125,-0.8894667625427246,-0.043027736246585846,-0.8600114583969116
1772556258225446700,4.04344677734375,-0.840152382850647,-0.031817711889743805,-0.5468220114707947
1772556258235438600,4.0534384765625,-0.785230278968811,-0.1917184293270111,-0.16064554452896118
1772556258245431600,4.063431640625,-0.7066288590431213,-0.26975730061531067,0.28161725401878357
1772556258255423500,4.073423583984375,-0.6808731555938721,-0.29226449131965637,0.6465534567832947
1772556258265416700,4.083416748046875,-0.7897483110427856,-0.28504541516304016,0.8551318645477295
1772556258275408600,4.09340869140625,-0.7886143326759338,-0.194660946726799,0.942000687122345
1772556258285400600,4.103400634765625,-0.6645554304122925,-0.31830060482025146,0.9125270843505859
1772556258295393800,4.113393798828125,-0.6252498626708984,-0.4706387519836426,0.8602764010429382
1772556258305385500,4.123385498046875,-0.5936064124107361,-0.493769109249115,0.8854796886444092
1772556258315378700,4.133378662109375,-0.29878005385398865,-0.6068077683448792,0.9620916843414307
1772556258325370600,4.14337060546875,-0.060742855072021484,-0.5514262914657593,0.711658775806427
1772556258335363600,4.153363525390625,-0.043004073202610016,-0.3779623508453369,-0.09872572869062424
1772556258345355800,4.163355712890625,-0.133406862616539,-0.24067318439483643,-1.1896986961364746
1772556258355348500,4.173348388671875,-0.08594746887683868,-0.23976796865463257,-1.9775855541229248
1772556258365340700,4.183340576171875,0.11176268011331558,0.13998042047023773,-2.1828041076660156
1772556258375333600,4.193333740234375,0.3753402531147003,1.084854006767273,-1.7937654256820679
1772556258385325600,4.20332568359375,0.5264929533004761,2.0337073802948,-1.1340327262878418
1772556258395318800,4.21331884765625,0.7459810972213745,2.489990234375,-0.5367733240127563
1772556258405310700,4.223310791015625,0.8857038617134094,2.315298080444336,-0.14317791163921356
1772556258415303700,4.2333037109375,0.7265464067459106,1.5690853595733643,0.04000655934214592
1772556258425295600,4.243295654296875,0.4303688108921051,0.6044516563415527,0.033623337745666504
1772556258435288600,4.25328857421875,0.10064870119094849,-0.051076095551252365,-0.12860684096813202
1772556258445280500,4.263280517578125,-0.23156267404556274,-0.34999915957450867,-0.39066240191459656
1772556258455273700,4.273273681640625,-0.49209439754486084,-0.5077317953109741,-0.5969803929328918
1772556258465265700,4.283265625,-0.6147648692131042,-0.6356556415557861,-0.6281967759132385
1772556258475258600,4.293258544921875,-0.6356155276298523,-0.6323261857032776,-0.48156312108039856
1772556258485250800,4.303250732421875,-0.6256353259086609,-0.5174933671951294,-0.2271021008491516
1772556258495243500,4.313243408203125,-0.6053921580314636,-0.38845759630203247,0.04137277230620384
1772556258505235700,4.323235595703125,-0.48010095953941345,-0.2258622944355011,0.28999119997024536
1772556258515228700,4.333228759765625,-0.30192750692367554,-0.05568442866206169,0.5056002140045166
1772556258525220600,4.343220703125,-0.19173842668533325,0.12596525251865387,0.6451745629310608
1772556258535212800,4.353212890625,-0.13677318394184113,0.22032611072063446,0.7332963943481445
1772556258545205500,4.36320556640625,-0.11881221830844879,0.12868034839630127,0.8096281886100769
1772556258555197700,4.37319775390625,-0.13316665589809418,0.029254697263240814,0.8457396030426025
1772556258565190700,4.383190673828125,-0.17539168894290924,-0.029047753661870956,0.9028037786483765
1772556258575182600,4.3931826171875,-0.2505894899368286,-0.06908891350030899,0.9720637798309326
1772556258585175800,4.40317578125,-0.34436991810798645,-0.15039390325546265,1.037285327911377
1772556258595167700,4.413167724609375,-0.4451540410518646,-0.24823151528835297,1.0331231355667114
1772556258605160700,4.42316064453125,-0.5348377227783203,-0.26651251316070557,0.9246712327003479
1772556258615152600,4.433152587890625,-0.6283868551254272,-0.24005241692066193,0.7075858116149902
1772556258625145600,4.4431455078125,-0.7080817818641663,-0.19333763420581818,0.4054979979991913
1772556258635137500,4.453137451171875,-0.7709219455718994,-0.07137790322303772,0.03384748101234436
1772556258645130800,4.463130859375,-0.8084805011749268,0.1170753687620163,-0.3465423285961151
1772556258655122700,4.473122802734375,-0.7926618456840515,0.34710508584976196,-0.6580531001091003
1772556258665115600,4.48311572265625,-0.7386149168014526,0.5747504830360413,-0.8367465138435364
1772556258675107800,4.49310791015625,-0.6573544144630432,0.7646626830101013,-0.8603676557540894
1772556258685100800,4.503100830078125,-0.5466930866241455,0.8321402072906494,-0.7346916198730469
1772556258695092700,4.5130927734375,-0.4161718785762787,0.7730148434638977,-0.5101802349090576
1772556258705085700,4.523085693359375,-0.289968878030777,0.6182116866111755,-0.22113142907619476
1772556258715077600,4.53307763671875,-0.163978710770607,0.40752822160720825,0.08045559376478195
1772556258725070600,4.543070556640625,-0.04394376277923584,0.16078102588653564,0.3255542814731598
1772556258735062500,4.5530625,0.031165899708867073,-0.09658152610063553,0.4862249195575714
1772556258745055700,4.5630556640625,0.08352237194776535,-0.30241164565086365,0.5784148573875427
1772556258755047700,4.573047607421875,0.09727147221565247,-0.5617793202400208,0.6923981308937073
1772556258765040600,4.58304052734375,0.07142076641321182,-0.9986200332641602,0.8856354355812073
1772556258775032800,4.59303271484375,0.004183401353657246,-1.5468807220458984,1.1164071559906006
1772556258785024800,4.603024658203125,-0.07766445726156235,-2.088341236114502,1.2860928773880005
1772556258795017700,4.613017822265625,-0.15299490094184875,-2.6458218097686768,1.423991084098816
1772556258805009700,4.623009765625,-0.29341453313827515,-2.846130132675171,1.404364824295044
1772556258815002600,4.633002685546875,-0.3907589316368103,-2.1964919567108154,0.9626665711402893
1772556258824994800,4.642994873046875,-0.18686120212078094,-0.6954593658447266,-0.0021973755210638046
1772556258834987500,4.652987548828125,0.13768012821674347,1.033080816268921,-0.8675534725189209
1772556258844979700,4.662979736328125,0.4240418076515198,1.9258466958999634,-0.7861183285713196
1772556258854972700,4.67297265625,0.7635804414749146,2.1214723587036133,0.11789248883724213
1772556258864964600,4.682964599609375,0.8766883015632629,2.1687421798706055,0.8354978561401367
1772556258874957800,4.692957763671875,0.9625816345214844,1.8545498847961426,0.858104407787323
1772556258884949800,4.70294970703125,0.8491811752319336,1.6728439331054688,0.3252922296524048
1772556258894942700,4.712942626953125,0.6480893492698669,1.4540421962738037,-0.32918253540992737
1772556258904934700,4.7229345703125,0.45808911323547363,1.0758492946624756,-0.77553391456604
1772556258914927600,4.732927734375,0.18439631164073944,0.6729905009269714,-0.9760528802871704
1772556258924919600,4.74291943359375,-0.0636332631111145,0.28960558772087097,-0.9584169387817383
1772556258934912800,4.752912841796875,-0.24297745525836945,0.007369111757725477,-0.73414546251297
1772556258944904700,4.76290478515625,-0.29698774218559265,-0.12706539034843445,-0.4227718412876129
1772556258954897700,4.772897705078125,-0.1964113414287567,-0.06094656512141228,-0.1514657437801361
1772556258964889900,4.782889892578125,0.0012633760925382376,0.1311003863811493,-0.002562363864853978
1772556258974882600,4.792882568359375,0.23316505551338196,0.26414602994918823,0.044087693095207214
1772556258984874800,4.802874755859375,0.4755355715751648,0.3499722480773926,0.05765404924750328
1772556258994867700,4.81286767578125,0.696540892124176,0.44858378171920776,0.14220142364501953
1772556259004859600,4.822859619140625,0.815014123916626,0.5228838324546814,0.3285449743270874
1772556259014852900,4.832852783203125,0.8785861730575562,0.45010125637054443,0.5607848167419434
1772556259024844500,4.842844482421875,0.9072161912918091,0.22490648925304413,0.8039576411247253
1772556259034836700,4.852836669921875,0.8782042264938354,-0.14258071780204773,1.0232210159301758
1772556259044829700,4.86282958984375,0.7254927158355713,-0.5868545770645142,1.1650196313858032
1772556259054821600,4.872821533203125,0.4638778865337372,-1.0609649419784546,1.1849133968353271
1772556259064814800,4.88281494140625,0.21240398287773132,-1.4332135915756226,1.0796654224395752
1772556259074806800,4.892806884765625,0.027004560455679893,-1.5658552646636963,0.8212378025054932
1772556259084799700,4.9027998046875,-0.12554803490638733,-1.4359105825424194,0.5118341445922852
1772556259094791700,4.912791748046875,-0.22535692155361176,-1.139051914215088,0.17274315655231476
1772556259104784600,4.92278466796875,-0.25914424657821655,-0.8068042397499084,-0.1621425449848175
1772556259114776600,4.932776611328125,-0.22707125544548035,-0.48099949955940247,-0.4459276497364044
1772556259124769800,4.942769775390625,-0.14371970295906067,-0.2427813559770584,-0.6414332389831543
1772556259134761700,4.95276171875,-0.06620760262012482,-0.10686132311820984,-0.7114256620407104
1772556259144753700,4.962753662109375,-0.021213369444012642,0.011159589514136314,-0.6787892580032349
1772556259154747000,4.972746826171875,0.031839463859796524,0.06296872347593307,-0.5792917013168335
1772556259164738600,4.982738525390625,0.08918404579162598,0.08196718245744705,-0.4415585994720459
1772556259174731800,4.992731689453125,0.11472243070602417,0.13603095710277557,-0.28825268149375916
1772556259184723700,5.0027236328125,0.11899155378341675,0.2295803278684616,-0.1413639783859253
1772556259194716700,5.012716552734375,0.11181220412254333,0.2762138843536377,-0.007063428871333599
1772556259204708900,5.022708984375,0.08882668614387512,0.2542816996574402,0.11603134125471115
1772556259214701600,5.03270166015625,0.058230966329574585,0.172343447804451,0.23333346843719482
1772556259224693800,5.04269384765625,0.0352165549993515,0.0588512122631073,0.32711678743362427
1772556259234686700,5.052686767578125,0.029469450935721397,-0.0594613179564476,0.4151390790939331
1772556259244678700,5.0626787109375,0.05337871238589287,-0.19608813524246216,0.4950368404388428
1772556259254672000,5.072671875,0.09012607485055923,-0.3934832513332367,0.5951786041259766
1772556259264663800,5.082663818359375,0.16005343198776245,-0.6177770495414734,0.7599225640296936
1772556259274656800,5.09265673828125,0.24536380171775818,-0.813636839389801,0.9661471247673035
1772556259284648700,5.102648681640625,0.27512088418006897,-0.9729761481285095,1.1107642650604248
1772556259294641700,5.1126416015625,0.1992386281490326,-1.0188653469085693,1.0445729494094849
1772556259304633600,5.122633544921875,0.09418001025915146,-0.929365873336792,0.7463244795799255
1772556259314626800,5.132626708984375,0.07478393614292145,-0.5299497246742249,0.46139097213745117
1772556259324618500,5.142618408203125,0.13917222619056702,0.15074759721755981,0.47668930888175964
1772556259334611700,5.15261181640625,0.26497676968574524,0.5949417948722839,1.0200862884521484
1772556259344604000,5.16260400390625,0.36724308133125305,0.7326586246490479,1.8428940773010254
1772556259354595600,5.172595703125,0.356601357460022,0.5302749276161194,2.1521124839782715
1772556259364588800,5.1825888671875,0.16637316346168518,0.28774723410606384,1.4987266063690186
1772556259374581800,5.192581787109375,0.06113490089774132,0.29455268383026123,-0.07626209408044815
1772556259384573700,5.20257373046875,0.016253110021352768,0.4764367341995239,-1.8188270330429077
1772556259394566700,5.212566650390625,0.00967217143625021,0.5155601501464844,-2.716193199157715
1772556259404558600,5.22255859375,0.0702163353562355,0.4007457196712494,-2.5643205642700195
1772556259414551800,5.2325517578125,0.08143250644207001,0.3806396424770355,-1.9827606678009033
1772556259424543700,5.242543701171875,0.04881079122424126,0.3543156087398529,-1.4894341230392456
1772556259434536700,5.25253662109375,0.014123383909463882,0.32320404052734375,-1.2173991203308105
1772556259444528600,5.262528564453125,-0.04671855270862579,0.30468976497650146,-1.0080233812332153
1772556259454520600,5.2725205078125,-0.12706132233142853,0.29120004177093506,-0.7605299949645996
1772556259464513800,5.282513671875,-0.18759316205978394,0.27730661630630493,-0.5046119689941406
1772556259474505700,5.292505615234375,-0.2120223343372345,0.3220791220664978,-0.35608455538749695
1772556259484498700,5.302498779296875,-0.1908974051475525,0.38086944818496704,-0.31814292073249817
1772556259494490600,5.31249072265625,-0.13308390974998474,0.32739531993865967,-0.2608759105205536
1772556259504483600,5.322483642578125,-0.02549699693918228,0.17989987134933472,-0.05746312811970711
1772556259514475500,5.3324755859375,0.0732937678694725,-0.014790520071983337,0.3094123303890228
1772556259524468700,5.34246875,0.1493605673313141,-0.19201749563217163,0.7540041208267212
1772556259534460700,5.352460693359375,0.19467371702194214,-0.3600267469882965,1.1114333868026733
1772556259544453600,5.36245361328125,0.18225865066051483,-0.5646424889564514,1.2476755380630493
1772556259554445800,5.37244580078125,0.12847691774368286,-0.7084004282951355,1.1504216194152832
1772556259564438500,5.3824384765625,0.06475700438022614,-0.5767718553543091,0.8934115767478943
1772556259574430700,5.3924306640625,0.032128483057022095,-0.21058398485183716,0.5774251222610474
1772556259584423700,5.402423583984375,0.012684622779488564,0.19677817821502686,0.2660626769065857
1772556259594415600,5.41241552734375,0.01506895013153553,0.45030418038368225,0.002940754871815443
1772556259604408800,5.422408935546875,0.031521011143922806,0.5575256943702698,-0.16683097183704376
1772556259614400500,5.432400390625,0.05626523867249489,0.5766679644584656,-0.18081256747245789
1772556259624392700,5.442392822265625,0.0741628110408783,0.5811032056808472,-0.06133735924959183
1772556259634385700,5.4523857421875,0.06362920999526978,0.5795133113861084,0.13965646922588348
1772556259644377600,5.462377685546875,0.04885765537619591,0.4806181490421295,0.36094844341278076
1772556259654370800,5.472370849609375,0.025921449065208435,0.3586539030075073,0.542039692401886
1772556259664362500,5.482362548828125,0.01388875488191843,0.25194743275642395,0.6422107219696045
1772556259674355200,5.492355224609375,0.043478336185216904,0.198518306016922,0.6586704254150391
1772556259684347400,5.502347412109375,0.08733280748128891,0.20057106018066406,0.6114386916160583
1772556259694340400,5.51234033203125,0.1407795250415802,0.21281521022319794,0.5151217579841614
1772556259704332300,5.522332275390625,0.2166072279214859,0.17008081078529358,0.4166848063468933
1772556259714325500,5.532325439453125,0.2872110903263092,0.0660681277513504,0.3637286424636841
1772556259724317400,5.5423173828125,0.34022340178489685,-0.055301181972026825,0.3665660321712494
1772556259734310400,5.552310302734375,0.3923504948616028,-0.1922537088394165,0.4277889132499695
1772556259744302300,5.56230224609375,0.43014246225357056,-0.2934218645095825,0.5211765170097351
1772556259754295300,5.57229541015625,0.4379340708255768,-0.325629860162735,0.6346966624259949
1772556259764287200,5.582287353515625,0.35483643412590027,-0.3198596239089966,0.7461126446723938
1772556259774280200,5.5922802734375,0.21504390239715576,-0.2905970811843872,0.7129517793655396
1772556259784272400,5.6022724609375,0.02885431982576847,-0.29212039709091187,0.307630330324173
1772556259794265300,5.612265380859375,-0.18815389275550842,-0.25140517950057983,-0.6611818075180054
1772556259804257300,5.62225732421875,-0.16756893694400787,-0.021218840032815933,-1.9340293407440186
1772556259814249200,5.632249267578125,-0.07342858612537384,0.16455475986003876,-2.599637985229492
1772556259824242400,5.642242431640625,-0.19187286496162415,0.3257686495780945,-2.120615243911743
1772556259834234000,5.652234130859375,-0.2044488489627838,0.5277838110923767,-1.1114312410354614
1772556259844227300,5.662227294921875,-0.11123354732990265,0.651871383190155,-0.5584313273429871
1772556259854219500,5.672219482421875,-0.037202201783657074,0.8875278830528259,-0.8178700804710388
1772556259864212200,5.682212158203125,0.0019454690627753735,1.099043846130371,-1.390540599822998
1772556259874204400,5.692204345703125,0.06332147866487503,1.1070330142974854,-1.63489830493927
1772556259884197000,5.702197021484375,0.17092424631118774,1.0300251245498657,-1.3417268991470337
1772556259894189300,5.712189208984375,0.2806965410709381,0.9031944274902344,-0.8013275265693665
1772556259904182500,5.7221826171875,0.3343956470489502,0.688478410243988,-0.3353492319583893
1772556259914174200,5.73217431640625,0.3325338363647461,0.40808406472206116,-0.09485112130641937
1772556259924167400,5.74216748046875,0.300774484872818,0.10244667530059814,-0.07872147113084793
1772556259934159400,5.752159423828125,0.24212102591991425,-0.20875993371009827,-0.19478602707386017
1772556259944152300,5.76215234375,0.1675761193037033,-0.4687172472476959,-0.3492940366268158
1772556259954144300,5.772144287109375,0.10347915440797806,-0.6690149307250977,-0.4213320016860962
1772556259964137200,5.78213720703125,0.05218680202960968,-0.8236261010169983,-0.37519198656082153
1772556259974129400,5.79212939453125,0.004376136232167482,-0.9332636594772339,-0.2764805853366852
1772556259984122400,5.802122314453125,-0.05340861156582832,-0.9694583415985107,-0.19298185408115387
1772556259994114300,5.8121142578125,-0.0861460492014885,-0.8603249192237854,-0.11831773817539215
1772556260004106200,5.822106201171875,-0.0914752334356308,-0.5812738537788391,-0.0485205315053463
1772556260014099500,5.832099365234375,-0.08803389966487885,-0.20350316166877747,0.017978070303797722
1772556260024091100,5.842091064453125,-0.07869211584329605,0.16242341697216034,0.08249840885400772
1772556260034084400,5.85208447265625,-0.03470388427376747,0.3967410922050476,0.10401967912912369
1772556260044076300,5.862076171875,0.06373613327741623,0.541212797164917,0.05335856229066849
1772556260054069200,5.8720693359375,0.1980350911617279,0.7144993543624878,-0.027944818139076233
1772556260064061400,5.8820615234375,0.343576043844223,0.8266868591308594,-0.04084109887480736
1772556260074054100,5.89205419921875,0.47704648971557617,0.745337188243866,0.09522166103124619
1772556260084046300,5.90204638671875,0.5457265973091125,0.5293063521385193,0.34245964884757996
1772556260094039600,5.91203955078125,0.5051959753036499,0.13827653229236603,0.6023766994476318
1772556260104031200,5.92203125,0.41550329327583313,-0.3832968771457672,0.8373994827270508
1772556260114024400,5.9320244140625,0.37491217255592346,-0.5765792727470398,0.9628836512565613
1772556260124016400,5.942016357421875,0.42714923620224,-0.16609452664852142,0.7324738502502441
1772556260134009300,5.95200927734375,0.5189725756645203,0.49091556668281555,-0.04431534186005592
1772556260144001300,5.962001220703125,0.6550619602203369,1.0351905822753906,-1.098291277885437
1772556260153994200,5.971994140625,0.6813209652900696,1.4340643882751465,-1.6765958070755005
1772556260163986200,5.981986083984375,0.43765944242477417,1.4429361820220947,-1.3428853750228882
1772556260173979400,5.9919794921875,0.10529270023107529,0.8389776349067688,-0.37092533707618713
1772556260183971300,6.001971435546875,-0.13404040038585663,0.028842724859714508,0.7234303951263428
1772556260193963300,6.01196337890625,-0.29491928219795227,-0.5555030107498169,1.3147962093353271
1772556260203956500,6.02195654296875,-0.3848138451576233,-0.8119654655456543,0.967900812625885
1772556260213948200,6.0319482421875,-0.41479596495628357,-0.7425163388252258,-0.14457584917545319
1772556260223941400,6.04194140625,-0.43738996982574463,-0.40141063928604126,-1.2539129257202148
1772556260233933300,6.051933349609375,-0.46141088008880615,-0.21092858910560608,-1.6969434022903442
1772556260243926300,6.06192626953125,-0.4491886794567108,-0.3008142411708832,-1.4508789777755737
1772556260253918500,6.07191845703125,-0.45229047536849976,-0.49243319034576416,-0.8546224236488342
1772556260263911200,6.0819111328125,-0.4733770489692688,-0.6809195280075073,-0.2520216405391693
1772556260273903400,6.0919033203125,-0.46734818816185,-0.8259789943695068,0.16070546209812164
1772556260283896300,6.101896240234375,-0.4476009011268616,-0.9143860936164856,0.324886679649353
1772556260293888300,6.11188818359375,-0.36985206604003906,-0.9553055763244629,0.32500118017196655
1772556260303881500,6.121881591796875,-0.27801576256752014,-1.0064736604690552,0.2775779664516449
1772556260313873400,6.131873291015625,-0.22567185759544373,-1.0360467433929443,0.2572878897190094
1772556260323866400,6.141866455078125,-0.20571498572826385,-0.978543758392334,0.26818692684173584
1772556260333858300,6.1518583984375,-0.18941830098628998,-0.8724187016487122,0.2798212170600891
1772556260343851300,6.161851318359375,-0.17873691022396088,-0.804754376411438,0.28049856424331665
1772556260353843200,6.17184326171875,-0.1670011579990387,-0.7606249451637268,0.262727290391922
1772556260363835400,6.18183544921875,-0.1461258977651596,-0.6885536909103394,0.22634561359882355
1772556260373828400,6.191828369140625,-0.10475768893957138,-0.5553064346313477,0.13639813661575317
1772556260383820300,6.2018203125,-0.04834041744470596,-0.3793538212776184,-0.026913806796073914
1772556260393813200,6.211813232421875,-0.01998068206012249,-0.20581236481666565,-0.18785208463668823
1772556260403805200,6.22180517578125,0.005772159434854984,-0.11004724353551865,-0.2506546676158905
1772556260413798400,6.23179833984375,0.03074835054576397,-0.12958605587482452,-0.18165989220142365
1772556260423790300,6.241790283203125,0.04038506746292114,-0.23484164476394653,0.03467216715216637
1772556260433783300,6.251783203125,0.0648224949836731,-0.2863021790981293,0.43230050802230835
1772556260443775500,6.261775390625,0.08448754251003265,-0.1763908416032791,0.9597147107124329
1772556260453768200,6.271768310546875,0.09395987540483475,0.11741228401660919,1.4559502601623535
1772556260463760400,6.281760498046875,0.14181408286094666,0.46432921290397644,1.7613930702209473
1772556260473753000,6.291753173828125,0.24195319414138794,0.8150489330291748,1.7908097505569458
1772556260483745300,6.301745361328125,0.3792451322078705,1.1542811393737793,1.477568507194519
1772556260493738500,6.311738525390625,0.4576113224029541,1.2306782007217407,0.851883053779602
1772556260503730200,6.321730224609375,0.2951512336730957,1.0395320653915405,0.3463292121887207
1772556260513723400,6.331723388671875,0.054028358310461044,0.447239488363266,0.4215201139450073
1772556260523715300,6.34171533203125,-0.2856789529323578,-1.0001866817474365,0.6253984570503235
1772556260533707300,6.351707275390625,-0.7334769368171692,-1.7210227251052856,0.6307705640792847
1772556260543700200,6.3617001953125,-0.7469900250434875,-1.1653565168380737,0.010847778990864754
1772556260553692400,6.3716923828125,-0.5809859037399292,-0.4658394455909729,-0.9702602028846741
1772556260563685400,6.381685302734375,-0.45954567193984985,-0.010303589515388012,-1.636682391166687
1772556260573677300,6.39167724609375,-0.3963696360588074,-0.037425752729177475,-1.4632368087768555
1772556260583670300,6.401670166015625,-0.3126819133758545,-0.23216354846954346,-0.6176567673683167
1772556260593662200,6.411662109375,-0.2278277426958084,-0.3839309513568878,0.31741559505462646
1772556260603655400,6.421655517578125,-0.18849943578243256,-0.3883989751338959,0.9272648096084595
1772556260613647000,6.431647216796875,-0.15173663198947906,-0.2688025236129761,1.1651034355163574
1772556260623640300,6.441640380859375,-0.11634541302919388,-0.1968604475259781,1.2037914991378784
1772556260633632500,6.451632568359375,-0.10569516569375992,-0.1757194846868515,1.2253553867340088
1772556260643625200,6.461625244140625,-0.11133422702550888,-0.19345052540302277,1.2883323431015015
1772556260653617400,6.471617431640625,-0.13972723484039307,-0.20720069110393524,1.345133662223816
1772556260663610400,6.4816103515625,-0.14791329205036163,-0.1592714935541153,1.31898033618927
1772556260673602300,6.491602294921875,-0.13698287308216095,-0.053377021104097366,1.1687226295471191
1772556260683595500,6.501595458984375,-0.11568990349769592,-0.003750886768102646,0.8847863078117371
1772556260693587200,6.511587158203125,-0.0952642560005188,-0.02838832139968872,0.5519724488258362
1772556260703579400,6.521579345703125,-0.0531136617064476,0.007284979335963726,0.30298906564712524
1772556260713572600,6.531572509765625,-0.020324289798736572,0.13318857550621033,0.18877939879894257
1772556260723564300,6.541564208984375,0.03274910897016525,0.29081496596336365,0.22823353111743927
1772556260733557500,6.5515576171875,0.0965949296951294,0.4304298460483551,0.37494733929634094
1772556260743549400,6.561549560546875,0.11592275649309158,0.575262188911438,0.5615595579147339
1772556260753542400,6.57154248046875,0.08906051516532898,0.6853417754173279,0.76097571849823
1772556260763534300,6.581534423828125,0.038438886404037476,0.6087926626205444,1.0062997341156006
1772556260773527300,6.59152734375,-0.02322154864668846,0.46408528089523315,1.215840458869934
1772556260783519500,6.60151953125,-0.03243010491132736,0.47873347997665405,1.167911171913147
1772556260793512400,6.611512451171875,0.03354891017079353,0.7320120930671692,0.7308629751205444
1772556260803504400,6.62150439453125,0.16620637476444244,1.1324290037155151,-0.015162957832217216
1772556260813497300,6.631497314453125,0.17761775851249695,1.2034711837768555,-0.5760137438774109
1772556260823489500,6.641489501953125,0.045649394392967224,0.25625139474868774,-0.43670400977134705
1772556260833481200,6.651481201171875,-0.10731539130210876,-1.498939871788025,-0.08034296333789825
1772556260843474400,6.661474365234375,-0.5435787439346313,-2.0995233058929443,-0.08431307226419449
1772556260853466600,6.671466552734375,-0.4951089918613434,-1.0083527565002441,-0.8945505619049072
1772556260863459300,6.681459228515625,0.02757996879518032,0.6136186122894287,-2.1061954498291016
1772556260873451500,6.691451416015625,0.22069962322711945,1.4362765550613403,-2.530221939086914
1772556260883444200,6.7014443359375,0.22446800768375397,1.0789687633514404,-1.7448264360427856
1772556260893436400,6.7114365234375,0.23821231722831726,0.3760071098804474,-0.35210293531417847
1772556260903429600,6.7214296875,0.2066572606563568,-0.17194628715515137,0.8103051781654358
1772556260913421300,6.73142138671875,0.16418223083019257,-0.4570837616920471,1.4212980270385742
1772556260923414500,6.74141455078125,0.12018893659114838,-0.5612980127334595,1.6153587102890015
1772556260933406500,6.751406494140625,0.11035601049661636,-0.5716478824615479,1.5886824131011963
1772556260943399400,6.7613994140625,0.13304628431797028,-0.6245638132095337,1.4795554876327515
1772556260953391400,6.771391357421875,0.1496361792087555,-0.6559864282608032,1.3355543613433838
1772556260963384300,6.78138427734375,0.13904745876789093,-0.5355585813522339,1.166216492652893
1772556260973376500,6.79137646484375,0.15717612206935883,-0.1870855689048767,0.996840238571167
1772556260983369500,6.801369384765625,0.20740707218647003,0.22172537446022034,0.84023118019104
1772556260993361400,6.811361328125,0.2674565613269806,0.4314189553260803,0.6699201464653015
1772556261003353300,6.821353271484375,0.3137394189834595,0.4305419623851776,0.4430079460144043
1772556261013346600,6.8313466796875,0.35619020462036133,0.32207807898521423,0.24232783913612366
1772556261023338200,6.841338134765625,0.38607701659202576,0.22786611318588257,0.12014000117778778
1772556261033331500,6.85133154296875,0.4157446324825287,0.2736237645149231,0.09789808094501495
1772556261043323400,6.861323486328125,0.43764427304267883,0.45286062359809875,0.12749862670898438
1772556261053316400,6.87131640625,0.43643918633461,0.5777703523635864,0.20063728094100952
1772556261063308500,6.88130859375,0.386898398399353,0.5461700558662415,0.2864326536655426
1772556261073301200,6.89130126953125,0.2827152609825134,0.3281077444553375,0.4139280319213867
1772556261083293400,6.90129345703125,0.16852471232414246,0.05514201894402504,0.5537110567092896
1772556261093286400,6.911286376953125,0.06272237002849579,-0.08083578944206238,0.5161903500556946
1772556261103278300,6.9212783203125,-0.029635921120643616,0.038637083023786545,0.12681111693382263
1772556261113271600,6.931271484375,-0.1516859382390976,0.04246191680431366,-0.44493815302848816
1772556261123263200,6.94126318359375,-0.39971014857292175,-0.6649472117424011,-0.796858549118042
1772556261133255400,6.95125537109375,-0.538772702217102,-1.7366371154785156,-0.6773020625114441
1772556261143248400,6.961248291015625,-0.5847305059432983,-1.8942680358886719,-0.27485013008117676
1772556261153240300,6.971240234375,-0.40012654662132263,-0.5517279505729675,-0.4138495624065399
1772556261163233500,6.981233642578125,0.12362027168273926,0.7703104615211487,-1.379257321357727
1772556261173225500,6.9912255859375,0.4505038857460022,1.5825823545455933,-2.6059377193450928
1772556261183218400,7.001218505859375,0.5369354486465454,1.5991225242614746,-3.007258653640747
1772556261193210400,7.01121044921875,0.4718345105648041,1.1417865753173828,-2.2431445121765137
1772556261203203300,7.021203369140625,0.34068673849105835,0.7960560321807861,-0.981322169303894
1772556261213195300,7.0311953125,0.19164720177650452,0.5473178625106812,0.012701918371021748
1772556261223188500,7.0411884765625,0.029529336839914322,0.3468841016292572,0.4935063421726227
1772556261233180400,7.051180419921875,-0.11390825361013412,0.17133893072605133,0.6047409772872925
1772556261243173400,7.06117333984375,-0.20611076056957245,0.02835489809513092,0.5485824942588806
1772556261253165600,7.07116552734375,-0.24300432205200195,-0.053082436323165894,0.4681451916694641
1772556261263158300,7.081158203125,-0.2574443221092224,-0.08232823014259338,0.4334781765937805
1772556261273150500,7.091150390625,-0.2209470123052597,-0.07443196326494217,0.4342030882835388
1772556261283142400,7.101142333984375,-0.1549331098794937,-0.07565329968929291,0.46233439445495605
1772556261293135400,7.11113525390625,-0.0935903936624527,-0.0460493341088295,0.5084883570671082
1772556261303127300,7.121127197265625,-0.04888765141367912,0.025921039283275604,0.5462767481803894
1772556261313120300,7.131120361328125,-0.054445136338472366,0.13007833063602448,0.5550907254219055
1772556261323112400,7.141112548828125,-0.08349268138408661,0.18431515991687775,0.5006056427955627
1772556261333105400,7.15110546875,-0.09111518412828445,0.13831891119480133,0.35082492232322693
1772556261343097300,7.161097412109375,-0.0635099858045578,0.03868472948670387,0.14007778465747833
1772556261353090300,7.17109033203125,0.0009558217134326696,-0.0029876171611249447,-0.05941774323582649
1772556261363082500,7.18108251953125,0.07502879202365875,0.0035573458299040794,-0.18143616616725922
1772556261373075500,7.191075439453125,0.1502780020236969,0.0472148098051548,-0.18876437842845917
1772556261383067400,7.2010673828125,0.21142403781414032,0.12932008504867554,-0.08380112797021866
1772556261393060400,7.211060302734375,0.23958057165145874,0.22480054199695587,0.10971400886774063
1772556261403052300,7.22105224609375,0.2234988659620285,0.2944696545600891,0.3555065989494324
1772556261413044500,7.23104443359375,0.14123621582984924,0.23643670976161957,0.6208360195159912
1772556261423037200,7.241037109375,0.06327591836452484,0.15708939731121063,0.7646202445030212
1772556261433029400,7.251029296875,0.014765909872949123,0.15951021015644073,0.6694964170455933
1772556261443022600,7.261022705078125,0.03348193317651749,0.28354430198669434,0.2867145240306854
1772556261453014300,7.27101416015625,0.092984139919281,0.49146607518196106,-0.35566017031669617
1772556261463007500,7.281007568359375,0.06772886216640472,0.38900330662727356,-0.9930817484855652
1772556261472999400,7.29099951171875,0.08542263507843018,-0.5024331212043762,-1.128279447555542
1772556261482992400,7.300992431640625,-0.026448514312505722,-1.1934703588485718,-0.7374666333198547
1772556261492984300,7.310984375,-0.32240134477615356,-0.5056959986686707,-0.5092896819114685
1772556261502977300,7.320977294921875,-0.24971334636211395,0.24399018287658691,-0.9666095972061157
1772556261512969500,7.330969482421875,-0.024059176445007324,0.5516297817230225,-1.5431078672409058
1772556261522962400,7.34096240234375,0.01146469172090292,0.5802263617515564,-1.5667228698730469
1772556261532954400,7.350954345703125,-0.09431739896535873,0.14940598607063293,-1.0890177488327026
1772556261542947300,7.360947265625,-0.17335209250450134,-0.21676191687583923,-0.45355966687202454
1772556261552939500,7.370939453125,-0.25668027997016907,-0.3481047451496124,0.10067769885063171
1772556261562931200,7.38093115234375,-0.3431203067302704,-0.43475979566574097,0.49355754256248474
1772556261572924400,7.39092431640625,-0.41299739480018616,-0.5630554556846619,0.732214093208313
1772556261582916600,7.40091650390625,-0.436788409948349,-0.6820122003555298,0.8835862874984741
1772556261592909300,7.410909423828125,-0.4144245386123657,-0.7438071370124817,1.0051521062850952
1772556261602901500,7.420901611328125,-0.3553667366504669,-0.6923487186431885,1.1057560443878174
1772556261612894200,7.430894287109375,-0.2744598984718323,-0.499125212430954,1.1475610733032227
1772556261622886400,7.440886474609375,-0.15896673500537872,-0.13660559058189392,1.1208022832870483
1772556261632879600,7.450879638671875,-0.03982517123222351,0.2997368574142456,1.0275543928146362
1772556261642871300,7.460871337890625,0.05453262850642204,0.6276992559432983,0.8816975355148315
1772556261652864500,7.470864501953125,0.13966882228851318,0.6646215915679932,0.6679101586341858
1772556261662857200,7.480857177734375,0.19171090424060822,0.537312388420105,0.41246461868286133
1772556261672850400,7.490850341796875,0.22299505770206451,0.38565072417259216,0.1982567459344864
1772556261682842400,7.50084228515625,0.26119258999824524,0.2658102810382843,0.10760784149169922
1772556261692834300,7.510834228515625,0.28236791491508484,0.2357303947210312,0.17055219411849976
1772556261702827500,7.52082763671875,0.2418455332517624,0.2203376293182373,0.41216811537742615
1772556261712819500,7.5308193359375,0.12755544483661652,0.25643545389175415,0.8604079484939575
1772556261722812400,7.5408125,0.007899531163275242,0.24095292389392853,1.0875803232192993
1772556261732804400,7.550804443359375,-0.07609576731920242,0.2688455283641815,0.8411568403244019
1772556261742797300,7.56079736328125,-0.09628606587648392,0.4181671440601349,0.16984498500823975
1772556261752789500,7.57078955078125,-0.09070408344268799,0.5686911344528198,-0.6401642560958862
1772556261762782200,7.5807822265625,-0.11657954007387161,0.40455833077430725,-1.163234829902649
1772556261772774400,7.5907744140625,-0.202522411942482,-0.146297886967659,-1.1139308214187622
1772556261782767400,7.600767333984375,-0.3061088025569916,-0.9031160473823547,-0.6271165013313293
1772556261792759300,7.61075927734375,-0.47803208231925964,-1.1556202173233032,-0.03105202689766884
