time,seconds_elapsed,z,y,x
1772721546509128700,0.024128662109375,0.3630063831806183,-2.675511360168457,-0.37148213386535645
1772721546527725000,0.04272509765625,0.4042397737503052,-1.3187806606292725,0.006337722297757864
1772721546546321400,0.0613212890625,0.28237223625183105,-0.18196134269237518,0.3972911834716797
1772721546564917500,0.07991748046875,0.3883572816848755,0.08743002265691757,0.7873283624649048
1772721546583513900,0.098513916015625,0.541378915309906,-0.909501314163208,0.881401538848877
1772721546602110200,0.117110107421875,0.4689914286136627,-1.7295873165130615,0.418366014957428
1772721546620706600,0.13570654296875,0.337350070476532,-1.5710678100585938,-0.03275762498378754
1772721546639303000,0.154302978515625,0.20143266022205353,-0.9342412948608398,-0.33483025431632996
1772721546657899300,0.172899169921875,0.06215549260377884,0.37148213386535645,-0.4518108665943146
1772721546676495600,0.19149560546875,-0.0435241162776947,1.5761075019836426,-0.41760244965553284
1772721546695091700,0.210091796875,-0.20021092891693115,2.208963394165039,-0.2917642891407013
1772721546713688000,0.22868798828125,-0.2955058515071869,2.365039348602295,-0.12621992826461792
1772721546732284400,0.247284423828125,-0.32330018281936646,2.144822597503662,0.05520690605044365
1772721546750880800,0.265880859375,-0.3052796721458435,1.6839251518249512,0.24060437083244324
1772721546769476900,0.284476806640625,-0.20998476445674896,1.0177770853042603,0.3707185685634613
1772721546788073200,0.3030732421875,-0.08231402933597565,0.5321395993232727,0.3551415205001831
1772721546806669600,0.321669677734375,0.016646064817905426,0.5883391499519348,0.3191004991531372
1772721546825266000,0.340265869140625,0.17608177661895752,0.7260891199111938,0.3762163519859314
1772721546843862300,0.3588623046875,0.34865108132362366,0.877278208732605,0.5744419693946838
1772721546862458600,0.377458740234375,0.7496837973594666,0.9634101390838623,0.7225766777992249
1772721546881055000,0.396054931640625,0.81810063123703,0.6686678528785706,0.6767618060112
1772721546899651000,0.414651123046875,0.4198168218135834,0.3326922357082367,0.6104829907417297
1772721546918247400,0.433247314453125,0.03649916872382164,-0.9330195784568787,0.6847030520439148
1772721546936843800,0.45184375,0.15317434072494507,-0.7066941857337952,1.0667989253997803
1772721546955440000,0.470440185546875,0.799163818359375,2.0767111778259277,1.7607413530349731
1772721546974036200,0.4890361328125,1.3886483907699585,3.835696220397949,2.3022730350494385
1772721546992632600,0.507632568359375,0.949436604976654,1.3051890134811401,1.733863353729248
1772721547011229000,0.52622900390625,0.4280634820461273,-0.09002619981765747,1.2134065628051758
1772721547029825300,0.5448251953125,0.6287325620651245,-1.2088249921798706,0.5588648915290833
1772721547048421600,0.563421630859375,0.8520036339759827,-1.8343505859375,0.2372446060180664
1772721547067017700,0.582017822265625,0.7814487814903259,-2.2127811908721924,0.0322994738817215
1772721547085614000,0.600614013671875,0.6042979955673218,-1.9049054384231567,0.22655446827411652
1772721547104210400,0.61921044921875,0.3352120518684387,-1.4088832139968872,0.6847030520439148
1772721547122806800,0.637806884765625,0.23991714417934418,-1.5851176977157593,0.9351575970649719
1772721547141403100,0.656403076171875,0.29672756791114807,-1.5814526081085205,0.9091958403587341
1772721547159999500,0.67499951171875,0.2942841053009033,-1.3203078508377075,0.48067423701286316
1772721547178595600,0.693595703125,0.13698641955852509,-0.5610029697418213,-0.03367391973733902
1772721547197192000,0.71219189453125,-0.03711003437638283,0.2758817970752716,-0.41241008043289185
1772721547215788300,0.730788330078125,-0.228921577334404,0.8830813765525818,-0.6139954328536987
1772721547234384400,0.74938427734375,-0.3422369956970215,1.1875975131988525,-0.6570614576339722
1772721547252980700,0.767980712890625,-0.3153589367866516,1.2682316303253174,-0.7477748394012451
1772721547271577000,0.7865771484375,-0.3263545036315918,1.2682316303253174,-0.8336013555526733
1772721547290173400,0.80517333984375,-0.29306238889694214,0.8971312642097473,-0.867504358291626
1772721547308769800,0.823769775390625,-0.2130390852689743,0.5217548608779907,-0.7282271981239319
1772721547327366000,0.842365966796875,-0.12324196845293045,0.5498546361923218,-0.38247770071029663
1772721547345962200,0.860962158203125,0.030085090547800064,0.9017127752304077,0.01611155830323696
1772721547364558600,0.87955859375,0.187382772564888,1.4643192291259766,0.3413970470428467
1772721547383155000,0.898155029296875,0.33429574966430664,1.8797073364257812,0.5619192123413086
1772721547401751000,0.9167509765625,0.3874409794807434,1.5150209665298462,0.7784708142280579
1772721547420347400,0.935347412109375,0.5951350331306458,0.8610902428627014,1.0093777179718018
1772721547438943700,0.95394384765625,1.001665472984314,-0.09644027799367905,0.7745001912117004
1772721547457540000,0.9725400390625,0.8849903345108032,-0.6566032767295837,-0.4499782621860504
1772721547476136200,0.99113623046875,0.4555523991584778,-0.5481747984886169,-0.42707082629203796
1772721547494732500,1.009732666015625,0.2857320010662079,0.7480802536010742,-0.4515054225921631
1772721547513329000,1.028328857421875,0.623845636844635,1.5284600257873535,-0.9368374943733215
1772721547531925000,1.046925048828125,0.9411898851394653,1.3668862581253052,-0.9850957989692688
1772721547550521300,1.065521240234375,1.1702642440795898,-0.034437503665685654,-0.8714749813079834
1772721547569117700,1.08411767578125,1.3031272888183594,-1.725616693496704,-0.4881573021411896
1772721547587714000,1.102714111328125,1.4411827325820923,-2.865795850753784,0.17829616367816925
1772721547606310400,1.121310302734375,1.5459460020065308,-2.739957571029663,0.5701659321784973
1772721547624906500,1.139906494140625,1.2854121923446655,-1.78700852394104,0.4018726646900177
1772721547643502800,1.1585029296875,0.5933024287223816,-0.7830522656440735,-0.19188790023326874
1772721547662099200,1.17709912109375,-0.0019853105768561363,-0.16394083201885223,-1.0165553092956543
1772721547680695300,1.1956953125,-0.46715885400772095,-0.09705114364624023,-1.8238131999969482
1772721547699291600,1.214291748046875,-0.6168206930160522,0.22823435068130493,-2.049527645111084
1772721547717888000,1.232887939453125,-0.3776671588420868,0.5293906927108765,-1.7159955501556396
1772721547736484400,1.251484375,-0.07773254066705704,0.5880337357521057,-1.032743215560913
1772721547755080400,1.27008056640625,0.06154462695121765,0.4652498960494995,-0.3775908052921295
1772721547773676800,1.2886767578125,0.006872228812426329,0.2505309283733368,0.002672533504664898
1772721547792273200,1.307273193359375,-0.1715002804994583,-0.11262819170951843,-0.005268708802759647
1772721547810869200,1.325869140625,-0.3428478538990021,-0.5228238701820374,-0.2300669401884079
1772721547829465600,1.344465576171875,-0.4696022868156433,-0.6367501616477966,-0.4099666178226471
1772721547848062000,1.36306201171875,-0.5468766689300537,-0.30138540267944336,-0.4004982113838196
1772721547866658300,1.381658203125,-0.5832231640815735,0.2719111740589142,-0.38125598430633545
1772721547885254400,1.40025439453125,-0.5367974042892456,0.8180242776870728,-0.343993216753006
1772721547903850800,1.418850830078125,-0.3993528485298157,1.3455060720443726,0.04482220485806465
1772721547922447000,1.437447021484375,-0.18677189946174622,1.6567416191101074,0.7631992101669312
1772721547941043200,1.456043212890625,0.05146535858511925,1.6090941429138184,1.3419935703277588
1772721547959639600,1.4746396484375,0.1409570425748825,1.1558325290679932,1.3181698322296143
1772721547978236000,1.49323583984375,-0.11682789027690887,-0.4595993757247925,0.6300306916236877
1772721547996832300,1.511832275390625,-0.13545925915241241,-1.2011892795562744,0.8111520409584045
1772721548015428400,1.530428466796875,0.41157013177871704,-0.483423113822937,1.5667917728424072
1772721548034024700,1.549024658203125,1.0138828754425049,0.3433823585510254,1.8218278884887695
1772721548052621000,1.56762109375,1.3113739490509033,0.6289616227149963,1.5347213745117188
1772721548071217400,1.586217529296875,1.2322670221328735,0.20807582139968872,0.8392518758773804
1772721548089813500,1.6048134765625,0.8471167087554932,-1.1086431741714478,-0.20013457536697388
1772721548108409900,1.623409912109375,0.45707955956459045,-1.66697359085083,-0.6060542464256287
1772721548127006200,1.642006103515625,0.4644099473953247,-1.6165772676467896,-0.5272526741027832
1772721548145602300,1.660602294921875,0.5572614073753357,-1.2473095655441284,-0.43317949771881104
1772721548164198700,1.67919873046875,0.5193877816200256,-0.7436515092849731,-0.6216312646865845
1772721548182795000,1.697794921875,0.31383177638053894,-0.19326233863830566,-1.0397682189941406
1772721548201391000,1.71639111328125,0.018173227086663246,-0.039018988609313965,-1.6286418437957764
1772721548219987500,1.734987548828125,-0.16905683279037476,-0.22563818097114563,-1.9172754287719727
1772721548238583800,1.753583740234375,-0.04841103404760361,-0.036880962550640106,-1.6222277879714966
1772721548257180000,1.772179931640625,0.2952004075050354,0.3470475673675537,-0.9432515501976013
1772721548275776300,1.7907763671875,0.5710058808326721,0.8262709975242615,-0.23800818622112274
1772721548294372600,1.80937255859375,0.7108938694000244,1.2492948770523071,0.19326233863830566
1772721548312969000,1.827968994140625,0.7124210596084595,1.134146809577942,0.2112828493118286
1772721548331565000,1.84656494140625,0.6574432253837585,0.525420069694519,-0.06207913160324097
1772721548350161400,1.865161376953125,0.503505289554596,-0.21586434543132782,-0.22120940685272217
1772721548368757500,1.883757568359375,0.18432845175266266,-0.5863538384437561,-0.08651372790336609
1772721548387353900,1.902353759765625,-0.17455461621284485,-0.586048424243927,0.1346193253993988
1772721548405950200,1.9209501953125,-0.4427242577075958,-0.38476845622062683,0.09094249457120895
1772721548424546600,1.939546630859375,-0.5908589363098145,-0.2323576956987381,-0.3470475673675537
1772721548443142700,1.958142578125,-0.7411317229270935,0.38614290952682495,-0.5773435831069946
1772721548461739000,1.976739013671875,-0.6794343590736389,1.3091596364974976,-0.3134499788284302
1772721548480335000,1.995335205078125,-0.09636391699314117,1.8235076665878296,0.1914297491312027
1772721548498931500,2.013931396484375,0.14981459081172943,1.0006728172302246,0.2625955045223236
1772721548517527800,2.03252783203125,-0.31932955980300903,-0.15172353386878967,0.16332997381687164
1772721548536124200,2.051124267578125,-0.6388118267059326,-0.5909352898597717,0.4583776593208313
1772721548554720300,2.06972021484375,-0.3578140437602997,-0.08422297984361649,0.9394336938858032
1772721548573316600,2.088316650390625,0.4292852282524109,1.0803906917572021,1.0194569826126099
1772721548591912700,2.10691259765625,0.8874338269233704,1.1585813760757446,0.658741295337677
1772721548610509000,2.125509033203125,0.7677043080329895,0.1430187225341797,0.3954585790634155
1772721548629105400,2.14410546875,0.4702131748199463,-0.6895899772644043,0.685924768447876
1772721548647701500,2.162701416015625,0.4189005196094513,-1.1019237041473389,0.8450550436973572
1772721548666297900,2.1812978515625,0.3871355652809143,-0.8386409878730774,0.5845212340354919
1772721548684894200,2.199894287109375,0.3361283540725708,-0.03565923124551773,0.039018988609313965
1772721548703490300,2.218490234375,0.3257436454296112,0.5223657488822937,-0.2709949016571045
1772721548722086700,2.237086669921875,0.2136499583721161,0.5642099976539612,-0.19188790023326874
1772721548740683000,2.25568310546875,-0.031001387163996696,0.3177260458469391,0.04329504072666168
1772721548759279000,2.274279052734375,-0.2695440948009491,0.10025817900896072,0.261984646320343
1772721548777875500,2.29287548828125,-0.3828594982624054,0.22640176117420197,0.2577085793018341
1772721548796471600,2.311471435546875,-0.35995206236839294,0.4753291606903076,0.0243582334369421
1772721548815068000,2.33006787109375,-0.2948949635028839,0.5590176582336426,-0.20838125050067902
1772721548833664300,2.348664306640625,-0.2799287736415863,0.5406916737556458,-0.2141844630241394
1772721548852260400,2.36726025390625,-0.3248273432254791,0.409050315618515,0.004810560029000044
1772721548870856700,2.385856689453125,-0.4766272306442261,0.26824599504470825,0.3297906219959259
1772721548889453000,2.404453125,-0.6501128673553467,0.11094831675291061,0.5820778012275696
1772721548908049200,2.423049072265625,-0.7185297012329102,0.13813179731369019,0.632168710231781
1772721548926645500,2.4416455078125,-0.6110175251960754,0.4310414493083954,0.49075350165367126
1772721548945241900,2.460241943359375,-0.38591381907463074,0.765489935874939,0.2742019295692444
1772721548963838000,2.478837890625,-0.22128576040267944,0.627434492111206,0.03138317912817001
1772721548982434300,2.497434326171875,-0.3529271185398102,-0.2900844216346741,-0.0807105079293251
1772721549001030400,2.516030517578125,-0.5438223481178284,-0.9962440729141235,-0.08987347781658173
1772721549019626800,2.534626708984375,-0.5093085169792175,-1.1752275228500366,-0.2719111740589142
1772721549038223000,2.55322314453125,-0.14004075527191162,-0.12240202724933624,-0.4289034307003021
1772721549056819200,2.571819091796875,0.3324631452560425,1.3222931623458862,-0.4820486605167389
1772721549075415600,2.59041552734375,0.4182896614074707,0.9035453796386719,-0.8476512432098389
1772721549094011600,2.60901171875,0.13973531126976013,-0.5103011727333069,-1.0776418447494507
1772721549112608000,2.62760791015625,0.2185368686914444,-1.3267219066619873,-0.4808269441127777
1772721549131204400,2.646204345703125,0.6702713966369629,-1.482492446899414,0.008781181648373604
1772721549149800400,2.664800537109375,0.9860884547233582,-1.223791241645813,0.06345357745885849
1772721549168396800,2.683396728515625,0.3770562708377838,-1.122998595237732,-0.1323285847902298
1772721549186993200,2.7019931640625,-1.0022764205932617,-1.760130524635315,-0.9832631945610046
1772721549205589200,2.72058935546875,-1.9698861837387085,-1.6672790050506592,-1.8516075611114502
1772721549224185600,2.739185546875,-1.8577924966812134,-0.3050506114959717,-1.9004766941070557
1772721549242782000,2.757781982421875,-0.8782708644866943,0.9811251759529114,-1.1579705476760864
1772721549261378000,2.7763779296875,0.11255183815956116,1.606650710105896,-0.05719221383333206
1772721549279974400,2.794974365234375,0.6513345837593079,1.4346922636032104,0.881706953048706
1772721549298570500,2.813570556640625,0.735633909702301,0.9637155532836914,1.2088249921798706
1772721549317166800,2.832166748046875,0.7096721529960632,0.4258491098880768,0.7943533062934875
1772721549335763200,2.85076318359375,0.5401571989059448,-0.07719803601503372,0.13339759409427643
1772721549354359300,2.869359375,0.041386090219020844,-0.30169084668159485,-0.09231694042682648
1772721549372955600,2.88795556640625,-0.3685041666030884,-0.39393141865730286,-0.06330086290836334
1772721549391551700,2.9065517578125,-0.5077813267707825,-0.25465425848960876,0.04787652567028999
1772721549410148000,2.925148193359375,-0.47845983505249023,0.00679587060585618,0.22350014746189117
1772721549428744400,2.943744384765625,-0.2182314395904541,0.41638070344924927,0.34750568866729736
1772721549447340500,2.962340576171875,0.24327689409255981,0.6033053398132324,0.3762163519859314
1772721549465937000,2.98093701171875,0.5914698243141174,0.2294560819864273,0.7470112442970276
1772721549484533000,2.999532958984375,0.6861538887023926,0.08895718306303024,1.4751620292663574
1772721549503129300,3.01812939453125,0.9711222648620605,0.09995274990797043,1.5777873992919922
1772721549521725700,3.0367255859375,1.2316560745239258,-0.7570905089378357,0.8667407631874084
1772721549540322000,3.055322021484375,0.8547525405883789,-1.0762673616409302,0.8261182308197021
1772721549558918100,3.073918212890625,0.2542724609375,-0.08269581943750381,0.9690605998039246
1772721549577514500,3.092514404296875,0.010537417605519295,0.784426748752594,0.08544471114873886
1772721549596110600,3.111110595703125,0.27626359462738037,1.4679844379425049,-0.8336013555526733
1772721549614707000,3.12970703125,0.44150251150131226,0.801836371421814,-1.005865216255188
1772721549633303300,3.14830322265625,0.12232567369937897,-0.6068177819252014,-0.7260891199111938
1772721549651899400,3.1668994140625,-0.0896444097161293,-0.8041270971298218,-0.33941173553466797
1772721549670495700,3.185495849609375,0.025503603741526604,-0.11995857208967209,-0.3415497839450836
1772721549689092000,3.204092041015625,0.036804601550102234,0.5043452382087708,-0.5492438077926636
1772721549707688200,3.222688232421875,-0.2689332067966461,0.6857720613479614,-0.5587121844291687
1772721549726284500,3.241284423828125,-0.7283035516738892,0.49457138776779175,-0.514729917049408
1772721549744880600,3.259880615234375,-1.0093013048171997,0.20105087757110596,-0.7483857274055481
1772721549763477000,3.27847705078125,-0.9219476580619812,0.12286017835140228,-0.9860121011734009
1772721549782073300,3.2970732421875,-0.503505289554596,0.2044106274843216,-0.9826523661613464
1772721549800669400,3.31566943359375,-0.020311253145337105,0.18180863559246063,-0.6506473422050476
1772721549819265800,3.334265869140625,0.2683223485946655,-0.04024071618914604,-0.1628718227148056
1772721549837862000,3.35286181640625,0.3352120518684387,-0.5026653409004211,0.06131555140018463
1772721549856458200,3.371458251953125,0.28176137804985046,-1.0148755311965942,-0.09750928729772568
1772721549875054600,3.3900546875,0.22769984602928162,-1.1168898344039917,-0.35101816058158875
1772721549893650700,3.408650634765625,0.05451968312263489,-0.8755983114242554,-0.5556578636169434
1772721549912247000,3.4272470703125,-0.3168860971927643,-0.36338818073272705,-0.4405098557472229
1772721549930843100,3.445843017578125,-0.5752819180488586,0.5770381689071655,0.06681333482265472
1772721549949439500,3.464439453125,-0.5251910090446472,1.5764129161834717,0.5426769852638245
1772721549968035800,3.483035888671875,-0.13759729266166687,1.9151374101638794,0.5551997423171997
1772721549986632000,3.5016318359375,0.3208567202091217,0.9475276470184326,0.3759109079837799
1772721550005228300,3.520228271484375,0.3685041666030884,-0.6654608249664307,0.5347357392311096
1772721550023824400,3.538824462890625,0.2328922003507614,-1.2402845621109009,1.1086431741714478
1772721550042420700,3.557420654296875,-0.18493930995464325,-1.0961204767227173,0.9504292607307434
1772721550061017000,3.57601708984375,-0.3529271185398102,-0.42050403356552124,-0.14424043893814087
1772721550079613200,3.59461328125,-0.1611155867576599,0.5306124091148376,-1.0489312410354614
1772721550098209500,3.61320947265625,-0.29397866129875183,0.4356229603290558,-1.1423934698104858
1772721550116805600,3.6318056640625,-1.041066288948059,-1.1055889129638672,-0.6530908346176147
1772721550135402000,3.650402099609375,-1.3281728029251099,-2.2683699131011963,-0.229150652885437
1772721550153998300,3.668998291015625,-0.8743002414703369,-1.9302563667297363,0.3493382930755615
1772721550172594400,3.687594482421875,-0.458301305770874,-1.3691771030426025,1.0228166580200195
1772721550191190800,3.706190673828125,-0.443945974111557,-1.2436443567276,1.2195152044296265
1772721550209787000,3.724786865234375,-0.6757691502571106,-1.372231364250183,0.8450550436973572
1772721550228383200,3.74338330078125,-1.0462586879730225,-1.294956922531128,0.129426971077919
1772721550246979600,3.7619794921875,-1.2221877574920654,-0.7549524903297424,-0.4823541045188904
1772721550265575700,3.78057568359375,-1.004414439201355,-0.055512335151433945,-0.5495492219924927
1772721550284172000,3.799172119140625,-0.6323977708816528,0.5025126338005066,-0.22182027995586395
1772721550302768000,3.81776806640625,-0.3251327872276306,0.8085559010505676,0.2378554791212082
1772721550321364500,3.836364501953125,-0.26679518818855286,0.6588940024375916,0.5005273222923279
1772721550339960800,3.8549609375,-0.41126471757888794,0.27801984548568726,0.4333322048187256
1772721550358557000,3.873556884765625,-0.64278244972229,-0.15172353386878967,0.0057268571108579636
1772721550377153300,3.8921533203125,-0.8287907838821411,-0.33895358443260193,-0.4753291606903076
1772721550395749400,3.910749267578125,-0.8126028776168823,-0.11720968037843704,-0.3891972303390503
1772721550414345700,3.929345703125,-0.6226239204406738,0.5516872406005859,0.2012035846710205
1772721550432941800,3.94794189453125,-0.42592546343803406,1.2999966144561768,0.7830522656440735
1772721550451538200,3.9665380859375,-0.2704603672027588,1.495167851448059,0.9708932042121887
1772721550470134300,3.98513427734375,-0.2338084876537323,0.9017127752304077,0.9244675040245056
1772721550488730600,4.003730712890625,-0.1308777779340744,0.03917170315980911,1.141629934310913
1772721550507327000,4.022326904296875,0.1773035079240799,-0.3704131245613098,1.4391210079193115
1772721550525923000,4.040923095703125,0.6620246767997742,-0.4318050444126129,1.4385101795196533
1772721550544519400,4.05951953125,0.7374665141105652,-1.0762673616409302,1.3019819259643555
1772721550563115500,4.078115478515625,0.12324196845293045,-0.9583705067634583,1.2033272981643677
1772721550581712000,4.0967119140625,-0.3990474045276642,0.5287798047065735,0.7906880974769592
1772721550600308200,4.11530810546875,-0.5056433081626892,1.4539345502853394,-0.38217228651046753
1772721550618904300,4.133904296875,-0.6275108456611633,0.3427715003490448,-2.1573452949523926
1772721550637500700,4.152500732421875,-0.6684387922286987,-0.6666825413703918,-2.6738314628601074
1772721550656096800,4.1710966796875,-0.3837758004665375,-1.3056471347808838,-1.9511784315109253
1772721550674693000,4.189693115234375,-0.011759147047996521,-1.2512801885604858,-0.5727620720863342
1772721550693289200,4.208289306640625,0.06826414167881012,-0.8569669127464294,0.256792277097702
1772721550711885600,4.226885498046875,-0.06826414167881012,-0.9797507524490356,-0.059635672718286514
1772721550730481700,4.245481689453125,-0.4079049527645111,-0.5863538384437561,-0.7893136739730835
1772721550749078000,4.264078125,-0.5575668215751648,0.5614610910415649,-1.2566251754760742
1772721550767674400,4.28267431640625,-0.388662725687027,1.349782109260559,-1.180267095565796
1772721550786270500,4.3012705078125,-0.12232567369937897,1.3852123022079468,-0.7242565751075745
1772721550804866600,4.319866455078125,0.11988221108913422,0.9157626628875732,-0.1726456582546234
1772721550823463000,4.338462890625,0.18616104125976562,0.4081340432167053,0.1190422773361206
1772721550842059300,4.357059326171875,0.1519526094198227,-0.06498073786497116,0.1196531355381012
1772721550860655400,4.3756552734375,0.058795735239982605,-0.15874847769737244,0.022525638341903687
1772721550879251700,4.394251708984375,0.019700389355421066,0.13507747650146484,-0.033979352563619614
1772721550897847800,4.412847900390625,0.09330959618091583,0.5272526741027832,-0.06177370250225067
1772721550916444200,4.431444091796875,0.1977674663066864,0.8797216415405273,0.01030834298580885
1772721550935040300,4.450040283203125,0.20509785413742065,0.8647554516792297,0.19753839075565338
1772721550953636600,4.46863671875,0.11377356201410294,0.5495492219924927,0.594295084476471
1772721550972232700,4.487232666015625,-0.057268574833869934,0.0031306820455938578,0.9803616404533386
1772721550990829000,4.5058291015625,0.004734201822429895,0.049861837178468704,0.9867756962776184
1772721551009425400,4.52442529296875,0.5893318057060242,0.8723912835121155,0.6883682608604431
1772721551028021500,4.543021484375,0.9167553186416626,1.1591923236846924,0.35850125551223755
1772721551046617900,4.561617919921875,0.009010255336761475,0.6445387005805969,0.2543488144874573
1772721551065214000,4.5802138671875,-0.689513623714447,1.1643846035003662,0.48739373683929443
1772721551083810300,4.598810302734375,-0.44761115312576294,1.4896701574325562,0.2635118067264557
1772721551102406400,4.617406494140625,0.3174969553947449,0.27985242009162903,-0.48937904834747314
1772721551121002800,4.636002685546875,0.2331976294517517,-1.5918372869491577,-0.9304234385490417
1772721551139598800,4.654598876953125,-0.43020153045654297,-2.21980619430542,-0.2746600806713104
1772721551158195200,4.6731953125,-0.6687442064285278,-1.771736979484558,0.15966477990150452
1772721551176791300,4.691791259765625,-0.4088212549686432,-0.9858593940734863,0.45104727149009705
1772721551195387600,4.7103876953125,-0.3248273432254791,-0.11873684078454971,0.43913543224334717
1772721551213983700,4.728983642578125,-0.5267181396484375,0.0193185992538929,0.023136503994464874
1772721551232580000,4.747580078125,-0.9317215085029602,-0.34170249104499817,-0.44906195998191833
1772721551251176200,4.76617626953125,-1.1384992599487305,-0.760755717754364,-0.8039743900299072
1772721551269772500,4.7847724609375,-1.0151045322418213,-0.8016836643218994,-1.117653489112854
1772721551288368600,4.80336865234375,-0.6171261668205261,-0.4486038088798523,-1.3378702402114868
1772721551306965000,4.821965087890625,-0.14034618437290192,0.10728313028812408,-1.216613531112671
1772721551325561000,4.84056103515625,0.2338084876537323,0.5794816017150879,-0.6631700992584229
1772721551344157400,4.859157470703125,0.3355174660682678,0.894076943397522,0.10682497918605804
1772721551362753500,4.87775341796875,0.27290382981300354,1.1460586786270142,0.5741365551948547
1772721551381350000,4.896349853515625,0.1357647031545639,0.8326850533485413,0.36888596415519714
1772721551399946000,4.914946044921875,0.06123919412493706,0.45883581042289734,-0.05047270283102989
1772721551418542300,4.933542236328125,0.07070759683847427,0.45761406421661377,-0.27985242009162903
1772721551437138400,4.952138427734375,0.1052214577794075,0.4768563210964203,-0.1530979871749878
1772721551455734800,4.97073486328125,0.1253799945116043,0.5077049732208252,0.4235583543777466
1772721551474331000,4.989330810546875,0.15806126594543457,0.745942234992981,1.2173771858215332
1772721551492927200,5.00792724609375,0.4488328993320465,0.4197404682636261,1.4925717115402222
1772721551511523300,5.0265234375,1.335808515548706,0.059024810791015625,0.8594104051589966
1772721551530119700,5.04511962890625,1.6659809350967407,-0.31268641352653503,0.1559995859861374
1772721551548715800,5.0637158203125,0.623845636844635,-0.6550761461257935,-0.30428701639175415
1772721551567312100,5.08231201171875,0.016340631991624832,0.23403756320476532,-0.5330559015274048
1772721551585908200,5.100908203125,0.4689914286136627,0.8323796391487122,-0.8042798638343811
1772721551604504600,5.119504638671875,0.6388118267059326,-0.8236747980117798,-1.2386046648025513
1772721551623100700,5.1381005859375,0.22128576040267944,-2.0310490131378174,-0.7150935530662537
1772721551641697000,5.156697021484375,-0.04535670951008797,-1.3108394145965576,-0.1882227063179016
1772721551660293000,5.175293212890625,0.03497200831770897,-0.5341249108314514,-0.56298828125
1772721551678889500,5.193889404296875,0.17821979522705078,-0.3823249936103821,-1.0281617641448975
1772721551697485600,5.212485595703125,0.22036947309970856,-0.6660717129707336,-1.109101414680481
1772721551716082000,5.23108203125,0.21670427918434143,-0.7616720199584961,-0.7334195375442505
1772721551734678000,5.249677978515625,-0.014813470654189587,-0.5041925311088562,-0.32963791489601135
1772721551753274400,5.2682744140625,-0.10094540566205978,0.06421715766191483,-0.26855143904685974
1772721551771870500,5.286870361328125,0.02367101050913334,0.3372737169265747,-0.48479756712913513
1772721551790466800,5.305466796875,0.18402300775051117,0.2957349121570587,-0.857730507850647
1772721551809063000,5.32406298828125,0.3165806829929352,-0.16302454471588135,-0.8809433579444885
1772721551827659300,5.3426591796875,0.32299473881721497,0.008933897130191326,-0.37087127566337585
1772721551846255400,5.36125537109375,0.38591381907463074,0.3678169548511505,0.16455170512199402
1772721551864851500,5.3798515625,0.5963567495346069,0.5880337357521057,0.5518399477005005
1772721551883447800,5.39844775390625,0.6968439817428589,0.5568795800209045,0.7500655651092529
1772721551902044200,5.417044189453125,0.4277580678462982,0.23067781329154968,0.8004619479179382
1772721551920640300,5.43564013671875,-0.05482511222362518,0.30031639337539673,0.7766382098197937
1772721551939236400,5.454236328125,-0.1672242283821106,0.5223657488822937,0.7183006405830383
1772721551957832700,5.472832763671875,0.33765551447868347,0.8745293021202087,0.5982657074928284
1772721551976428800,5.4914287109375,0.8733839392662048,0.8216894865036011,0.5619192123413086
1772721551995025200,5.510025146484375,1.1275036334991455,0.12927426397800446,0.6379718780517578
1772721552013621200,5.528621337890625,1.107956051826477,-1.6028327941894531,0.5182424187660217
1772721552032217600,5.547217529296875,1.134528636932373,-1.3099231719970703,0.8887318968772888
1772721552050813700,5.565813720703125,1.3138173818588257,0.20715951919555664,1.0780999660491943
1772721552069409800,5.584409912109375,1.3684898614883423,0.3012326955795288,0.23846633732318878
1772721552088006100,5.603006103515625,1.2179116010665894,0.3586539924144745,-0.29481860995292664
1772721552106602200,5.621602294921875,0.8712459206581116,0.2920697331428528,-0.5312232971191406
1772721552125198600,5.640198486328125,0.9054543375968933,-0.021914774551987648,-0.9600503444671631
1772721552143794700,5.658794677734375,0.8978185057640076,-0.5958222150802612,-1.3821579217910767
1772721552162391000,5.67739111328125,0.5514581799507141,-1.4663045406341553,-1.5849649906158447
1772721552180987100,5.695987060546875,0.0691804364323616,-2.315406560897827,-1.517464518547058
1772721552199583200,5.714583251953125,-0.2075413018465042,-2.345644474029541,-0.9866229891777039
1772721552218179600,5.7331796875,-0.04566214233636856,-1.4189624786376953,-0.1787542998790741
1772721552236776000,5.75177587890625,0.5890263915061951,-0.22563818097114563,0.6162862181663513
1772721552255372000,5.7703720703125,1.2090541124343872,0.7969494462013245,1.0762673616409302
1772721552273968000,5.788968017578125,1.5169299840927124,1.2037854194641113,1.0808488130569458
1772721552292564500,5.807564453125,1.3923135995864868,1.134452223777771,0.7183006405830383
1772721552311160600,5.82616064453125,1.012966513633728,0.9627992510795593,0.3746891915798187
1772721552329756700,5.844756591796875,0.6021599769592285,0.701349139213562,0.23602287471294403
1772721552348353000,5.86335302734375,0.21609342098236084,0.48968449234962463,0.11995857208967209
1772721552366949400,5.881949462890625,0.03741546720266342,0.4411207437515259,0.10987929999828339
1772721552385545500,5.90054541015625,-0.031612250953912735,0.6830231547355652,0.32765260338783264
1772721552404141600,5.9191416015625,-0.0010690133785828948,1.026940107345581,0.6953932046890259
1772721552422738000,5.937738037109375,0.22525638341903687,0.866893470287323,1.166675329208374
1772721552441334000,5.956333984375,0.43233954906463623,0.03733910992741585,1.491044521331787
1772721552459930000,5.97493017578125,0.7805324792861938,-1.0432807207107544,1.6495640277862549
1772721552478526500,5.9935263671875,1.2820523977279663,-1.4522546529769897,1.6889647245407104
1772721552497122600,6.01212255859375,1.7124066352844238,-1.315726399421692,1.498985767364502
1772721552515719000,6.030718994140625,1.7466151714324951,-0.093691386282444,1.3777291774749756
1772721552534315000,6.04931494140625,1.7392847537994385,1.6106213331222534,0.9876919984817505
1772721552552911400,6.067911376953125,1.8785618543624878,2.128023862838745,-0.04802924394607544
1772721552571507500,6.086507568359375,1.6739221811294556,0.5666534304618835,-1.5098286867141724
1772721552590103600,6.105103515625,1.5618284940719604,-0.6804270148277283,-1.8134284019470215
1772721552608700000,6.123699951171875,1.688888430595398,-1.1562906503677368,-1.14422607421875
1772721552627296000,6.1422958984375,2.0719006061553955,-0.9687551856040955,-0.270689457654953
1772721552645892000,6.16089208984375,2.4527747631073,-0.31787875294685364,0.4058432877063751
1772721552664488400,6.179488525390625,2.406043767929077,0.6029998660087585,0.6260600686073303
1772721552683084500,6.19808447265625,1.9335397481918335,0.9041562080383301,0.2781725525856018
1772721552701681000,6.216680908203125,1.308930516242981,0.414242684841156,-0.4716639816761017
1772721552720277000,6.235277099609375,1.0175479650497437,0.29970553517341614,-1.128954529762268
1772721552738873300,6.253873291015625,1.233794093132019,0.7627410292625427,-1.2984694242477417
1772721552757469400,6.272469482421875,1.632994294166565,1.3433680534362793,-1.1558325290679932
1772721552776065500,6.2910654296875,1.8739804029464722,1.5391501188278198,-0.7975603342056274
1772721552794662000,6.309661865234375,1.8947498798370361,1.275562047958374,-0.34521496295928955
1772721552813258000,6.328258056640625,1.761886715888977,0.34002259373664856,-0.0965929925441742
1772721552831854000,6.34685400390625,1.428965449333191,-0.7760273218154907,0.014584396965801716
1772721552850450400,6.365450439453125,0.9280562996864319,-1.1071161031723022,0.04848739132285118
1772721552869046500,6.384046630859375,0.8489493131637573,-0.6153699159622192,-0.06268999725580215
1772721552887642600,6.402642578125,1.0532835721969604,0.12255474925041199,-0.25236350297927856
1772721552906239000,6.421239013671875,0.9540180563926697,0.0077121676877141,-0.3000109791755676
1772721552924835000,6.4398349609375,0.8196278214454651,0.02695440873503685,0.08483384549617767
1772721552943431400,6.458431396484375,1.0532835721969604,0.5437459945678711,0.4180605709552765
1772721552962027500,6.477027587890625,1.5813761949539185,1.1692715883255005,0.34750568866729736
1772721552980623600,6.49562353515625,2.0715951919555664,1.053207278251648,0.13553562760353088
1772721552999220000,6.514219970703125,2.2582144737243652,0.2709949016571045,0.47578731179237366
1772721553017816000,6.532816162109375,2.3874123096466064,0.6124683022499084,1.323056697845459
1772721553036412200,6.551412109375,2.4411683082580566,0.21540619432926178,1.4030799865722656
1772721553055008500,6.570008544921875,2.5187482833862305,-0.6254491806030273,1.008461356163025
1772721553073604600,6.5886044921875,2.749960422515869,-0.6110938787460327,0.8792635202407837
1772721553092200700,6.60720068359375,2.89168119430542,-0.27542364597320557,0.3551415205001831
1772721553110797000,6.625797119140625,2.542266607284546,-0.2540434002876282,-0.5043452382087708
1772721553129393200,6.64439306640625,1.8822270631790161,0.00923932995647192,-0.8329904675483704
1772721553147989200,6.6629892578125,1.5621339082717896,0.5559632778167725,-0.7517454624176025
1772721553166585600,6.681585693359375,1.5099049806594849,0.9371429085731506,-0.8705586791038513
1772721553185181700,6.700181640625,1.4598140716552734,1.025412917137146,-1.2138646841049194
1772721553203777800,6.71877783203125,1.4613412618637085,0.8424589037895203,-1.4710386991500854
1772721553222374100,6.7373740234375,1.6000075340270996,0.523892879486084,-1.4481313228607178
1772721553240970200,6.75597021484375,1.782656192779541,0.26244276762008667,-1.1448369026184082
1772721553259566600,6.774566650390625,1.9204061031341553,0.19677481055259705,-0.691575288772583
1772721553278162700,6.79316259765625,2.022420644760132,0.26916229724884033,-0.2196822464466095
1772721553296758800,6.8117587890625,2.058767080307007,0.30031639337539673,0.17524182796478271
1772721553315355100,6.830355224609375,2.006538152694702,0.44173160195350647,0.33803731203079224
1772721553333951200,6.848951171875,1.973856806755066,0.7135664224624634,0.18959715962409973
1772721553352547300,6.86754736328125,1.81778085231781,0.8369610905647278,-0.04436405375599861
1772721553371143700,6.886143798828125,1.6198606491088867,0.9563851952552795,-0.12927426397800446
1772721553389739800,6.90473974609375,1.5205951929092407,0.9921207427978516,-0.09842558950185776
1772721553408336000,6.9233359375,1.3312270641326904,0.7981712222099304,-0.015042545273900032
1772721553426932200,6.94193212890625,1.3012946844100952,0.4408152997493744,0.3591121435165405
1772721553445528300,6.9605283203125,1.7475314140319824,0.418824166059494,0.47670361399650574
1772721553464124400,6.97912451171875,2.369697093963623,0.22212570905685425,-0.1573740392923355
1772721553482720800,6.997720703125,1.936288595199585,-0.7011964321136475,-1.026940107345581
1772721553501316900,7.01631689453125,1.141553521156311,-0.3551415205001831,-0.5950586795806885
1772721553519913000,7.034912841796875,1.0563379526138306,1.599625825881958,0.32154396176338196
1772721553538509300,7.05350927734375,1.5267038345336914,2.33174729347229,0.21281002461910248
1772721553557105400,7.07210546875,1.752112865447998,1.208672285079956,-0.7493020296096802
1772721553575701500,7.090701416015625,1.3752093315124512,-0.3872119188308716,-1.6002366542816162
1772721553594297900,7.1092978515625,0.9830341339111328,-1.3435207605361938,-1.4554617404937744
1772721553612894000,7.12789404296875,1.0679444074630737,-1.3649009466171265,-0.9069051146507263
1772721553631490000,7.146489990234375,1.5288418531417847,-1.5014293193817139,-0.3119228184223175
1772721553650086400,7.16508642578125,1.8877248764038086,-1.539608359336853,0.432110458612442
1772721553668682500,7.1836826171875,1.743255376815796,-1.0301470756530762,0.5060251355171204
1772721553687278600,7.202278564453125,1.3587160110473633,-0.47609272599220276,-0.1983019858598709
1772721553705874700,7.220874755859375,1.0792453289031982,-0.11598794907331467,-0.838182806968689
1772721553724471000,7.239470947265625,0.9967786073684692,0.05322159454226494,-1.0904699563980103
1772721553743067100,7.258067138671875,1.143080711364746,0.03214675933122635,-0.838182806968689
1772721553761663200,7.276663330078125,1.4772237539291382,-0.08636100590229034,-0.14485131204128265
1772721553780259600,7.295259521484375,1.7298163175582886,-0.13309216499328613,0.7482330203056335
1772721553798855700,7.313855712890625,1.8968878984451294,-0.02802342176437378,1.4342341423034668
1772721553817451800,7.33245166015625,1.9231550693511963,-0.10713040828704834,1.6816344261169434
1772721553836048100,7.351048095703125,1.856570839881897,0.0009926552884280682,1.539608359336853
1772721553854644200,7.369644287109375,1.7328706979751587,0.12347104400396347,1.0264818668365479
1772721553873240300,7.388240234375,1.5245658159255981,0.24442227184772491,0.4950295388698578
1772721553891836700,7.406836669921875,1.3342814445495605,0.4154644012451172,0.48250681161880493
1772721553910432800,7.425432861328125,1.374598503112793,0.4038579761981964,0.7604503035545349
1772721553929028900,7.44402880859375,1.5438079833984375,-0.13706278800964355,0.8890373110771179
1772721553947625200,7.462625244140625,1.5795435905456543,-0.6605738997459412,0.6266708970069885
1772721553966221300,7.48122119140625,1.1675152778625488,-1.2775473594665527,0.2430478185415268
1772721553984817400,7.4998173828125,1.0361794233322144,-0.9849430918693542,0.045738499611616135
1772721554003413800,7.518413818359375,1.6864449977874756,0.6469821333885193,-0.02909243479371071
1772721554022009900,7.537009765625,2.1781911849975586,1.569082498550415,-0.12866339087486267
1772721554040606000,7.55560595703125,2.120769739151001,0.8681151866912842,-0.16378812491893768
1772721554059202000,7.5742021484375,2.01692271232605,-0.13064870238304138,-0.05871937796473503
1772721554077798400,7.59279833984375,2.134208917617798,-0.9397391080856323,0.23632831871509552
1772721554096394500,7.61139453125,2.436281442642212,-1.2537236213684082,0.4849502742290497
1772721554114990600,7.629990478515625,2.4622433185577393,-1.2082141637802124,0.5032762289047241
1772721554133586700,7.648586669921875,2.123518705368042,-0.8245911002159119,0.31635159254074097
1772721554152182800,7.667182861328125,1.7041599750518799,-0.21403174102306366,-0.06360629200935364
1772721554170779100,7.685779052734375,1.4995203018188477,0.6390409469604492,-0.3284161686897278
1772721554189375200,7.704375244140625,1.5404483079910278,1.3800199031829834,-0.4047742784023285
1772721554207971300,7.722971435546875,1.7200424671173096,1.62742018699646,-0.2807687222957611
1772721554226567700,7.741567626953125,1.9170464277267456,1.367497205734253,0.0023671009112149477
1772721554245163800,7.760163818359375,2.058767080307007,0.8449023365974426,0.320933073759079
1772721554263760000,7.778759765625,2.1696388721466064,0.4237110912799835,0.5958222150802612
1772721554282356200,7.797356201171875,2.1998767852783203,0.307646781206131,0.8084031939506531
1772721554300952300,7.815952392578125,2.1302382946014404,0.3745364546775818,0.9339358806610107
1772721554319548400,7.83454833984375,1.9167410135269165,0.4499782621860504,1.0289254188537598
1772721554338144500,7.85314453125,1.6336051225662231,0.6866883635520935,1.1480439901351929
1772721554356740600,7.87174072265625,1.401171088218689,1.004338026046753,1.112308382987976
1772721554375337000,7.8903369140625,1.3981167078018188,0.8061124086380005,0.9012545943260193
1772721554393933000,7.90893310546875,1.6351323127746582,0.26794055104255676,0.8230639100074768
1772721554412529200,7.927529052734375,1.9509494304656982,-0.32734715938568115,1.095509648323059
1772721554431125500,7.94612548828125,1.9158246517181396,-0.3294851779937744,1.8102214336395264
1772721554449721600,7.9647216796875,1.4518728256225586,-0.2018144577741623,2.0145556926727295
1772721554468317700,7.983317626953125,1.3348922729492188,0.349185585975647,1.3762019872665405
1772721554486913800,8.001913818359375,1.6491822004318237,1.3161845207214355,0.36858054995536804
1772721554505510000,8.020510009765625,1.8012875318527222,1.4740930795669556,-0.2199876755475998
1772721554524106200,8.039106201171874,1.7273728847503662,1.0678679943084717,-0.35559967160224915
1772721554542702300,8.057702392578125,1.2780818939208984,0.08559742569923401,-0.9860121011734009
1772721554561298400,8.07629833984375,0.8602503538131714,-0.7534253597259521,-1.6301690340042114
1772721554579894800,8.094894775390625,0.9457713961601257,-0.4638754427433014,-1.4646246433258057
1772721554598491000,8.113490966796874,1.503185510635376,0.497320294380188,-0.8003092408180237
1772721554617087000,8.1320869140625,1.9213224649429321,1.384601354598999,-0.19585852324962616
1772721554635683000,8.15068310546875,1.9051345586776733,1.6924772262573242,-0.031230462715029716
1772721554654279200,8.169279052734375,1.6131411790847778,1.5232676267623901,-0.33941173553466797
1772721554672875500,8.18787548828125,1.3849831819534302,1.2828923463821411,-0.8739184141159058
1772721554691471600,8.2064716796875,1.3907864093780518,1.2893065214157104,-1.2550981044769287
1772721554710067700,8.225067626953125,1.5538872480392456,1.4160609245300293,-1.3229039907455444
1772721554728664000,8.2436640625,1.7750203609466553,1.515937328338623,-1.1182643175125122
1772721554747260200,8.26226025390625,1.9995131492614746,1.3962078094482422,-0.7575486898422241
1772721554765856300,8.280856201171876,2.05143666267395,1.0470986366271973,-0.3320813775062561
1772721554784452400,8.299452392578125,1.9017747640609741,0.7144827246665955,0.03107774630188942
1772721554803048400,8.31804833984375,1.735314130783081,0.4866301417350769,0.20364704728126526
1772721554821644800,8.336644775390624,1.761581301689148,0.5654317140579224,0.17402009665966034
1772721554840241000,8.355240966796876,1.957058072090149,0.8418480157852173,0.015195261687040329
1772721554858837000,8.3738369140625,2.1952953338623047,0.6952404975891113,0.21464261412620544
1772721554877433000,8.39243310546875,2.5129449367523193,0.6656135320663452,0.9711986184120178
1772721554896029200,8.411029296875,2.956738233566284,1.107879638671875,1.2641083002090454
1772721554914625300,8.429625244140626,3.263392448425293,0.9395864009857178,0.13584105670452118
1772721554933221600,8.4482216796875,2.9356634616851807,-0.022525638341903687,-0.9194278717041016
1772721554951817700,8.466817626953125,2.2863142490386963,-0.0680350661277771,-0.7489965558052063
1772721554970413800,8.485413818359374,2.1219916343688965,0.6457604169845581,-0.8058069944381714
1772721554989010000,8.504010009765626,2.06731915473938,0.11461350321769714,-1.8351141214370728
1772721555007606000,8.52260595703125,2.1946845054626465,0.2407570779323578,-1.996687889099121
1772721555026202400,8.541202392578125,2.6030476093292236,0.8015309572219849,-1.504941701889038
1772721555044798500,8.559798583984374,2.885877847671509,0.5101484656333923,-0.9747111201286316
1772721555063394600,8.57839453125,2.7957754135131836,-0.36766424775123596,-0.5223657488822937
1772721555081990700,8.59699072265625,2.5663957595825195,-0.9507346749305725,-0.15095995366573334
1772721555100586800,8.615586669921875,2.3956589698791504,-1.2500584125518799,-0.024205517023801804
1772721555119183000,8.63418310546875,2.26615571975708,-1.0020473003387451,-0.11919499188661575
1772721555137779200,8.652779296875,2.1775801181793213,-0.2687041461467743,-0.26855143904685974
1772721555156375300,8.671375244140625,2.1638357639312744,0.5235874652862549,-0.3274998664855957
1772721555174971400,8.689971435546875,2.2108724117279053,0.7755692005157471,-0.25938844680786133
1772721555193567500,8.7085673828125,2.1241295337677,0.4878518879413605,-0.17417281866073608
1772721555212163800,8.727163818359376,1.8727587461471558,0.016875140368938446,-0.17967060208320618
1772721555230760000,8.745760009765625,1.6128357648849487,-0.017027854919433594,-0.08376483619213104
1772721555249356000,8.76435595703125,1.5355613231658936,0.1891390085220337,-0.04039343446493149
1772721555267952000,8.7829521484375,1.6421571969985962,0.39072439074516296,0.01183550525456667
1772721555286548200,8.80154833984375,1.493411660194397,0.5318341255187988,0.14317142963409424
1772721555305144600,8.82014453125,1.1797325611114502,0.7331140637397766,0.4314996004104614
1772721555323740700,8.83874072265625,1.1446079015731812,0.543440580368042,0.6168970465660095
1772721555342336800,8.857336669921875,1.5822924375534058,0.23373213410377502,0.5637518167495728
1772721555360932900,8.875932861328126,2.013868570327759,0.13965895771980286,0.6520217657089233
1772721555379529000,8.894529052734375,2.1641411781311035,0.16470441222190857,1.0255656242370605
1772721555398125300,8.913125244140625,2.2120940685272217,-0.5674170255661011,1.4320961236953735
1772721555416721400,8.931721435546875,2.0554072856903076,0.16470441222190857,1.98920476436615
1772721555435317500,8.9503173828125,2.265850067138672,1.9380449056625366,1.816330075263977
1772721555453913600,8.96891357421875,2.431394577026367,2.275853157043457,0.815122663974762
1772721555472509700,8.987509765625,2.3590071201324463,1.5528945922851562,0.03871355578303337
1772721555491106000,9.00610595703125,2.0975568294525146,0.12988512217998505,-0.4878518879413605
1772721555509702100,9.0247021484375,1.764635682106018,-1.724089503288269,-0.9982293844223022
1772721555528298200,9.04329833984375,1.5490003824234009,-2.600069522857666,-1.300607442855835
1772721555546894300,9.061894287109375,1.382845163345337,-2.7549238204956055,-1.523878574371338
1772721555565490400,9.080490478515625,1.077412724494934,-1.7271437644958496,-0.9298125505447388
1772721555584086500,9.09908642578125,1.0624465942382812,0.4292088747024536,0.0524580143392086
1772721555602682600,9.1176826171875,1.3978112936019897,2.3613741397857666,0.6514109373092651
1772721555621278700,9.13627880859375,1.844048023223877,2.661919593811035,0.6141481995582581
1772721555639875000,9.154875,2.1030547618865967,1.6100105047225952,0.26137375831604004
1772721555658471200,9.17347119140625,2.2679882049560547,0.42859798669815063,0.23999349772930145
1772721555677067300,9.1920673828125,2.268293619155884,-0.150196373462677,0.5930733680725098
1772721555695663400,9.210663330078125,2.0893101692199707,-0.034437503665685654,1.0347285270690918
1772721555714259500,9.229259521484375,1.939037561416626,0.5266417860984802,1.409799575805664
1772721555732855600,9.24785546875,1.8865031003952026,1.0547343492507935,1.4815762042999268
1772721555751451600,9.26645166015625,1.762803077697754,1.4832561016082764,1.1364375352859497
1772721555770048000,9.285048095703125,1.6128357648849487,1.7624212503433228,0.6468294262886047
1772721555788644000,9.30364404296875,1.484859585762024,1.7505093812942505,0.3771326541900635
1772721555807240200,9.322240234375,1.4888302087783813,1.6912554502487183,0.43516480922698975
1772721555825836300,9.340836181640626,1.6290236711502075,2.03486704826355,0.6801216006278992
1772721555844432400,9.359432373046875,1.9274311065673828,2.3170864582061768,0.7696132659912109
1772721555863028500,9.378028564453125,2.372140645980835,2.0067672729492188,0.4843394160270691
1772721555881624600,9.39662451171875,2.72430419921875,1.015944480895996,-0.11400263756513596
1772721555900221000,9.415220947265626,2.590219497680664,-0.4855611324310303,-0.1430187225341797
1772721555918817000,9.433817138671875,2.129627227783203,-0.17463096976280212,0.37285658717155457
1772721555937413000,9.4524130859375,1.8697043657302856,0.7911462187767029,0.041157014667987823
1772721555956009200,9.47100927734375,1.8923063278198242,1.1026872396469116,-1.2043962478637695
1772721555974605300,9.489605224609376,1.8712315559387207,0.7871756553649902,-2.133216142654419
1772721555993201400,9.508201416015625,1.5932880640029907,0.06879864633083344,-2.348851442337036
1772721556011797500,9.526797607421875,1.1846195459365845,0.10056361556053162,-2.337244987487793
1772721556030393900,9.545393798828124,0.9637919068336487,0.41241008043289185,-2.511035919189453
1772721556048990000,9.563989990234376,0.8626937866210938,0.5865065455436707,-2.535470724105835
1772721556067586000,9.5825859375,0.8028290271759033,0.2447277009487152,-2.457585334777832
1772721556086182100,9.60118212890625,0.9262236952781677,-0.4379136860370636,-2.191553831100464
1772721556104778200,9.6197783203125,1.3125957250595093,-0.862159252166748,-1.5266274213790894
1772721556123374300,9.638374267578126,1.6617048978805542,-0.9235512018203735,-0.5003746151924133
1772721556141970400,9.656970458984375,1.7741039991378784,-0.23907721042633057,0.48036879301071167
1772721556160566500,9.67556640625,1.7756311893463135,0.4289034307003021,1.0105993747711182
1772721556179162600,9.69416259765625,1.7389793395996094,0.7025708556175232,1.1336886882781982
1772721556197758700,9.7127587890625,1.6833906173706055,0.5022072196006775,1.0930662155151367
1772721556216355000,9.73135498046875,1.650098443031311,0.16409355401992798,0.9687551856040955
1772721556234951200,9.749951171875,1.6745331287384033,0.04650207981467247,0.704861581325531
1772721556253547300,9.76854736328125,1.6904155015945435,0.203799769282341,0.42569640278816223
1772721556272143400,9.787143310546876,1.6812525987625122,0.5871174335479736,0.24182608723640442
1772721556290739500,9.805739501953125,1.605505347251892,0.996091365814209,0.30260714888572693
1772721556309335600,9.82433544921875,1.4973822832107544,1.2108103036880493,0.6853139400482178
1772721556327931600,9.842931640625,1.510210394859314,1.4817289113998413,1.1529308557510376
1772721556346527700,9.86152783203125,1.7854050397872925,1.809152364730835,1.2277618646621704
1772721556365123800,9.880123779296875,2.3351833820343018,1.7468441724777222,0.8163444399833679
1772721556383720200,9.89872021484375,2.6586363315582275,0.9007964730262756,0.14775292575359344
1772721556402316000,9.91731591796875,2.473544120788574,0.3678169548511505,0.11812597513198853
1772721556420912400,9.935912353515626,2.0465497970581055,1.2382992506027222,0.30169084668159485
1772721556439508500,9.954508544921875,1.6183334589004517,1.088637351989746,-0.7114284038543701
1772721556458104600,9.9731044921875,1.3822343349456787,0.1628718227148056,-1.9740859270095825
1772721556476700700,9.99170068359375,1.3920080661773682,0.026648975908756256,-1.7978514432907104
1772721556495296800,10.010296875,1.6956079006195068,-0.09338594973087311,-1.1875975131988525
1772721556513892900,10.028892822265625,1.8920009136199951,-0.5219075679779053,-1.0260237455368042
1772721556532489000,10.047489013671875,1.5755729675292969,-1.0622174739837646,-1.3919317722320557
1772721556551085000,10.0660849609375,0.9579886794090271,-1.4879902601242065,-1.8668791055679321
1772721556569681200,10.08468115234375,0.7680097222328186,-1.261359453201294,-1.920940637588501
1772721556588277500,10.103277587890625,1.170875072479248,-0.5631409883499146,-1.4942516088485718
1772721556606873300,10.121873291015625,1.6797254085540771,0.26763513684272766,-0.7444151043891907
1772721556625469700,10.1404697265625,1.9622503519058228,0.7951168417930603,0.1404225379228592
1772721556644065800,10.159065673828126,1.9399538040161133,1.0443496704101562,0.8169552683830261
1772721556662662000,10.177661865234375,1.676365613937378,1.0217477083206177,0.9397391080856323
1772721556681258000,10.196258056640625,1.3348922729492188,0.8916335105895996,0.511217474937439
1772721556699854000,10.21485400390625,1.075885534286499,0.8528435826301575,-0.18455752730369568
1772721556718450200,10.2334501953125,0.8061888217926025,0.6986002326011658,-0.6530908346176147
1772721556737046300,10.25204638671875,0.6290380358695984,-0.004810560029000044,-0.6213258504867554
1772721556755642400,10.270642333984375,0.49342602491378784,-0.19845469295978546,-0.09323323518037796
1772721556774238500,10.289238525390624,0.40546149015426636,0.12896881997585297,0.5133554935455322
1772721556792834600,10.30783447265625,0.6937896609306335,0.3467421233654022,0.7622829079627991
1772721556811430700,10.3264306640625,1.1293362379074097,0.006185005884617567,0.48250681161880493
1772721556830026800,10.34502685546875,1.2835795879364014,0.4918225109577179,0.29100072383880615
1772721556848622800,10.363622802734374,1.4146101474761963,1.2428807020187378,0.08941533416509628
1772721556867219000,10.382218994140626,1.4430153369903564,1.3445897102355957,-0.11827868968248367
1772721556885815000,10.40081494140625,1.409417748451233,1.2297471761703491,-0.2294560819864273
1772721556904411100,10.4194111328125,1.282357931137085,0.7493020296096802,-0.4304305911064148
1772721556923007500,10.438007568359374,1.261283040046692,-0.1407279670238495,-0.7596867084503174
1772721556941603300,10.456603271484376,1.3623812198638916,-0.8945351243019104,-0.8192460536956787
1772721556960199700,10.47519970703125,1.547778606414795,-1.5148682594299316,-0.572151243686676
1772721556978795800,10.493795654296875,1.6323834657669067,-2.1544437408447266,-0.32047492265701294
1772721556997392000,10.512391845703124,1.401171088218689,-2.1678826808929443,-0.14912736415863037
1772721557015988000,10.530988037109376,1.0737475156784058,-1.3141992092132568,-0.3519344627857208
1772721557034584000,10.549583984375,1.012966513633728,0.36140286922454834,-0.7120392322540283
1772721557053180200,10.56818017578125,1.1614066362380981,1.543426275253296,-0.9698241949081421
1772721557071776300,10.5867763671875,1.2899936437606812,1.403843641281128,-0.9502764940261841
1772721557090372400,10.605372314453126,1.2899936437606812,0.5877282619476318,-0.6964622139930725
1772721557108968400,10.623968505859375,1.2194387912750244,0.07673988491296768,-0.3070359230041504
1772721557127564500,10.642564453125,1.133306860923767,0.05780307948589325,0.2012035846710205
1772721557146160600,10.66116064453125,1.1717913150787354,0.3372737169265747,0.7234929800033569
1772721557164757000,10.679757080078126,1.3724604845046997,0.6329322457313538,1.09520423412323
1772721557183352800,10.698352783203125,1.5355613231658936,0.5559632778167725,1.2173771858215332
1772721557201949000,10.716948974609375,1.4793617725372314,0.23403756320476532,1.0967313051223755
1772721557220545300,10.735545166015624,1.2707514762878418,0.12805253267288208,0.8038216829299927
1772721557239141000,10.75414111328125,1.1045962572097778,0.2651916742324829,0.5081631541252136
1772721557257737500,10.772737548828125,1.0719150304794312,0.7767909169197083,0.4831176698207855
1772721557276333600,10.79133349609375,1.2982404232025146,1.3256529569625854,0.6825650334358215
1772721557294929700,10.8099296875,1.5502220392227173,0.8739184141159058,0.5949059128761292
1772721557313525800,10.82852587890625,1.5569416284561157,-1.0157917737960815,-0.24258968234062195
1772721557332121900,10.847121826171875,1.5737403631210327,-1.5884774923324585,-0.719369649887085
1772721557350718000,10.865718017578125,1.409417748451233,-0.4479929506778717,-0.5391645431518555
1772721557369314000,10.88431396484375,1.0190751552581787,1.1069633960723877,-0.47410741448402405
1772721557387910100,10.90291015625,0.8712459206581116,0.8302416205406189,-1.2819761037826538
1772721557406506200,10.92150634765625,0.7408262491226196,0.19677481055259705,-1.920940637588501
1772721557425102300,10.940102294921875,0.9262236952781677,-0.06345357745885849,-1.8048763275146484
1772721557443698400,10.958698486328124,1.3315324783325195,-0.5142717957496643,-1.331150770187378
1772721557462294800,10.977294677734376,1.521206021308899,-0.6932551860809326,-0.4811323583126068
1772721557480891000,10.995890869140625,0.9793689846992493,-0.3951531648635864,0.15263983607292175
1772721557499487000,11.014487060546875,0.27717989683151245,-0.47151124477386475,-0.008628465235233307
1772721557518083000,11.0330830078125,-0.07284562289714813,-0.3850739002227783,-0.6161335110664368
1772721557536679200,11.05167919921875,0.06123919412493706,0.3931678533554077,-1.198593020439148
1772721557555275300,11.070275146484375,0.5291616320610046,1.2932771444320679,-1.2596795558929443
1772721557573871400,11.088871337890625,1.0847431421279907,1.383074164390564,-0.7624356150627136
1772721557592467500,11.107467529296875,1.448818564414978,0.895604133605957,0.08269581943750381
1772721557611063600,11.1260634765625,1.596953272819519,0.2917642891407013,0.7854957580566406
1772721557629659600,11.14465966796875,1.593898892402649,0.514729917049408,1.2864048480987549
1772721557648255700,11.163255859375,1.1198678016662598,0.7489965558052063,1.647120475769043
1772721557666852000,11.18185205078125,0.4390590488910675,0.36201372742652893,1.3325251340866089
1772721557685448000,11.200447998046876,0.22708898782730103,0.41241008043289185,0.8502474427223206
1772721557704044000,11.2190439453125,0.38957902789115906,0.8919389247894287,0.47578731179237366
1772721557722640400,11.237640380859375,0.7716749310493469,1.0000619888305664,0.2888626754283905
1772721557741236500,11.256236572265625,0.9958623051643372,0.6246855854988098,0.44493862986564636
1772721557759832600,11.27483251953125,0.7130318880081177,0.35651594400405884,1.018846035003662
1772721557778428700,11.2934287109375,0.15806126594543457,0.06085740402340889,1.6504802703857422
1772721557797024800,11.312024658203125,-0.26282456517219543,-1.083903193473816,1.8398483991622925
1772721557815620900,11.330620849609375,-0.055741410702466965,-1.1462113857269287,1.6859104633331299
1772721557834217000,11.349217041015624,0.3822486400604248,-0.5313760042190552,1.049083948135376
1772721557852813000,11.36781298828125,0.5004509687423706,-0.395764023065567,0.49258607625961304
1772721557871409200,11.3864091796875,0.007177661173045635,-1.8111376762390137,-0.5718457698822021
1772721557890005200,11.405005126953125,-0.5978838801383972,-2.2799763679504395,-1.5455642938613892
1772721557908601300,11.423601318359376,-0.7267763614654541,-1.4580578804016113,-2.0366995334625244
1772721557927197700,11.44219775390625,-0.6430879235267639,-0.34322965145111084,-1.9349905252456665
1772721557945793800,11.460793701171875,-0.33948808908462524,0.2920697331428528,-1.3656646013259888
1772721557964390000,11.479389892578125,-0.1724165827035904,0.6738601922988892,-0.6350703239440918
1772721557982986000,11.497986083984374,-0.35964664816856384,0.533666729927063,0.1856265366077423
1772721558001582000,11.51658203125,-0.7695369124412537,0.11400263756513596,0.9644791483879089
1772721558020178200,11.53517822265625,-1.041982650756836,-0.09460768103599548,1.2842668294906616
1772721558038774300,11.553774169921875,-1.0917680263519287,0.4289034307003021,1.2207368612289429
1772721558057370400,11.572370361328124,-0.9931133985519409,1.191873550415039,1.0780999660491943
1772721558075966500,11.590966552734375,-0.7108938694000244,1.137201189994812,0.7192169427871704
1772721558094562600,11.6095625,-0.3773617148399353,0.6894372701644897,0.29741477966308594
1772721558113158700,11.62815869140625,-0.21059563755989075,0.29451319575309753,-0.039477135986089706
1772721558131755000,11.646755126953124,-0.14309507608413696,0.040088001638650894,-0.08987347781658173
1772721558150350800,11.665350830078125,-0.2854265570640564,-0.06223184987902641,0.2525162398815155
1772721558168947200,11.683947265625,-0.7127264738082886,-0.07933606207370758,0.946458637714386
1772721558187543300,11.702543212890625,-1.3568834066390991,-1.4464514255523682,0.1862373948097229
1772721558206139400,11.721139404296874,-1.419497013092041,-1.427820086479187,-0.6671407222747803
1772721558224735500,11.739735595703126,-0.9237802624702454,-1.0542762279510498,-1.485088586807251
1772721558243331600,11.75833154296875,-0.42745262384414673,-0.6639336347579956,-2.0935099124908447
1772721558261927700,11.776927734375,-0.12660172581672668,-0.17890702188014984,-1.876042127609253
1772721558280523800,11.795523681640624,-0.15989385545253754,1.0110576152801514,-0.8259655237197876
1772721558299119900,11.814119873046875,-0.5175551772117615,1.5907682180404663,0.549091100692749
1772721558317716000,11.832716064453125,-0.8944587707519531,1.1255947351455688,1.715537428855896
1772721558336312000,11.85131201171875,-0.9427170753479004,-0.3337612450122833,1.9580507278442383
1772721558354908200,11.869908203125,-0.4534143805503845,-1.2066869735717773,1.4305689334869385
1772721558373504300,11.888504150390625,-0.06154462695121765,-1.2723549604415894,0.7409026026725769
1772721558392100600,11.9071005859375,0.2133445292711258,-0.7830522656440735,0.12301289290189743
1772721558410696400,11.925696533203125,0.17883066833019257,-0.01183550525456667,-0.2951240539550781
1772721558429292800,11.944292724609374,-0.13881902396678925,0.4820486605167389,-0.32994332909584045
1772721558447889000,11.962888916015626,-0.4848739206790924,0.6289616227149963,-0.01779143698513508
1772721558466485000,11.981485107421875,-0.5319104790687561,0.48998990654945374,0.1712712198495865
1772721558485081000,12.0000810546875,-0.30314165353775024,0.21235187351703644,0.1141553521156311
1772721558503677200,12.01867724609375,-0.09605848789215088,-0.16271910071372986,-0.08040507882833481
1772721558522273300,12.037273193359376,0.022449281066656113,-0.3050506114959717,-0.21082471311092377
