time,seconds_elapsed,z,y,x
1772720953292067600,0.100067626953125,0.00022907429956831038,-0.00022907429956831038,0.0009162971982732415
1772720953310663700,0.11866357421875,-0.00038179047987796366,-0.0011453714687377214,0.0009162971982732415
1772720953329260000,0.137260009765625,-0.00007635809743078426,-0.00022907429956831038,0.001221729558892548
1772720953347856100,0.155856201171875,-0.0006872228696011007,-0.000839939049910754,0.001221729558892548
1772720953366452200,0.1744521484375,-0.0006872228696011007,-0.00022907429956831038,0
1772720953385048600,0.193048583984375,0.000839939049910754,-0.0005345066892914474,0
1772720953403644700,0.211644775390625,-0.00007635809743078426,-0.0005345066892914474,0.0009162971982732415
1772720953422241000,0.230240966796875,0.0005345066892914474,0.00007635809743078426,0.001221729558892548
1772720953440837000,0.248837158203125,-0.0006872228696011007,-0.000839939049910754,0.000610864779446274
1772720953459433200,0.26743310546875,-0.00038179047987796366,-0.00022907429956831038,0.000610864779446274
1772720953478029600,0.286029541015625,-0.0012980876490473747,-0.0005345066892914474,0.000305432389723137
1772720953496625700,0.304625732421875,-0.0009926552884280682,-0.000839939049910754,0.000305432389723137
1772720953515221800,0.3232216796875,-0.00007635809743078426,0.00007635809743078426,0.0009162971982732415
1772720953533818000,0.341818115234375,0.00022907429956831038,-0.0005345066892914474,0.000610864779446274
1772720953552414200,0.360414306640625,-0.0006872228696011007,-0.00022907429956831038,0.000610864779446274
1772720953571010300,0.37901025390625,-0.00038179047987796366,0.0006872228696011007,0.000305432389723137
1772720953589606700,0.397606689453125,0.00022907429956831038,0.00007635809743078426,0.000305432389723137
1772720953608202800,0.41620263671875,-0.00038179047987796366,0.00007635809743078426,0
1772720953626798800,0.434798828125,-0.00007635809743078426,-0.00022907429956831038,0.001221729558892548
1772720953645395200,0.453395263671875,0.0005345066892914474,-0.0005345066892914474,0.0009162971982732415
1772720953673289500,0.48128955078125,0.00022907429956831038,-0.000839939049910754,0.0015271619195118546
1772720953691885600,0.499885498046875,-0.00038179047987796366,0.00007635809743078426,0.0009162971982732415
1772720953710481700,0.518481689453125,-0.00007635809743078426,0.00007635809743078426,0.000610864779446274
1772720953729078000,0.537078125,0.00022907429956831038,0.0009926552884280682,-0.000305432389723137
1772720953747674000,0.555674072265625,0.00022907429956831038,0.00007635809743078426,0.001221729558892548
1772720953766270200,0.574270263671875,0.00022907429956831038,-0.00022907429956831038,0.000610864779446274
1772720953784866300,0.5928662109375,0.0005345066892914474,-0.000839939049910754,0.001221729558892548
1772720953803462700,0.611462646484375,0.00022907429956831038,0.00038179047987796366,0.0015271619195118546
1772720953822058800,0.630058837890625,-0.0006872228696011007,-0.000839939049910754,0.001221729558892548
1772720953840654800,0.64865478515625,0.00022907429956831038,-0.000839939049910754,0.001221729558892548
1772720953859251200,0.667251220703125,0.000839939049910754,-0.00022907429956831038,0
1772720953877847300,0.685847412109375,0.0005345066892914474,0.00007635809743078426,0.001221729558892548
1772720953896443400,0.704443359375,-0.00007635809743078426,0.00038179047987796366,0.0009162971982732415
1772720953915039700,0.723039794921875,-0.0009926552884280682,0.0006872228696011007,0.001221729558892548
1772720953933635800,0.7416357421875,0.0005345066892914474,-0.0005345066892914474,0.000305432389723137
1772720953952232000,0.76023193359375,0.0011453714687377214,-0.0005345066892914474,0.0015271619195118546
1772720953970828000,0.778828125,0.0005345066892914474,-0.0005345066892914474,0.000305432389723137
1772720953989424400,0.79742431640625,0.0005345066892914474,0.00007635809743078426,0.0009162971982732415
1772720954008020500,0.8160205078125,-0.00007635809743078426,0.00007635809743078426,0.0009162971982732415
1772720954026616600,0.834616455078125,0.000839939049910754,0.00038179047987796366,0.0015271619195118546
1772720954045213000,0.853212890625,0.0005345066892914474,-0.00022907429956831038,0.000305432389723137
1772720954063809000,0.87180908203125,0.001450803829357028,-0.000839939049910754,0.000305432389723137
1772720954082405000,0.890405029296875,0.00022907429956831038,0.0006872228696011007,0.0009162971982732415
1772720954101001500,0.90900146484375,0.000839939049910754,0.00007635809743078426,0.0015271619195118546
1772720954119597600,0.92759765625,0.000839939049910754,-0.00022907429956831038,0.001221729558892548
1772720954138193700,0.946193603515625,0.00022907429956831038,-0.000839939049910754,0.0009162971982732415
1772720954156790000,0.9647900390625,-0.00007635809743078426,0.00038179047987796366,0.001221729558892548
1772720954175386000,0.98338623046875,0.0011453714687377214,-0.0005345066892914474,0.0021380267571657896
1772720954193982200,1.001982177734375,0.0005345066892914474,-0.0005345066892914474,0.001221729558892548
1772720954212578600,1.02057861328125,-0.00038179047987796366,0.00038179047987796366,0.001221729558892548
1772720954231174700,1.039174560546875,0.000839939049910754,0.00007635809743078426,0.000610864779446274
1772720954249771000,1.05777099609375,-0.00038179047987796366,0.0006872228696011007,0.000610864779446274
1772720954268367000,1.0763671875,0.00022907429956831038,-0.00022907429956831038,0.001221729558892548
1772720954286963500,1.09496337890625,0.000839939049910754,0.0006872228696011007,0.001221729558892548
1772720954305559600,1.1135595703125,0.00022907429956831038,0.00007635809743078426,0.0015271619195118546
1772720954324155600,1.13215576171875,0.00022907429956831038,-0.00022907429956831038,0.000610864779446274
1772720954342752000,1.150751953125,0.001450803829357028,-0.0005345066892914474,0.001221729558892548
1772720954361348000,1.16934814453125,-0.00007635809743078426,-0.00022907429956831038,0.001221729558892548
1772720954379944400,1.1879443359375,0.001450803829357028,0.0006872228696011007,0.001221729558892548
1772720954398540500,1.20654052734375,0.000839939049910754,0.00007635809743078426,0.0009162971982732415
1772720954417137000,1.225136962890625,0.00022907429956831038,-0.00022907429956831038,0.0009162971982732415
1772720954435733000,1.24373291015625,0.00022907429956831038,0.00007635809743078426,0.001221729558892548
1772720954454329000,1.2623291015625,-0.00007635809743078426,-0.000839939049910754,0.0015271619195118546
1772720954472925400,1.280925537109375,0.001450803829357028,-0.00022907429956831038,0.000305432389723137
1772720954491521800,1.299521728515625,0.000839939049910754,-0.000839939049910754,0.0009162971982732415
1772720954510118000,1.318117919921875,0.0011453714687377214,-0.000839939049910754,0.001832594396546483
1772720954528714200,1.33671435546875,0.00022907429956831038,0.00007635809743078426,0.0009162971982732415
1772720954547310300,1.355310302734375,0.00022907429956831038,0.00007635809743078426,0.0015271619195118546
1772720954565906700,1.37390673828125,0.001450803829357028,0.00038179047987796366,0.0015271619195118546
1772720954584502800,1.392502685546875,0.0011453714687377214,0.00007635809743078426,0.0009162971982732415
1772720954603099100,1.41109912109375,0.000839939049910754,-0.000839939049910754,0.0009162971982732415
1772720954621695200,1.4296953125,0.0011453714687377214,-0.0005345066892914474,0.000610864779446274
1772720954640291600,1.44829150390625,0.0011453714687377214,0.0009926552884280682,0.0015271619195118546
1772720954658888000,1.466887939453125,0.0005345066892914474,0.00038179047987796366,0.0015271619195118546
1772720954677484300,1.485484375,0.001450803829357028,0.00007635809743078426,0.000610864779446274
1772720954696080400,1.504080322265625,0.00022907429956831038,-0.0005345066892914474,0
1772720954714676700,1.5226767578125,0.001450803829357028,0.00007635809743078426,0.0015271619195118546
1772720954733272800,1.54127294921875,0.000839939049910754,-0.00022907429956831038,0.0009162971982732415
1772720954751869200,1.559869140625,0.0005345066892914474,-0.000839939049910754,0.0015271619195118546
1772720954770465500,1.578465576171875,0.001450803829357028,0.00038179047987796366,0.0015271619195118546
1772720954789062000,1.597061767578125,0.0005345066892914474,0.00007635809743078426,0.001221729558892548
1772720954807658200,1.615658203125,0.0005345066892914474,-0.00022907429956831038,0.0009162971982732415
1772720954826254300,1.63425439453125,0.000839939049910754,-0.00022907429956831038,0.0009162971982732415
1772720954844850700,1.6528505859375,0.000839939049910754,-0.0005345066892914474,0.0015271619195118546
1772720954863447000,1.671447021484375,0.0017562361899763346,-0.00022907429956831038,0.0015271619195118546
1772720954882043400,1.69004345703125,0.0005345066892914474,-0.000839939049910754,0.0009162971982732415
1772720954900639700,1.7086396484375,0.000839939049910754,-0.00022907429956831038,0.0009162971982732415
1772720954919235800,1.72723583984375,0.000839939049910754,-0.0005345066892914474,0
1772720954937832200,1.745832275390625,-0.00038179047987796366,0.00038179047987796366,0.001832594396546483
1772720954956428500,1.764428466796875,0.0011453714687377214,-0.00022907429956831038,0.001221729558892548
1772720954975025000,1.78302490234375,0.00022907429956831038,0.00007635809743078426,0.0009162971982732415
1772720954993621200,1.801621337890625,0.000839939049910754,0.00038179047987796366,0.0015271619195118546
1772720955012217600,1.820217529296875,0.001450803829357028,-0.00022907429956831038,0.0009162971982732415
1772720955030814000,1.83881396484375,0.0017562361899763346,-0.0005345066892914474,0.001832594396546483
1772720955049410300,1.857410400390625,-0.00007635809743078426,0.0006872228696011007,0.001221729558892548
1772720955068006700,1.876006591796875,0.000839939049910754,0.00007635809743078426,0.001832594396546483
1772720955086603300,1.894603271484375,0.0011453714687377214,0.0006872228696011007,0.001221729558892548
1772720955105199600,1.91319970703125,0.000839939049910754,-0.000839939049910754,0.0015271619195118546
1772720955123796000,1.9317958984375,0.0005345066892914474,-0.00022907429956831038,0.0015271619195118546
1772720955142392300,1.950392333984375,0.000839939049910754,0.0009926552884280682,0.001832594396546483
1772720955160988700,1.96898876953125,0.000839939049910754,-0.00022907429956831038,0.000610864779446274
1772720955179585000,1.9875849609375,0.000839939049910754,-0.00022907429956831038,0.0009162971982732415
1772720955198181400,2.006181396484375,0.00022907429956831038,0.00038179047987796366,0.001221729558892548
1772720955216777700,2.02477783203125,0.000839939049910754,0.00038179047987796366,0.001832594396546483
1772720955235374000,2.0433740234375,0.0011453714687377214,-0.00022907429956831038,0.002443459117785096
1772720955253970700,2.061970703125,0.002061668550595641,-0.0011453714687377214,0.001832594396546483
1772720955272567000,2.080567138671875,0.0017562361899763346,-0.0011453714687377214,0.001832594396546483
1772720955291163400,2.099163330078125,0.000839939049910754,-0.000839939049910754,0.001221729558892548
1772720955309760000,2.117760009765625,0.0017562361899763346,-0.0005345066892914474,0.001832594396546483
1772720955328356400,2.1363564453125,0.000839939049910754,0.00007635809743078426,0.001221729558892548
1772720955346952700,2.15495263671875,0.001450803829357028,-0.00022907429956831038,0.0021380267571657896
1772720955365549000,2.173549072265625,0.001450803829357028,-0.000839939049910754,0.0009162971982732415
1772720955384145700,2.192145751953125,0.0011453714687377214,-0.0011453714687377214,0.0027488914784044027
1772720955402742000,2.210741943359375,0.001450803829357028,0.00038179047987796366,0.002443459117785096
1772720955421338600,2.229338623046875,0.0017562361899763346,-0.00022907429956831038,0.0015271619195118546
1772720955439935000,2.24793505859375,0.0005345066892914474,-0.0005345066892914474,0.001832594396546483
1772720955458531600,2.266531494140625,0.0011453714687377214,-0.00022907429956831038,0.0021380267571657896
1772720955477128000,2.2851279296875,0.000839939049910754,-0.0005345066892914474,0.000610864779446274
1772720955495724500,2.303724609375,0.0005345066892914474,0.00038179047987796366,0.0015271619195118546
1772720955514321000,2.32232080078125,0.0011453714687377214,0.00007635809743078426,0.001832594396546483
1772720955532917500,2.34091748046875,0.0017562361899763346,-0.000839939049910754,0.0030543238390237093
1772720955551513900,2.359513916015625,0.0005345066892914474,0.00038179047987796366,0.0015271619195118546
1772720955570110500,2.3781103515625,0.0005345066892914474,0.00007635809743078426,0.002443459117785096
1772720955588707000,2.39670703125,0.0011453714687377214,0.0006872228696011007,0.001832594396546483
1772720955607303400,2.415303466796875,0.000839939049910754,-0.000839939049910754,0.0015271619195118546
1772720955625900000,2.433900146484375,0.0017562361899763346,-0.000839939049910754,0.001832594396546483
1772720955644496400,2.452496337890625,0.001450803829357028,-0.0005345066892914474,0.0009162971982732415
1772720955663093000,2.471093017578125,0.002061668550595641,-0.0005345066892914474,0.002443459117785096
1772720955681689600,2.489689697265625,0.000839939049910754,-0.00022907429956831038,0.0009162971982732415
1772720955700286000,2.508285888671875,0.0005345066892914474,-0.00022907429956831038,0.001832594396546483
1772720955718882600,2.526882568359375,0.0011453714687377214,-0.00022907429956831038,0.002443459117785096
1772720955737479200,2.545479248046875,0.0017562361899763346,-0.0005345066892914474,0.001832594396546483
1772720955756075800,2.56407568359375,0.0011453714687377214,0.00038179047987796366,0.0015271619195118546
1772720955774672400,2.58267236328125,0.0011453714687377214,-0.000839939049910754,0.001832594396546483
1772720955793269000,2.60126904296875,0.0005345066892914474,0.00007635809743078426,0.0021380267571657896
1772720955811865300,2.619865234375,0.00022907429956831038,-0.00022907429956831038,0.0021380267571657896
1772720955830462000,2.6384619140625,0.0011453714687377214,-0.0005345066892914474,0.0027488914784044027
1772720955849058600,2.65705859375,0.0011453714687377214,-0.000839939049910754,0.0015271619195118546
1772720955867655200,2.6756552734375,0.0011453714687377214,-0.000839939049910754,0.0027488914784044027
1772720955886251800,2.694251708984375,0.0005345066892914474,-0.00022907429956831038,0.0015271619195118546
1772720955904848400,2.712848388671875,0.0017562361899763346,0.00038179047987796366,0.0015271619195118546
1772720955923445000,2.731445068359375,0.000839939049910754,-0.00022907429956831038,0.0021380267571657896
1772720955942041600,2.75004150390625,0.0005345066892914474,0.00038179047987796366,0.0027488914784044027
1772720955960638200,2.76863818359375,0.0005345066892914474,-0.000839939049910754,0.001221729558892548
1772720955979234800,2.78723486328125,0.0017562361899763346,-0.0005345066892914474,0.001832594396546483
1772720955997831400,2.80583154296875,0.0011453714687377214,-0.0005345066892914474,0.001832594396546483
1772720956016428000,2.824427978515625,0.00022907429956831038,0.00038179047987796366,0.001832594396546483
1772720956035024600,2.843024658203125,0.0005345066892914474,-0.00022907429956831038,0.0027488914784044027
1772720956053621200,2.861621337890625,0.001450803829357028,0.00038179047987796366,0.001832594396546483
1772720956072217900,2.8802177734375,0.000839939049910754,-0.0005345066892914474,0.0015271619195118546
1772720956090814700,2.898814697265625,0.002061668550595641,0.00007635809743078426,0.0021380267571657896
1772720956109411300,2.917411376953125,0.0011453714687377214,-0.0005345066892914474,0.002443459117785096
1772720956128008000,2.936008056640625,0.002672533504664898,-0.000839939049910754,0.001832594396546483
1772720956146604500,2.9546044921875,0.0005345066892914474,0.00007635809743078426,0.0021380267571657896
1772720956165201200,2.973201171875,0.001450803829357028,0.00007635809743078426,0.0015271619195118546
1772720956183798000,2.991798095703125,0.001450803829357028,0.00038179047987796366,0.002443459117785096
1772720956202394600,3.01039453125,0.000839939049910754,0.00007635809743078426,0.001832594396546483
1772720956220991200,3.0289912109375,0.002061668550595641,-0.0011453714687377214,0.0015271619195118546
1772720956239587800,3.047587890625,0.000839939049910754,0.00007635809743078426,0.0015271619195118546
1772720956258184700,3.066184814453125,0.0017562361899763346,-0.00022907429956831038,0.002443459117785096
1772720956276781300,3.08478125,0.000839939049910754,0.00007635809743078426,0.0021380267571657896
1772720956295378000,3.1033779296875,0.001450803829357028,-0.0011453714687377214,0.0021380267571657896
1772720956313974800,3.121974853515625,0.001450803829357028,-0.00022907429956831038,0.001832594396546483
1772720956332571400,3.1405712890625,0.0017562361899763346,0.00007635809743078426,0.0021380267571657896
1772720956351168300,3.159168212890625,0.001450803829357028,-0.000839939049910754,0.001832594396546483
1772720956369764900,3.177764892578125,0.001450803829357028,-0.001450803829357028,0.001832594396546483
1772720956388361500,3.196361572265625,0.000839939049910754,0.00007635809743078426,0.0021380267571657896
1772720956406958300,3.214958251953125,0.0011453714687377214,0.00007635809743078426,0.0021380267571657896
1772720956425555000,3.233554931640625,0.0017562361899763346,0.00007635809743078426,0.0027488914784044027
1772720956444151800,3.25215185546875,0.000839939049910754,-0.00022907429956831038,0.002443459117785096
1772720956462748400,3.27074853515625,0.000839939049910754,0.0006872228696011007,0.0021380267571657896
1772720956481345300,3.28934521484375,0.0023671009112149477,-0.0005345066892914474,0.0030543238390237093
1772720956499942000,3.30794189453125,0.0017562361899763346,-0.000839939049910754,0.0015271619195118546
1772720956518538800,3.326538818359375,0.0017562361899763346,-0.0005345066892914474,0.002443459117785096
1772720956537135400,3.34513525390625,0.000839939049910754,-0.0005345066892914474,0.002443459117785096
1772720956555732200,3.363732177734375,0.001450803829357028,-0.00022907429956831038,0.0015271619195118546
1772720956574329000,3.3823291015625,0.000839939049910754,0.00038179047987796366,0.0027488914784044027
1772720956592925700,3.40092578125,0.0023671009112149477,-0.0005345066892914474,0.0030543238390237093
1772720956611522600,3.4195224609375,0.0023671009112149477,0.00007635809743078426,0.003359756199643016
1772720956630119200,3.438119140625,0.0005345066892914474,-0.0005345066892914474,0.002443459117785096
1772720956648716000,3.456716064453125,0.0023671009112149477,-0.0011453714687377214,0.001832594396546483
1772720956667313000,3.47531298828125,0.0017562361899763346,-0.001450803829357028,0.0021380267571657896
1772720956685909800,3.49390966796875,0.0011453714687377214,0.00038179047987796366,0.0021380267571657896
1772720956704506400,3.51250634765625,0.001450803829357028,-0.0005345066892914474,0.0021380267571657896
1772720956723103200,3.531103271484375,0.0017562361899763346,-0.00022907429956831038,0.001832594396546483
1772720956741700000,3.5497001953125,0.001450803829357028,-0.00022907429956831038,0.0030543238390237093
1772720956760297000,3.568296875,0.0017562361899763346,-0.0011453714687377214,0.0021380267571657896
1772720956778893600,3.5868935546875,0.001450803829357028,0.00007635809743078426,0.002443459117785096
1772720956797490400,3.605490478515625,0.0023671009112149477,0.00007635809743078426,0.003665188793092966
1772720956816087300,3.62408740234375,0.0005345066892914474,0.00007635809743078426,0.003359756199643016
1772720956834684200,3.64268408203125,0.0017562361899763346,0.00007635809743078426,0.0027488914784044027
1772720956853281000,3.661281005859375,0.000839939049910754,-0.0011453714687377214,0.0027488914784044027
1772720956871877600,3.679877685546875,0.0035888305865228176,-0.00022907429956831038,0.0027488914784044027
1772720956890474500,3.698474609375,0.001450803829357028,-0.000839939049910754,0.0021380267571657896
1772720956909071400,3.7170712890625,0.0005345066892914474,-0.00022907429956831038,0.0021380267571657896
1772720956927668200,3.735668212890625,0.000839939049910754,0.0016035200096666813,0.003359756199643016
1772720956946265000,3.75426513671875,0.0005345066892914474,-0.000839939049910754,0.0030543238390237093
1772720956964862000,3.772862060546875,0.0023671009112149477,-0.0005345066892914474,0.003665188793092966
1772720956983458800,3.791458740234375,0.002061668550595641,-0.0011453714687377214,0.0021380267571657896
1772720957002055700,3.8100556640625,0.0017562361899763346,-0.0005345066892914474,0.0027488914784044027
1772720957020652300,3.82865234375,0.002061668550595641,0.00007635809743078426,0.0021380267571657896
1772720957039249400,3.84724951171875,0.000839939049910754,0.00007635809743078426,0.0021380267571657896
1772720957057846300,3.86584619140625,0.001450803829357028,0.00038179047987796366,0.003359756199643016
1772720957076443100,3.884443115234375,0.001450803829357028,-0.001450803829357028,0.0027488914784044027
1772720957095040000,3.9030400390625,0.0023671009112149477,-0.001450803829357028,0.0030543238390237093
1772720957113636900,3.921636962890625,0.002061668550595641,-0.0011453714687377214,0.002443459117785096
1772720957132233700,3.940233642578125,0.000839939049910754,-0.0005345066892914474,0.0021380267571657896
1772720957150830600,3.95883056640625,0.000839939049910754,0.00038179047987796366,0.002443459117785096
1772720957169427500,3.977427490234375,0.002061668550595641,0.00007635809743078426,0.002443459117785096
1772720957188024300,3.9960244140625,0.002672533504664898,-0.000839939049910754,0.0030543238390237093
1772720957206621200,4.01462109375,0.001450803829357028,-0.00022907429956831038,0.002443459117785096
1772720957225218000,4.033218017578125,0.0011453714687377214,0.00007635809743078426,0.0021380267571657896
1772720957243815000,4.05181494140625,0.0017562361899763346,-0.00022907429956831038,0.002443459117785096
1772720957262411800,4.070411865234375,0.0017562361899763346,-0.00022907429956831038,0.002443459117785096
1772720957281008600,4.089008544921875,0.002061668550595641,-0.000839939049910754,0.001832594396546483
1772720957299605800,4.107605712890625,0.001450803829357028,0.00038179047987796366,0.002443459117785096
1772720957318202600,4.12620263671875,0.0005345066892914474,-0.0005345066892914474,0.001832594396546483
1772720957336799500,4.144799560546875,0.002061668550595641,-0.00022907429956831038,0.002443459117785096
1772720957355396400,4.163396240234375,0.0005345066892914474,-0.0005345066892914474,0.003359756199643016
1772720957373993200,4.1819931640625,0.0011453714687377214,-0.0005345066892914474,0.001832594396546483
1772720957392590300,4.20059033203125,0.001450803829357028,-0.0005345066892914474,0.0015271619195118546
1772720957411187200,4.219187255859375,0.0023671009112149477,-0.000839939049910754,0.0030543238390237093
1772720957429784000,4.2377841796875,0.001450803829357028,0.00007635809743078426,0.0030543238390237093
1772720957448381000,4.256380859375,0.0011453714687377214,0.00007635809743078426,0.0030543238390237093
1772720957466978000,4.27497802734375,0.000839939049910754,-0.0005345066892914474,0.003665188793092966
1772720957485575000,4.293574951171875,0.0023671009112149477,-0.000839939049910754,0.001832594396546483
1772720957504171800,4.312171875,0.001450803829357028,-0.0005345066892914474,0.0021380267571657896
1772720957522768600,4.3307685546875,0.002061668550595641,-0.00022907429956831038,0.0021380267571657896
1772720957541365800,4.34936572265625,0.001450803829357028,-0.000839939049910754,0.0027488914784044027
1772720957559962600,4.367962646484375,0.000839939049910754,-0.0005345066892914474,0.0027488914784044027
1772720957578559500,4.3865595703125,0.001450803829357028,-0.001450803829357028,0.0027488914784044027
1772720957597156400,4.40515625,0.0017562361899763346,-0.0005345066892914474,0.002443459117785096
1772720957615753500,4.42375341796875,0.002061668550595641,-0.00022907429956831038,0.002443459117785096
1772720957634350300,4.442350341796875,0.001450803829357028,-0.0005345066892914474,0.0027488914784044027
1772720957652947500,4.460947509765625,0.0005345066892914474,-0.0005345066892914474,0.002443459117785096
1772720957671544300,4.47954443359375,0.001450803829357028,-0.0005345066892914474,0.003359756199643016
1772720957690141400,4.498141357421875,0.002061668550595641,-0.00022907429956831038,0.0021380267571657896
1772720957708738300,4.51673828125,0.002061668550595641,-0.000839939049910754,0.0021380267571657896
1772720957727335400,4.53533544921875,0.001450803829357028,-0.0011453714687377214,0.0027488914784044027
1772720957745932300,4.553932373046875,0.001450803829357028,-0.000839939049910754,0.002443459117785096
1772720957764529400,4.572529296875,0.002061668550595641,-0.00022907429956831038,0.0027488914784044027
1772720957783126300,4.591126220703125,0.0011453714687377214,-0.0011453714687377214,0.0015271619195118546
1772720957801723100,4.60972314453125,0.001450803829357028,-0.00022907429956831038,0.0030543238390237093
1772720957820320300,4.6283203125,0.0017562361899763346,-0.0011453714687377214,0.003665188793092966
1772720957838917400,4.64691748046875,0.0017562361899763346,-0.00022907429956831038,0.0021380267571657896
1772720957857514200,4.66551416015625,0.0023671009112149477,0.00007635809743078426,0.0027488914784044027
1772720957876111400,4.684111328125,0.0017562361899763346,-0.000839939049910754,0.0030543238390237093
1772720957894708200,4.702708251953125,0.002061668550595641,-0.0005345066892914474,0.0021380267571657896
1772720957913305300,4.721305419921875,0.002061668550595641,-0.0005345066892914474,0.0030543238390237093
1772720957931902200,4.739902099609375,0.002061668550595641,-0.00022907429956831038,0.0027488914784044027
1772720957950499300,4.758499267578125,0.001450803829357028,-0.0005345066892914474,0.003665188793092966
1772720957969096400,4.777096435546875,0.002061668550595641,-0.00022907429956831038,0.001832594396546483
1772720957987693300,4.795693359375,0.001450803829357028,-0.0005345066892914474,0.0027488914784044027
1772720958006290400,4.81429052734375,0.001450803829357028,-0.000839939049910754,0.003359756199643016
1772720958024887300,4.83288720703125,0.0023671009112149477,-0.0011453714687377214,0.0027488914784044027
1772720958043484400,4.851484375,0.001450803829357028,-0.000839939049910754,0.003359756199643016
1772720958062081500,4.87008154296875,0.002672533504664898,-0.0005345066892914474,0.003359756199643016
1772720958080678700,4.8886787109375,0.0017562361899763346,0.00007635809743078426,0.002443459117785096
1772720958099275500,4.907275634765625,0.001450803829357028,-0.0005345066892914474,0.0027488914784044027
1772720958117872600,4.92587255859375,0.0017562361899763346,-0.0011453714687377214,0.003359756199643016
1772720958136469800,4.9444697265625,0.0017562361899763346,-0.0011453714687377214,0.003970621153712273
1772720958155067000,4.96306689453125,0.001450803829357028,-0.0011453714687377214,0.0027488914784044027
1772720958173663700,4.981663818359375,0.002672533504664898,-0.0005345066892914474,0.0030543238390237093
1772720958192260900,5.0002607421875,0.0017562361899763346,-0.000839939049910754,0.0030543238390237093
1772720958210858000,5.01885791015625,0.000839939049910754,0.00007635809743078426,0.0030543238390237093
1772720958229455000,5.037455078125,0.001450803829357028,-0.00022907429956831038,0.0027488914784044027
1772720958248052000,5.056052001953125,0.0017562361899763346,-0.00022907429956831038,0.0030543238390237093
1772720958266649000,5.074649169921875,0.0017562361899763346,-0.00022907429956831038,0.0027488914784044027
1772720958285246200,5.09324609375,0.0017562361899763346,0.00007635809743078426,0.003359756199643016
1772720958303843300,5.11184326171875,0.002061668550595641,-0.000839939049910754,0.0027488914784044027
1772720958322440400,5.1304404296875,0.0017562361899763346,-0.00022907429956831038,0.0027488914784044027
1772720958341037600,5.14903759765625,0.0017562361899763346,-0.0005345066892914474,0.0027488914784044027
1772720958359634700,5.167634765625,0.002061668550595641,-0.0005345066892914474,0.003359756199643016
1772720958378231600,5.1862314453125,0.001450803829357028,-0.001450803829357028,0.002443459117785096
1772720958396828700,5.20482861328125,0.002061668550595641,-0.00022907429956831038,0.0030543238390237093
1772720958415425800,5.22342578125,0.001450803829357028,-0.00022907429956831038,0.0027488914784044027
1772720958434023000,5.24202294921875,0.0023671009112149477,-0.000839939049910754,0.003970621153712273
1772720958452620000,5.2606201171875,0.001450803829357028,-0.00022907429956831038,0.003359756199643016
1772720958471217200,5.279217041015625,0.0023671009112149477,-0.0005345066892914474,0.003665188793092966
1772720958489814300,5.297814208984375,0.002061668550595641,-0.0005345066892914474,0.002443459117785096
1772720958508411400,5.316411376953125,0.001450803829357028,-0.0005345066892914474,0.003665188793092966
1772720958527008500,5.335008544921875,0.002061668550595641,-0.0005345066892914474,0.003665188793092966
1772720958545605600,5.353605712890625,0.0017562361899763346,0.00007635809743078426,0.003359756199643016
1772720958564202800,5.37220263671875,0.001450803829357028,-0.0005345066892914474,0.003359756199643016
1772720958582800000,5.3907998046875,0.0011453714687377214,-0.0005345066892914474,0.0030543238390237093
1772720958601397000,5.40939697265625,0.000839939049910754,-0.000839939049910754,0.0021380267571657896
1772720958619994000,5.427994140625,0.0023671009112149477,-0.0011453714687377214,0.0027488914784044027
1772720958638591200,5.44659130859375,0.0017562361899763346,-0.0011453714687377214,0.0027488914784044027
1772720958657188400,5.465188232421875,0.002061668550595641,-0.00022907429956831038,0.0030543238390237093
1772720958675785500,5.483785400390625,0.001450803829357028,-0.00022907429956831038,0.0027488914784044027
1772720958694382600,5.502382568359375,0.002061668550595641,-0.000839939049910754,0.002443459117785096
1772720958712980000,5.52097998046875,0.002061668550595641,-0.0005345066892914474,0.0030543238390237093
1772720958731577000,5.5395771484375,0.002061668550595641,-0.0011453714687377214,0.0027488914784044027
1772720958750174200,5.55817431640625,0.002061668550595641,-0.0005345066892914474,0.0030543238390237093
1772720958768771300,5.576771240234375,0.002061668550595641,-0.0005345066892914474,0.003665188793092966
1772720958787368400,5.595368408203125,0.002061668550595641,-0.00022907429956831038,0.003359756199643016
1772720958805965600,5.613965576171875,0.0017562361899763346,-0.000839939049910754,0.003665188793092966
1772720958824563000,5.63256298828125,0.001450803829357028,-0.0005345066892914474,0.002443459117785096
1772720958843160000,5.65116015625,0.0017562361899763346,-0.0005345066892914474,0.002443459117785096
1772720958861757200,5.669757080078125,0.0023671009112149477,-0.0005345066892914474,0.003359756199643016
1772720958880354300,5.688354248046875,0.0017562361899763346,-0.00022907429956831038,0.003665188793092966
1772720958898951400,5.706951416015625,0.0023671009112149477,-0.000839939049910754,0.003359756199643016
1772720958917548500,5.725548583984375,0.0011453714687377214,0.00007635809743078426,0.003359756199643016
1772720958936146000,5.74414599609375,0.0011453714687377214,-0.00022907429956831038,0.0027488914784044027
1772720958954743000,5.762742919921875,0.0023671009112149477,0.00007635809743078426,0.0030543238390237093
1772720958973340200,5.781340087890625,0.0005345066892914474,0.00007635809743078426,0.002443459117785096
1772720958991937300,5.799937255859375,0.0017562361899763346,-0.0005345066892914474,0.003665188793092966
1772720959010534700,5.81853466796875,0.0017562361899763346,-0.000839939049910754,0.0030543238390237093
1772720959029131800,5.8371318359375,0.0023671009112149477,0.0006872228696011007,0.0030543238390237093
1772720959047729200,5.855729248046875,0.0017562361899763346,0.00007635809743078426,0.0030543238390237093
1772720959066326300,5.874326171875,0.0023671009112149477,-0.0005345066892914474,0.003359756199643016
1772720959084923400,5.89292333984375,0.0023671009112149477,0.0006872228696011007,0.004276053514331579
1772720959103520500,5.9115205078125,0.001450803829357028,0.00007635809743078426,0.0030543238390237093
1772720959122118000,5.930117919921875,0.002061668550595641,-0.0005345066892914474,0.003359756199643016
1772720959140715000,5.948715087890625,0.002061668550595641,0.00007635809743078426,0.003970621153712273
1772720959159312400,5.9673125,0.002061668550595641,-0.00022907429956831038,0.003970621153712273
1772720959177909500,5.985909423828125,0.001450803829357028,0.00007635809743078426,0.003665188793092966
1772720959196507000,6.0045068359375,0.002061668550595641,-0.0005345066892914474,0.003359756199643016
1772720959215104000,6.02310400390625,0.0017562361899763346,-0.0011453714687377214,0.003970621153712273
1772720959233701400,6.041701416015625,0.0017562361899763346,-0.0005345066892914474,0.0030543238390237093
1772720959252298500,6.060298583984375,0.0017562361899763346,-0.0017562361899763346,0.003665188793092966
1772720959270895600,6.0788955078125,0.002061668550595641,-0.0005345066892914474,0.0027488914784044027
1772720959289493000,6.097492919921875,0.002061668550595641,0.00038179047987796366,0.0030543238390237093
1772720959308090000,6.116090087890625,0.0017562361899763346,0.0006872228696011007,0.003359756199643016
1772720959326687500,6.1346875,0.0011453714687377214,-0.0011453714687377214,0.0030543238390237093
1772720959345284600,6.15328466796875,0.002061668550595641,0.00007635809743078426,0.003359756199643016
1772720959363882000,6.171882080078125,0.002061668550595641,-0.00022907429956831038,0.003359756199643016
1772720959382479000,6.19047900390625,0.002061668550595641,-0.000839939049910754,0.004276053514331579
1772720959401076500,6.209076416015625,0.002061668550595641,-0.0005345066892914474,0.003665188793092966
1772720959419673900,6.227673828125,0.0023671009112149477,-0.001450803829357028,0.003359756199643016
1772720959438271000,6.24627099609375,0.001450803829357028,-0.0005345066892914474,0.0027488914784044027
1772720959456868400,6.264868408203125,0.0023671009112149477,0.00007635809743078426,0.003970621153712273
1772720959475465500,6.283465576171875,0.003283398225903511,-0.0005345066892914474,0.003359756199643016
1772720959494062800,6.302062744140625,0.0011453714687377214,0.00007635809743078426,0.0030543238390237093
1772720959512660000,6.320659912109375,0.0011453714687377214,-0.000839939049910754,0.002443459117785096
1772720959531257300,6.33925732421875,0.0017562361899763346,0.00038179047987796366,0.003665188793092966
1772720959549854700,6.357854736328125,0.0023671009112149477,0.00007635809743078426,0.003970621153712273
1772720959568451800,6.376451904296875,0.0023671009112149477,-0.00022907429956831038,0.0030543238390237093
1772720959587049200,6.39504931640625,0.002061668550595641,-0.0005345066892914474,0.003359756199643016
1772720959605646600,6.413646484375,0.002061668550595641,-0.000839939049910754,0.003665188793092966
1772720959624243700,6.43224365234375,0.0023671009112149477,-0.0011453714687377214,0.0030543238390237093
1772720959642841000,6.450841064453125,0.0017562361899763346,-0.0005345066892914474,0.0030543238390237093
1772720959661438500,6.4694384765625,0.0023671009112149477,-0.0005345066892914474,0.0030543238390237093
1772720959680035600,6.48803564453125,0.001450803829357028,-0.0005345066892914474,0.003359756199643016
1772720959698633000,6.506633056640625,0.0017562361899763346,-0.00022907429956831038,0.003359756199643016
1772720959717230300,6.525230224609375,0.0023671009112149477,-0.0011453714687377214,0.003665188793092966
1772720959735827500,6.543827392578125,0.002672533504664898,-0.0005345066892914474,0.003665188793092966
1772720959754424800,6.5624248046875,0.000839939049910754,-0.000839939049910754,0.003359756199643016
1772720959773022200,6.581022216796875,0.001450803829357028,-0.000839939049910754,0.0030543238390237093
1772720959791619300,6.599619384765625,0.002061668550595641,-0.00022907429956831038,0.003665188793092966
1772720959810216700,6.618216796875,0.0023671009112149477,-0.0011453714687377214,0.003359756199643016
1772720959828814000,6.63681396484375,0.002061668550595641,0.00038179047987796366,0.003970621153712273
1772720959847411200,6.6554111328125,0.002061668550595641,-0.000839939049910754,0.003665188793092966
1772720959866008600,6.674008544921875,0.0017562361899763346,-0.0005345066892914474,0.003359756199643016
1772720959884606000,6.69260595703125,0.000839939049910754,-0.0005345066892914474,0.003970621153712273
1772720959903203000,6.711203125,0.002672533504664898,-0.0011453714687377214,0.003970621153712273
1772720959921800400,6.729800537109375,0.002061668550595641,-0.0011453714687377214,0.003665188793092966
1772720959940397800,6.748397705078125,0.002061668550595641,-0.0005345066892914474,0.003970621153712273
1772720959958995200,6.7669951171875,0.0023671009112149477,-0.000839939049910754,0.003359756199643016
1772720959977592300,6.78559228515625,0.002061668550595641,-0.0011453714687377214,0.0027488914784044027
1772720959996189700,6.804189697265625,0.001450803829357028,-0.00022907429956831038,0.003970621153712273
1772720960014787000,6.822787109375,0.002672533504664898,-0.000839939049910754,0.003665188793092966
1772720960033384200,6.84138427734375,0.000839939049910754,-0.0005345066892914474,0.004276053514331579
1772720960051981600,6.859981689453125,0.002061668550595641,-0.0005345066892914474,0.003665188793092966
1772720960070579000,6.878578857421875,0.0017562361899763346,-0.0005345066892914474,0.0030543238390237093
1772720960089176000,6.897176025390625,0.001450803829357028,-0.0005345066892914474,0.003665188793092966
1772720960107773400,6.9157734375,0.0011453714687377214,-0.00022907429956831038,0.003359756199643016
1772720960126370800,6.934370849609375,0.0011453714687377214,-0.0005345066892914474,0.003665188793092966
1772720960144968200,6.95296826171875,0.001450803829357028,-0.0005345066892914474,0.0030543238390237093
1772720960163565300,6.9715654296875,0.001450803829357028,-0.00022907429956831038,0.003970621153712273
1772720960182162700,6.99016259765625,0.0023671009112149477,-0.00022907429956831038,0.002443459117785096
1772720960200760000,7.008760009765625,0.002061668550595641,0.00038179047987796366,0.003970621153712273
1772720960219357200,7.027357177734375,0.002061668550595641,-0.0005345066892914474,0.0030543238390237093
1772720960237954600,7.04595458984375,0.002061668550595641,-0.000839939049910754,0.003970621153712273
1772720960256552000,7.064552001953125,0.0011453714687377214,-0.00022907429956831038,0.0030543238390237093
1772720960275149000,7.083149169921875,0.002061668550595641,-0.000839939049910754,0.0030543238390237093
1772720960293746400,7.101746337890625,0.0017562361899763346,-0.000839939049910754,0.003970621153712273
1772720960312343800,7.12034375,0.0017562361899763346,-0.0011453714687377214,0.003359756199643016
1772720960330941200,7.138941162109375,0.002061668550595641,0.00038179047987796366,0.003665188793092966
1772720960349538600,7.15753857421875,0.002061668550595641,0.00038179047987796366,0.0030543238390237093
1772720960368135700,7.1761357421875,0.001450803829357028,-0.0005345066892914474,0.0021380267571657896
1772720960386733000,7.194733154296875,0.001450803829357028,-0.00022907429956831038,0.003665188793092966
1772720960405330400,7.213330322265625,0.002061668550595641,-0.00022907429956831038,0.003665188793092966
1772720960423927600,7.231927490234375,0.001450803829357028,-0.00022907429956831038,0.0030543238390237093
1772720960442525000,7.25052490234375,0.0023671009112149477,0.00007635809743078426,0.003665188793092966
1772720960461122300,7.269122314453125,0.000839939049910754,-0.00022907429956831038,0.003359756199643016
1772720960479719400,7.287719482421875,0.0011453714687377214,-0.000839939049910754,0.003665188793092966
1772720960498316800,7.30631689453125,0.002061668550595641,-0.00022907429956831038,0.0030543238390237093
1772720960516914000,7.324913818359375,0.0023671009112149477,-0.000839939049910754,0.003970621153712273
1772720960535511300,7.34351123046875,0.0017562361899763346,-0.000839939049910754,0.0027488914784044027
1772720960554108700,7.362108642578125,0.000839939049910754,-0.001450803829357028,0.0030543238390237093
1772720960572705800,7.380705810546875,0.0011453714687377214,-0.000839939049910754,0.003970621153712273
1772720960591303200,7.39930322265625,0.001450803829357028,-0.0011453714687377214,0.0030543238390237093
1772720960609900500,7.417900634765625,0.001450803829357028,-0.000839939049910754,0.0030543238390237093
1772720960628497700,7.43649755859375,0.001450803829357028,0.00007635809743078426,0.003359756199643016
1772720960647095000,7.455094970703125,0.0011453714687377214,-0.000839939049910754,0.002443459117785096
1772720960665692400,7.4736923828125,0.0023671009112149477,0.00007635809743078426,0.0030543238390237093
1772720960684289500,7.49228955078125,0.002672533504664898,0.00007635809743078426,0.0015271619195118546
1772720960702886700,7.51088671875,0.0017562361899763346,-0.00022907429956831038,0.003665188793092966
1772720960721484000,7.529484130859375,0.0023671009112149477,-0.000839939049910754,0.003665188793092966
1772720960740081400,7.548081298828125,0.0011453714687377214,-0.0005345066892914474,0.0030543238390237093
1772720960758678800,7.5666787109375,0.001450803829357028,0.00007635809743078426,0.003359756199643016
1772720960777276000,7.58527587890625,0.0011453714687377214,-0.0017562361899763346,0.0027488914784044027
1772720960795873000,7.603873046875,0.001450803829357028,0.00007635809743078426,0.003665188793092966
1772720960814470400,7.622470458984375,0.001450803829357028,-0.000839939049910754,0.003665188793092966
1772720960833067500,7.641067626953125,0.002061668550595641,-0.00022907429956831038,0.0030543238390237093
1772720960851665000,7.659664794921875,0.0011453714687377214,-0.0005345066892914474,0.002443459117785096
1772720960870262300,7.67826220703125,0.002672533504664898,-0.0011453714687377214,0.003970621153712273
1772720960888859400,7.696859375,0.001450803829357028,-0.000839939049910754,0.003359756199643016
1772720960907456800,7.715456787109375,0.0017562361899763346,-0.00022907429956831038,0.004276053514331579
1772720960926054000,7.734053955078125,0.001450803829357028,-0.0005345066892914474,0.003359756199643016
1772720960944651300,7.7526513671875,0.0017562361899763346,-0.0005345066892914474,0.0030543238390237093
1772720960963248400,7.771248291015625,0.0017562361899763346,-0.000839939049910754,0.001832594396546483
1772720960981845800,7.789845703125,0.002061668550595641,-0.0005345066892914474,0.0027488914784044027
1772720961000443000,7.80844287109375,0.002061668550595641,-0.000839939049910754,0.003359756199643016
1772720961019040300,7.827040283203125,0.0017562361899763346,-0.0005345066892914474,0.003359756199643016
1772720961037637400,7.845637451171875,0.0017562361899763346,-0.0005345066892914474,0.003359756199643016
1772720961056234800,7.86423486328125,0.001450803829357028,-0.0005345066892914474,0.0027488914784044027
1772720961074832000,7.882831787109375,0.002061668550595641,-0.0005345066892914474,0.0027488914784044027
1772720961093429000,7.901428955078125,0.0011453714687377214,-0.0005345066892914474,0.0030543238390237093
1772720961112026400,7.9200263671875,0.003283398225903511,-0.000839939049910754,0.003359756199643016
1772720961130623500,7.93862353515625,0.0017562361899763346,-0.0005345066892914474,0.0030543238390237093
1772720961149220900,7.957220947265625,0.0017562361899763346,-0.00022907429956831038,0.002443459117785096
1772720961167818000,7.97581787109375,0.0011453714687377214,-0.0011453714687377214,0.002443459117785096
1772720961186415400,7.994415283203125,0.0017562361899763346,-0.0011453714687377214,0.0030543238390237093
1772720961205012500,8.013012451171875,0.0011453714687377214,-0.00022907429956831038,0.0030543238390237093
1772720961223609600,8.031609619140625,0.0011453714687377214,-0.0005345066892914474,0.003359756199643016
1772720961242207000,8.05020703125,0.0017562361899763346,-0.000839939049910754,0.0027488914784044027
1772720961260804000,8.06880419921875,0.0011453714687377214,-0.00022907429956831038,0.003359756199643016
1772720961279401500,8.0874013671875,0.0017562361899763346,-0.000839939049910754,0.003359756199643016
1772720961297998600,8.10599853515625,0.001450803829357028,-0.0005345066892914474,0.003359756199643016
1772720961316596000,8.124595947265625,0.002061668550595641,0.00007635809743078426,0.003359756199643016
1772720961335193000,8.143193115234375,0.000839939049910754,-0.00022907429956831038,0.003359756199643016
1772720961353790200,8.161790283203125,0.001450803829357028,-0.0005345066892914474,0.003665188793092966
1772720961372387600,8.1803876953125,0.000839939049910754,-0.000839939049910754,0.0027488914784044027
1772720961390984700,8.198984619140624,0.002061668550595641,-0.0005345066892914474,0.002443459117785096
1772720961409581800,8.217581787109374,0.0017562361899763346,-0.00022907429956831038,0.0030543238390237093
1772720961428179200,8.23617919921875,0.002672533504664898,-0.000839939049910754,0.003359756199643016
1772720961446776300,8.2547763671875,0.001450803829357028,-0.00022907429956831038,0.003359756199643016
1772720961465373400,8.27337353515625,0.002061668550595641,-0.00022907429956831038,0.0021380267571657896
1772720961483970800,8.291970703125,0.0011453714687377214,0.00007635809743078426,0.0027488914784044027
1772720961502568000,8.31056787109375,0.001450803829357028,-0.00022907429956831038,0.003359756199643016
1772720961521165000,8.3291650390625,0.0017562361899763346,-0.000839939049910754,0.0030543238390237093
1772720961539762200,8.34776220703125,0.000839939049910754,-0.00022907429956831038,0.0027488914784044027
1772720961558359600,8.366359619140624,0.001450803829357028,0.00007635809743078426,0.0030543238390237093
1772720961576956700,8.384956787109376,0.001450803829357028,0.00007635809743078426,0.0027488914784044027
1772720961595553800,8.4035537109375,0.0023671009112149477,-0.00022907429956831038,0.0030543238390237093
1772720961614151200,8.422151123046875,0.0017562361899763346,0.00007635809743078426,0.0021380267571657896
1772720961632748300,8.440748291015625,0.002061668550595641,0.00038179047987796366,0.002443459117785096
1772720961651345400,8.459345458984375,0.0017562361899763346,0.00038179047987796366,0.0030543238390237093
1772720961669942500,8.477942626953125,0.0017562361899763346,-0.0005345066892914474,0.0027488914784044027
1772720961688540000,8.496539794921874,0.0017562361899763346,-0.000839939049910754,0.003665188793092966
1772720961707137000,8.515136962890624,0.002061668550595641,-0.0005345066892914474,0.002443459117785096
1772720961725734100,8.533734130859376,0.001450803829357028,-0.00022907429956831038,0.002443459117785096
1772720961744331300,8.552331298828125,0.0023671009112149477,-0.00022907429956831038,0.0030543238390237093
1772720961762928400,8.570928466796875,0.0011453714687377214,-0.00022907429956831038,0.003359756199643016
1772720961781525800,8.58952587890625,0.002672533504664898,-0.000839939049910754,0.0030543238390237093
1772720961800123000,8.608122802734375,0.0011453714687377214,-0.0005345066892914474,0.002443459117785096
1772720961818720000,8.626719970703125,0.000839939049910754,-0.0005345066892914474,0.0027488914784044027
1772720961837317000,8.645317138671874,0.0011453714687377214,-0.00022907429956831038,0.0030543238390237093
1772720961855914200,8.663914306640624,0.000839939049910754,-0.0011453714687377214,0.003665188793092966
1772720961874511400,8.682511474609376,0.0011453714687377214,-0.0005345066892914474,0.0027488914784044027
1772720961893108700,8.701108642578125,0.001450803829357028,-0.000839939049910754,0.0030543238390237093
1772720961911705900,8.719705810546875,0.0017562361899763346,-0.0011453714687377214,0.002443459117785096
1772720961930303000,8.738302978515625,0.001450803829357028,-0.000839939049910754,0.0027488914784044027
1772720961948900000,8.756900146484375,0.0011453714687377214,-0.0005345066892914474,0.0027488914784044027
1772720961967497200,8.775497314453125,0.002061668550595641,0.00007635809743078426,0.0027488914784044027
1772720961986094600,8.794094482421874,0.0017562361899763346,-0.0005345066892914474,0.0030543238390237093
1772720962004691500,8.81269140625,0.0017562361899763346,0.00007635809743078426,0.0027488914784044027
1772720962023288800,8.831288818359376,0.000839939049910754,-0.0005345066892914474,0.0030543238390237093
1772720962041886000,8.849885986328125,0.0005345066892914474,-0.0005345066892914474,0.003359756199643016
1772720962060483000,8.868483154296875,0.000839939049910754,-0.000839939049910754,0.0030543238390237093
1772720962079080200,8.887080078125,0.001450803829357028,-0.0005345066892914474,0.0021380267571657896
1772720962097677300,8.90567724609375,0.000839939049910754,-0.00022907429956831038,0.0030543238390237093
1772720962116274400,8.9242744140625,0.001450803829357028,0.00007635809743078426,0.002443459117785096
1772720962134871600,8.94287158203125,0.0011453714687377214,-0.00022907429956831038,0.003970621153712273
1772720962153468700,8.96146875,0.000839939049910754,-0.0005345066892914474,0.002443459117785096
1772720962172065800,8.980065673828125,0.0011453714687377214,-0.000839939049910754,0.0030543238390237093
1772720962190663000,8.998662841796875,0.000839939049910754,-0.000839939049910754,0.002443459117785096
1772720962209260300,9.01726025390625,0.0017562361899763346,-0.00022907429956831038,0.0030543238390237093
1772720962227857400,9.035857421875,0.001450803829357028,-0.000839939049910754,0.003665188793092966
1772720962246454300,9.054454345703125,0.001450803829357028,0.00007635809743078426,0.003665188793092966
1772720962265051600,9.0730517578125,0.000839939049910754,-0.000839939049910754,0.003665188793092966
1772720962283648800,9.091648681640624,0.000839939049910754,-0.000839939049910754,0.003359756199643016
1772720962302246000,9.110245849609376,0.0011453714687377214,0.00007635809743078426,0.0027488914784044027
1772720962320843000,9.128843017578125,0.001450803829357028,-0.000839939049910754,0.0030543238390237093
1772720962339440000,9.147440185546875,0.0017562361899763346,-0.0005345066892914474,0.003359756199643016
1772720962358037200,9.166037353515625,0.000839939049910754,0.00007635809743078426,0.002443459117785096
1772720962376634400,9.18463427734375,0.001450803829357028,-0.0005345066892914474,0.0027488914784044027
1772720962395231500,9.2032314453125,0.001450803829357028,-0.00022907429956831038,0.0030543238390237093
1772720962413828600,9.22182861328125,0.001450803829357028,-0.000839939049910754,0.0027488914784044027
1772720962432425700,9.24042578125,0.001450803829357028,-0.00022907429956831038,0.0027488914784044027
1772720962451022800,9.25902294921875,0.0023671009112149477,-0.0011453714687377214,0.0030543238390237093
1772720962469620000,9.277619873046875,0.0011453714687377214,-0.000839939049910754,0.002443459117785096
1772720962488217000,9.296217041015625,0.001450803829357028,-0.000839939049910754,0.0021380267571657896
1772720962506814000,9.31481396484375,0.0017562361899763346,-0.00022907429956831038,0.0021380267571657896
1772720962525411300,9.333411376953125,0.001450803829357028,-0.0005345066892914474,0.0030543238390237093
1772720962544008400,9.352008544921874,0.0017562361899763346,-0.00022907429956831038,0.002443459117785096
1772720962562605300,9.370605224609376,0.001450803829357028,-0.001450803829357028,0.0027488914784044027
1772720962581202400,9.389202392578126,0.000839939049910754,-0.00022907429956831038,0.0027488914784044027
1772720962599799800,9.4077998046875,0.0005345066892914474,0.00007635809743078426,0.0030543238390237093
1772720962618396700,9.426396728515625,0.002061668550595641,-0.000839939049910754,0.003359756199643016
1772720962636993800,9.444993896484375,0.000839939049910754,-0.000839939049910754,0.0030543238390237093
1772720962655591000,9.4635908203125,0.001450803829357028,0.00007635809743078426,0.002443459117785096
1772720962674188000,9.48218798828125,0.0011453714687377214,-0.0005345066892914474,0.0030543238390237093
1772720962692785200,9.50078515625,0.0017562361899763346,-0.001450803829357028,0.004276053514331579
1772720962711382300,9.51938232421875,0.001450803829357028,0.00038179047987796366,0.0027488914784044027
1772720962729979400,9.5379794921875,0.001450803829357028,-0.0005345066892914474,0.003359756199643016
1772720962748576500,9.556576416015625,0.0017562361899763346,-0.00022907429956831038,0.003359756199643016
1772720962767173600,9.575173583984375,0.0005345066892914474,0.00038179047987796366,0.0027488914784044027
1772720962785770800,9.593770751953125,0.001450803829357028,-0.0005345066892914474,0.0030543238390237093
1772720962804367600,9.61236767578125,0.001450803829357028,-0.0005345066892914474,0.001221729558892548
1772720962822964700,9.63096484375,0.0017562361899763346,-0.0005345066892914474,0.003359756199643016
1772720962841561900,9.649561767578126,0.0011453714687377214,0.00007635809743078426,0.0027488914784044027
1772720962860159000,9.668158935546876,0.001450803829357028,0.0006872228696011007,0.0021380267571657896
1772720962878756000,9.686756103515625,0.0017562361899763346,0.00007635809743078426,0.001832594396546483
1772720962897353200,9.705353271484375,0.0017562361899763346,-0.00022907429956831038,0.0027488914784044027
1772720962915950300,9.723950439453125,0.001450803829357028,0.00038179047987796366,0.0030543238390237093
1772720962934547200,9.742547119140625,0.0011453714687377214,-0.0011453714687377214,0.002443459117785096
1772720962953144300,9.761144287109374,0.0011453714687377214,-0.00022907429956831038,0.001832594396546483
1772720962971741400,9.779741455078126,0.0011453714687377214,-0.0005345066892914474,0.003359756199643016
1772720962990338600,9.798338623046876,0.0011453714687377214,-0.0011453714687377214,0.0027488914784044027
1772720963008935400,9.816935302734375,0.0011453714687377214,-0.0005345066892914474,0.002443459117785096
1772720963027532500,9.835532470703125,0.000839939049910754,0.00007635809743078426,0.003665188793092966
1772720963046129700,9.854129638671875,0.0017562361899763346,-0.000839939049910754,0.003665188793092966
1772720963064726800,9.872726806640625,0.0011453714687377214,-0.0005345066892914474,0.003359756199643016
1772720963083324000,9.891323974609374,0.0011453714687377214,-0.0017562361899763346,0.0021380267571657896
1772720963101921000,9.909921142578124,0.0011453714687377214,0.0006872228696011007,0.003665188793092966
1772720963120518000,9.928517822265626,0.00022907429956831038,-0.000839939049910754,0.002443459117785096
1772720963139115000,9.947114990234375,0.001450803829357028,0.00007635809743078426,0.003665188793092966
1772720963157712100,9.965712158203125,0.0011453714687377214,-0.001450803829357028,0.0021380267571657896
1772720963176309200,9.984309326171875,0.0017562361899763346,-0.000839939049910754,0.0015271619195118546
1772720963194906400,10.00290625,0.002061668550595641,-0.000839939049910754,0.0030543238390237093
1772720963213503200,10.021503173828124,0.0005345066892914474,-0.0005345066892914474,0.001832594396546483
1772720963232100400,10.040100341796874,0.0023671009112149477,0.00038179047987796366,0.003665188793092966
1772720963250697500,10.058697509765626,0.0011453714687377214,-0.000839939049910754,0.0030543238390237093
1772720963269294300,10.07729443359375,0.001450803829357028,-0.0011453714687377214,0.0027488914784044027
1772720963287891500,10.095891357421875,0.0017562361899763346,0.00007635809743078426,0.0030543238390237093
1772720963306488600,10.114488525390625,0.0011453714687377214,-0.0017562361899763346,0.0021380267571657896
1772720963325085700,10.133085693359375,0.0005345066892914474,0.00007635809743078426,0.002443459117785096
1772720963343682600,10.1516826171875,0.0011453714687377214,0.00038179047987796366,0.0027488914784044027
1772720963362279700,10.17027978515625,0.0017562361899763346,-0.0005345066892914474,0.002443459117785096
1772720963380876800,10.188876708984376,0.0017562361899763346,-0.00022907429956831038,0.0030543238390237093
1772720963399473700,10.2074736328125,0.0005345066892914474,-0.0011453714687377214,0.001832594396546483
1772720963418070800,10.22607080078125,0.0017562361899763346,-0.0005345066892914474,0.0027488914784044027
1772720963436668000,10.24466796875,0.000839939049910754,-0.00022907429956831038,0.0030543238390237093
1772720963455265000,10.26326513671875,0.0017562361899763346,0.00007635809743078426,0.0027488914784044027
1772720963473862000,10.28186181640625,0.0011453714687377214,-0.00022907429956831038,0.003359756199643016
1772720963492459000,10.300458984375,0.0017562361899763346,-0.00022907429956831038,0.003359756199643016
1772720963511056100,10.31905615234375,0.002672533504664898,-0.00022907429956831038,0.003359756199643016
1772720963529653000,10.337653076171875,0.0023671009112149477,-0.0005345066892914474,0.002443459117785096
1772720963548250000,10.35625,0.0017562361899763346,0.0006872228696011007,0.003970621153712273
1772720963566847200,10.37484716796875,0.0017562361899763346,-0.0005345066892914474,0.0030543238390237093
1772720963585444000,10.393444091796875,0.0017562361899763346,0.00038179047987796366,0.0027488914784044027
1772720963604041200,10.412041259765624,0.0011453714687377214,-0.0005345066892914474,0.002443459117785096
1772720963622638300,10.430638427734374,0.002061668550595641,-0.0011453714687377214,0.002443459117785096
1772720963641235200,10.449235107421876,0.0023671009112149477,0.0016035200096666813,0.003665188793092966
1772720963659832300,10.467832275390625,0.00022907429956831038,-0.000839939049910754,0.0021380267571657896
1772720963678429400,10.486429443359375,0.0023671009112149477,-0.0011453714687377214,0.003970621153712273
1772720963697026300,10.5050263671875,0.0017562361899763346,-0.00022907429956831038,0.002443459117785096
1772720963715623400,10.52362353515625,0.0017562361899763346,-0.000839939049910754,0.003665188793092966
1772720963734220500,10.542220458984374,0.000839939049910754,-0.0005345066892914474,0.0030543238390237093
1772720963752817400,10.5608173828125,0.001450803829357028,-0.000839939049910754,0.0030543238390237093
1772720963771414500,10.57941455078125,0.0023671009112149477,0.00038179047987796366,0.003665188793092966
1772720963790011600,10.59801171875,0.0011453714687377214,-0.000839939049910754,0.0027488914784044027
1772720963808608800,10.61660888671875,0.0005345066892914474,-0.0005345066892914474,0.0030543238390237093
1772720963827205600,10.63520556640625,0.0011453714687377214,-0.000839939049910754,0.0027488914784044027
1772720963845802800,10.653802734375,0.001450803829357028,-0.00022907429956831038,0.0021380267571657896
1772720963864399600,10.672399658203124,0.001450803829357028,-0.00022907429956831038,0.003359756199643016
1772720963882996700,10.690996826171874,0.0017562361899763346,-0.000839939049910754,0.003359756199643016
1772720963901593900,10.70959375,0.001450803829357028,0.00007635809743078426,0.0021380267571657896
1772720963920190700,10.728190673828125,0.0023671009112149477,-0.000839939049910754,0.0030543238390237093
1772720963938787800,10.746787841796875,0.0017562361899763346,-0.00022907429956831038,0.0030543238390237093
1772720963957385000,10.765385009765625,0.001450803829357028,-0.0005345066892914474,0.0021380267571657896
1772720963975981800,10.78398193359375,0.002061668550595641,0.0006872228696011007,0.0021380267571657896
1772720963994579000,10.802578857421874,0.002061668550595641,-0.00022907429956831038,0.0030543238390237093
1772720964013176000,10.821176025390624,0.0005345066892914474,-0.0011453714687377214,0.003359756199643016
1772720964031773000,10.83977294921875,0.002061668550595641,0.00007635809743078426,0.0030543238390237093
1772720964050370000,10.8583701171875,0.000839939049910754,-0.0005345066892914474,0.002443459117785096
1772720964068967000,10.876966796875,0.000839939049910754,-0.00022907429956831038,0.0030543238390237093
1772720964087564000,10.89556396484375,0.001450803829357028,-0.00022907429956831038,0.0027488914784044027
1772720964106161200,10.9141611328125,0.002061668550595641,-0.00022907429956831038,0.001832594396546483
1772720964124758000,10.932758056640624,0.002061668550595641,-0.0005345066892914474,0.002443459117785096
1772720964143355100,10.951355224609374,0.001450803829357028,-0.000839939049910754,0.0027488914784044027
1772720964161952300,10.9699521484375,0.001450803829357028,-0.000839939049910754,0.0030543238390237093
1772720964180549000,10.988549072265625,0.0017562361899763346,-0.00022907429956831038,0.003359756199643016
1772720964199146200,11.007146240234375,0.001450803829357028,-0.0005345066892914474,0.0027488914784044027
1772720964217743400,11.025743408203125,0.0017562361899763346,-0.00022907429956831038,0.0030543238390237093
1772720964236340200,11.04434033203125,0.0011453714687377214,-0.001450803829357028,0.0027488914784044027
1772720964254937300,11.062937255859374,0.001450803829357028,0.00038179047987796366,0.0030543238390237093
1772720964273534500,11.081534423828124,0.001450803829357028,-0.0005345066892914474,0.0030543238390237093
1772720964292131300,11.10013134765625,0.0005345066892914474,0.004046979360282421,0.006414080038666725
1772720964310728400,11.118728515625,0.0057268571108579636,0.08254310488700867,0.04520399495959282
1772720964329325300,11.1373251953125,0.00022907429956831038,0.07460185885429382,0.0360410213470459
1772720964347922400,11.15592236328125,0.004810560029000044,-0.08972076326608658,-0.04428769648075104
1772720964366519600,11.17451953125,0.0023671009112149477,-0.05887209251523018,-0.028099779039621353
1772720964385116700,11.19311669921875,0.002061668550595641,0.01259908638894558,0.007635809946805239
