time,seconds_elapsed,z,y,x
1772720910793845800,0.092845703125,0,0,0
1772720910812442000,0.111442138671875,0.008376121520996094,0.0035719946026802063,-0.0035843625664711
1772720910831038200,0.1300380859375,0.009332656860351562,0.0011265277862548828,0.003058783710002899
1772720910849634000,0.148634033203125,0.0076923370361328125,-0.01243889331817627,-0.0011480897665023804
1772720910868230100,0.167230224609375,-0.0006647109985351562,-0.011480838060379028,0.009987220168113708
1772720910886826200,0.185826171875,-0.006092071533203125,-0.01744672656059265,0.0026218444108963013
1772720910905422300,0.20442236328125,0.008559226989746094,0.0030901432037353516,0.008532866835594177
1772720910924018200,0.22301806640625,0.009174346923828125,0.01529199630022049,-0.015751972794532776
1772720910942614300,0.2416142578125,-0.00478363037109375,-0.008241355419158936,-0.007660634815692902
1772720910961210400,0.26021044921875,0.0036563873291015625,0.07535470277070999,0.006177991628646851
1772720910979806500,0.278806396484375,0.011854171752929688,-0.036808259785175323,0.006080441176891327
1772720910998402600,0.297402587890625,-0.0164337158203125,0.0253283828496933,-0.01982451230287552
1772720911016998400,0.315998291015625,-0.0033941268920898438,0.005258210003376007,-0.009401634335517883
1772720911035594500,0.334594482421875,-0.0042934417724609375,-0.04390871524810791,0.0040035247802734375
1772720911054190600,0.353190673828125,-0.0016880035400390625,0.03588840365409851,0.028778664767742157
1772720911072786700,0.37178662109375,-0.015933990478515625,-0.07014556974172592,0.007624529302120209
1772720911091382800,0.3903828125,-0.0075702667236328125,0.05368109792470932,-0.011130601167678833
1772720911109978600,0.408978515625,0.018158912658691406,-0.017441272735595703,-0.004631638526916504
1772720911128574700,0.42757470703125,0.002559661865234375,-0.0064746662974357605,0.01672559231519699
1772720911147170800,0.4461708984375,-0.012726783752441406,0.02196267992258072,0.0024537667632102966
1772720911165767000,0.464766845703125,-0.0044612884521484375,-0.0633864551782608,-0.005709625780582428
1772720911184362800,0.48336279296875,0.0073223114013671875,0.012437812983989716,0.025168433785438538
1772720911202958800,0.501958740234375,0.010478973388671875,-0.0001003071665763855,0.009065032005310059
1772720911221555000,0.520554931640625,0.004077911376953125,0.0005126670002937317,-0.0054159387946128845
1772720911240151000,0.539151123046875,-0.0052204132080078125,0.03480895608663559,-0.002660691738128662
1772720911258747100,0.5577470703125,-0.008723258972167969,-0.023026935756206512,0.015660911798477173
1772720911277343000,0.576343017578125,0.0053997039794921875,0.00934448093175888,0.011910676956176758
1772720911295939000,0.59493896484375,0.015625953674316406,-0.03210524842143059,0.0021125823259353638
1772720911314535200,0.61353515625,0.000049591064453125,0.006132498383522034,0.005657531321048737
1772720911333131300,0.63213134765625,-0.008246421813964844,-0.0024628788232803345,-0.022638022899627686
1772720911351727400,0.650727294921875,0.00002765655517578125,0.007089272141456604,0.007229767739772797
1772720911370323200,0.6693232421875,0.001026153564453125,0.0055914223194122314,0.008384987711906433
1772720911388919300,0.687919189453125,-0.0058879852294921875,-0.014332324266433716,0.00583060085773468
1772720911407515400,0.706515380859375,0.0070514678955078125,0.011940829455852509,0.0017183572053909302
1772720911426111500,0.725111572265625,0.008250236511230469,-0.014461390674114227,-0.01362597942352295
1772720911444707600,0.74370751953125,-0.001354217529296875,-0.011757135391235352,0.004323683679103851
1772720911463303400,0.762303466796875,0.010376930236816406,0.0009408965706825256,-0.005259662866592407
1772720911481899500,0.7808994140625,0.0031147003173828125,-0.008138589560985565,-0.0065148621797561646
1772720911500495600,0.79949560546875,-0.007534980773925781,0.01169675588607788,-0.0017555579543113708
1772720911519091700,0.818091796875,0.019537925720214844,-0.02143549919128418,-0.009926728904247284
1772720911537687600,0.8366875,0.01214599609375,0.004876933991909027,0.002122342586517334
1772720911556283600,0.85528369140625,0.010746002197265625,0.0010867342352867126,-0.015820108354091644
1772720911574879700,0.873879638671875,-0.02374744415283203,-0.0021148547530174255,-0.0131126269698143
1772720911593475800,0.892475830078125,0.004763603210449219,-0.01226247102022171,0.02003607153892517
1772720911612071700,0.91107177734375,0.018665313720703125,0.011181481182575226,0.025288909673690796
1772720911630667800,0.929667724609375,-0.013578414916992188,-0.012214288115501404,-0.007025010883808136
1772720911649263900,0.948263916015625,0.001949310302734375,-0.002407856285572052,0.015502914786338806
1772720911667860000,0.96685986328125,0.011396408081054688,0.0045485720038414,0.007907360792160034
1772720911686455800,0.985455810546875,0.0065097808837890625,-0.0030328482389450073,-0.03431694209575653
1772720911705052000,1.004052001953125,-0.005489349365234375,0.00292263925075531,-0.0168636292219162
1772720911723648000,1.02264794921875,0.000614166259765625,-0.017282046377658844,0.027927182614803314
1772720911742244000,1.041244140625,-0.005366325378417969,-0.005112193524837494,0.0037660524249076843
1772720911760840000,1.05983984375,0.0029659271240234375,-0.010833777487277985,-0.010496899485588074
1772720911779436000,1.07843603515625,-0.0039157867431640625,-0.007010549306869507,0.006271921098232269
1772720911798032100,1.0970322265625,0.0055694580078125,-0.0020749643445014954,-0.0011611208319664001
1772720911816628200,1.115628173828125,-0.008616447448730469,0.025976084172725677,-0.009392805397510529
1772720911835224300,1.134224365234375,0.0043735504150390625,-0.021699652075767517,0.0012953951954841614
1772720911853820200,1.152820068359375,0.0030546188354492188,-0.008112683892250061,0.02333260327577591
1772720911872416300,1.171416259765625,-0.00765228271484375,0.01640130579471588,-0.004159078001976013
1772720911891012400,1.190012451171875,-0.015850067138671875,0.010934107005596161,-0.009964212775230408
1772720911909608400,1.2086083984375,0.014966011047363281,-0.010619625449180603,0.020649679005146027
1772720911928204500,1.22720458984375,0.019491195678710938,-0.013480737805366516,-0.0033528581261634827
1772720911946800400,1.24580029296875,-0.0006227493286132812,0.00405777245759964,-0.017268553376197815
1772720911965396500,1.264396484375,0.0026330947875976562,-0.0009790211915969849,0.00904969871044159
1772720911983992600,1.28299267578125,-0.0069026947021484375,-0.01055503636598587,0.0031442642211914062
1772720912002588400,1.30158837890625,0.00020694732666015625,-0.004338502883911133,-0.024053998291492462
1772720912021184500,1.3201845703125,0.009670257568359375,-0.0020558685064315796,-0.007010377943515778
1772720912039780600,1.338780517578125,-0.009199142456054688,-0.005309775471687317,0.0023451000452041626
1772720912058376700,1.357376708984375,-0.0032062530517578125,-0.003074243664741516,0.001409679651260376
1772720912076972500,1.37597265625,-0.0064716339111328125,0.00026647746562957764,0.01182439923286438
1772720912095568600,1.394568603515625,0.00052642822265625,0.00012772530317306519,-0.01793312281370163
1772720912114164700,1.413164794921875,0.008786201477050781,-0.009356088936328888,-0.012855619192123413
1772720912132760800,1.4317607421875,-0.006702423095703125,-0.018954463303089142,-0.0009946227073669434
1772720912151357000,1.45035693359375,-0.005421638488769531,-0.016206182539463043,0.01655016839504242
1772720912169952800,1.468952880859375,-0.0016918182373046875,-0.0009299740195274353,0.005534544587135315
1772720912188548900,1.487548828125,0.004265785217285156,0.0036837905645370483,-0.0107249915599823
1772720912207145000,1.50614501953125,-0.0026769638061523438,-0.002290204167366028,0.012963935732841492
1772720912225740800,1.52474072265625,-0.0015087127685546875,0.02321285754442215,0.0008079484105110168
1772720912244337000,1.5433369140625,0.00569915771484375,0.02041371911764145,-0.020186424255371094
1772720912262933000,1.56193310546875,0.012605667114257812,-0.023333445191383362,0.010709978640079498
1772720912281529000,1.580529052734375,-0.0018100738525390625,0.003023892641067505,0.01608961820602417
1772720912300125200,1.599125244140625,-0.011101722717285156,-0.010246023535728455,-0.01596161723136902
1772720912318721000,1.617720947265625,-0.007479667663574219,0.01701713353395462,-0.004755079746246338
1772720912337317000,1.636317138671875,0.007823944091796875,-0.0012601539492607117,-0.011835336685180664
1772720912355913200,1.654913330078125,0.0052337646484375,0.005756467580795288,-0.010533265769481659
1772720912374509000,1.673509033203125,-0.0029773712158203125,-0.0037802904844284058,-0.024349302053451538
1772720912393105200,1.692105224609375,-0.005272865295410156,-0.01400214433670044,0.011304400861263275
1772720912411701200,1.710701171875,0.0031194686889648438,-0.006457224488258362,0.023944832384586334
1772720912430297300,1.72929736328125,-0.0015115737915039062,-0.00267665833234787,-0.008048787713050842
1772720912448893200,1.74789306640625,0.0033235549926757812,-0.013258390128612518,-0.017956651747226715
1772720912467489300,1.7664892578125,-0.00476837158203125,-0.00957491248846054,0.015207931399345398
1772720912486085400,1.78508544921875,0.014095306396484375,-0.010737940669059753,-0.0028424784541130066
1772720912504681500,1.803681396484375,-0.007152557373046875,-0.00003949552774429321,-0.0003472045063972473
1772720912523277300,1.82227734375,0.00716400146484375,-0.012995153665542603,-0.005882963538169861
1772720912541873400,1.840873291015625,0.006989479064941406,-0.00369301438331604,-0.0011809393763542175
1772720912560469500,1.859469482421875,0.012679100036621094,0.011546336114406586,-0.003454267978668213
1772720912579065600,1.878065673828125,-0.012132644653320312,-0.009688667953014374,-0.009307324886322021
1772720912597661400,1.896661376953125,-0.014260292053222656,0.0023054927587509155,0.02248787134885788
1772720912616257500,1.915257568359375,-0.0045528411865234375,-0.005944117903709412,0.004393644630908966
1772720912634853600,1.933853515625,-0.010437965393066406,0.00930691510438919,-0.0015702396631240845
1772720912653449500,1.952449462890625,-0.008935928344726562,0.004194170236587524,-0.03205374628305435
1772720912672045600,1.971045654296875,-0.00048160552978515625,-0.018207602202892303,0.013204224407672882
1772720912690641700,1.9896416015625,0.0042018890380859375,-0.004968337714672089,-0.006140194833278656
1772720912709237800,2.00823779296875,0.00400543212890625,-0.0002522692084312439,0.000036932528018951416
1772720912727833600,2.02683349609375,-0.0079498291015625,0.008990585803985596,-0.00591614842414856
1772720912746429700,2.0454296875,0.0063343048095703125,-0.010099612176418304,0.005030348896980286
1772720912765025800,2.06402587890625,-0.001953125,0.0017310380935668945,-0.010259054601192474
1772720912783621600,2.08262158203125,0.012188911437988281,-0.0019355639815330505,-0.005416549742221832
1772720912802217700,2.1012177734375,0.007454872131347656,-0.010159723460674286,0.012206576764583588
1772720912820813800,2.119813720703125,0.013424873352050781,-0.005510687828063965,-0.009254157543182373
1772720912839410000,2.138409912109375,0.0027074813842773438,-0.008928924798965454,-0.0031013786792755127
1772720912858006000,2.157006103515625,-0.0065975189208984375,0.004272297024726868,0.004026144742965698
1772720912876601900,2.175601806640625,-0.011202812194824219,-0.005419157445430756,-0.010175950825214386
1772720912895198000,2.194197998046875,-0.00399017333984375,0.004030048847198486,0.014719098806381226
1772720912913793800,2.212793701171875,-0.000091552734375,-0.010080106556415558,-0.0006914511322975159
1772720912932390000,2.231389892578125,-0.0070285797119140625,0.0016735419631004333,-0.005231134593486786
1772720912950986000,2.249986083984375,-0.0020885467529296875,-0.0006738752126693726,0.0007328838109970093
1772720912969582000,2.26858203125,0.0169219970703125,-0.006785750389099121,0.005302466452121735
1772720912988178000,2.287177978515625,0.009578704833984375,0.00294514000415802,-0.0031600594520568848
1772720913006774000,2.30577392578125,0.006793022155761719,-0.007877930998802185,0.001562550663948059
1772720913025370000,2.3243701171875,-0.006392478942871094,0.0018485188484191895,0.00035472214221954346
1772720913043966200,2.34296630859375,0.004366874694824219,-0.006118789315223694,-0.0020437091588974
1772720913062562000,2.36156201171875,-0.007445335388183594,0.014133095741271973,-0.008899442851543427
1772720913081158100,2.380158203125,0.0021152496337890625,-0.002683669328689575,0.01719224452972412
1772720913099754200,2.398754150390625,-0.008484840393066406,-0.0039025619626045227,0.004786916077136993
1772720913118350000,2.41735009765625,0.00914764404296875,0.01737780123949051,-0.015123575925827026
1772720913136946200,2.4359462890625,0.0018854141235351562,0.004042431712150574,0.012359336018562317
1772720913155542300,2.454542236328125,-0.004058837890625,-0.012636080384254456,-0.009030602872371674
1772720913174138000,2.47313818359375,-0.01000213623046875,-0.01941981166601181,-0.006600365042686462
1772720913192734200,2.491734130859375,-0.006318092346191406,-0.0004891529679298401,0.00531565397977829
1772720913211330300,2.510330322265625,0.003124237060546875,-0.01444990187883377,0.012146539986133575
1772720913229926400,2.528926513671875,-0.005194664001464844,0.005517184734344482,0.008389405906200409
1772720913248522200,2.547522216796875,-0.00511932373046875,-0.008527308702468872,-0.005900956690311432
1772720913267118300,2.566118408203125,0.009067535400390625,0.005502954125404358,-0.0011941641569137573
1772720913285714400,2.58471435546875,0.005454063415527344,0.001806117594242096,-0.0015341266989707947
1772720913304310300,2.603310302734375,-0.009844779968261719,0.000752180814743042,0.0020362287759780884
1772720913322906400,2.62190625,-0.0025777816772460938,-0.0005202442407608032,-0.0017738491296768188
1772720913341502500,2.64050244140625,-0.0039844512939453125,-0.0013501867651939392,0.0027071908116340637
1772720913360098300,2.659098388671875,-0.010713577270507812,-0.004830695688724518,0.004764370620250702
1772720913378694400,2.6776943359375,-0.0047321319580078125,0.0036291182041168213,0.009546056389808655
1772720913397290500,2.69629052734375,0.0024652481079101562,0.008184291422367096,-0.003488212823867798
1772720913415886300,2.71488623046875,0.0010509490966796875,-0.020283304154872894,0.00485645979642868
1772720913434482400,2.733482421875,-0.0071392059326171875,-0.002467513084411621,-0.001138053834438324
1772720913453078500,2.75207861328125,-0.0069026947021484375,0.005480162799358368,-0.009223788976669312
1772720913471674400,2.77067431640625,0.00146484375,-0.008740350604057312,-0.0006789565086364746
1772720913490270500,2.7892705078125,0.002750396728515625,-0.013490870594978333,0.008616365492343903
1772720913508866600,2.807866455078125,0.008640289306640625,-0.010552100837230682,0.003556862473487854
1772720913527462700,2.826462646484375,0.008531570434570312,0.011670902371406555,-0.00009303539991378784
1772720913546058500,2.84505859375,-0.0045528411865234375,-0.007362179458141327,-0.005997709929943085
1772720913564654600,2.863654541015625,-0.01018524169921875,0.006998613476753235,-0.010680414736270905
1772720913583250700,2.882250732421875,0.002819061279296875,-0.0005304664373397827,0.008158549666404724
1772720913601846500,2.900846435546875,-0.006609916687011719,-0.014278985559940338,0.0020083412528038025
1772720913620442600,2.919442626953125,-0.0006256103515625,-0.007125057280063629,-0.0014802291989326477
1772720913639038700,2.938038818359375,0.016945838928222656,0.0014057904481887817,-0.010681845247745514
1772720913657634600,2.956634521484375,-0.0034389495849609375,-0.009195171296596527,-0.013001807034015656
1772720913676230700,2.975230712890625,0.011791229248046875,0.001346871256828308,-0.01152009516954422
1772720913694826800,2.99382666015625,-0.010616302490234375,-0.011655263602733612,0.013251379132270813
1772720913713422600,3.012422607421875,0.0012655258178710938,0.006179749965667725,-0.003365814685821533
1772720913732018700,3.031018798828125,-0.00244140625,-0.005716294050216675,-0.000009670853614807129
1772720913750614500,3.049614501953125,-0.001163482666015625,0.0021699219942092896,0.001094326376914978
1772720913769210600,3.068210693359375,-0.006987571716308594,-0.00959586352109909,-0.00821809470653534
1772720913787806700,3.086806640625,0.0036783218383789062,-0.007072612643241882,0.010866150259971619
1772720913806402600,3.105402587890625,-0.0035028457641601562,-0.011988364160060883,-0.0023619458079338074
1772720913824998700,3.12399853515625,0.0012598037719726562,-0.009346812963485718,0.01032915711402893
1772720913843594800,3.1425947265625,-0.010605812072753906,-0.001055292785167694,-0.003029368817806244
1772720913862190600,3.161190673828125,0.012099266052246094,0.0036926046013832092,-0.0004988834261894226
1772720913880786700,3.17978662109375,-0.005848884582519531,-0.004473231732845306,-0.006327971816062927
1772720913899382800,3.1983828125,-0.007967948913574219,-0.019773662090301514,0.011368229985237122
1772720913917978600,3.216978515625,-0.009036064147949219,-0.015853390097618103,0.001915372908115387
1772720913936574700,3.23557470703125,0.0006961822509765625,0.008871018886566162,-0.012294508516788483
1772720913955170800,3.2541708984375,-0.0018568038940429688,-0.01122717559337616,-0.0004307404160499573
1772720913973766700,3.2727666015625,-0.006381988525390625,-0.00997072458267212,-0.00872109830379486
1772720913992362800,3.29136279296875,0.0032024383544921875,0.0018782764673233032,-0.0004784613847732544
1772720914010958800,3.309958740234375,0.00313568115234375,-0.0032248497009277344,0.014902770519256592
1772720914029554700,3.3285546875,0.016012191772460938,-0.007985271513462067,0.00865180790424347
1772720914048150800,3.34715087890625,0.007327079772949219,0.005375191569328308,0.005206495523452759
1772720914066747000,3.365746826171875,0.0025157928466796875,0.006446562707424164,-0.002996407449245453
1772720914085342700,3.3843427734375,0.00002288818359375,-0.0031207427382469177,-0.006394289433956146
1772720914103938800,3.402938720703125,-0.0011529922485351562,-0.003085322678089142,0.005684755742549896
1772720914122535000,3.421534912109375,-0.0024080276489257812,0.003952354192733765,-0.007379882037639618
1772720914141130800,3.440130859375,0.000003814697265625,-0.0008697882294654846,0.015928052365779877
1772720914159726800,3.458726806640625,0.010512351989746094,0.0004404112696647644,-0.006930217146873474
1772720914178323000,3.477322998046875,0.007991790771484375,0.0002946034073829651,-0.011089213192462921
1772720914196918800,3.495918701171875,0.005451202392578125,-0.013969622552394867,0.010248251259326935
1772720914215515000,3.514514892578125,0.0030364990234375,0.0013500601053237915,0.00295807421207428
1772720914234111000,3.533111083984375,-0.0040836334228515625,0.0010020360350608826,0.005297072231769562
1772720914252706800,3.551706787109375,-0.005145072937011719,-0.0014043301343917847,0.006285190582275391
1772720914271303000,3.570302978515625,0.0021820068359375,0.004197314381599426,0.00010243058204650879
1772720914289898800,3.588898681640625,0.008913993835449219,-0.00424879789352417,0.007408902049064636
1772720914308494800,3.607494873046875,0.0064830780029296875,-0.006432086229324341,0.017663076519966125
1772720914327091000,3.626091064453125,-0.006572723388671875,-0.0027295276522636414,-0.00843232125043869
1772720914345686800,3.644686767578125,-0.0063533782958984375,-0.012125693261623383,-0.008391052484512329
1772720914364283000,3.663282958984375,-0.013592720031738281,0.003215782344341278,0.0010216012597084045
1772720914382879000,3.68187890625,-0.0027313232421875,-0.0095730721950531,0.000919729471206665
1772720914401474800,3.700474853515625,-0.00024890899658203125,-0.0024642720818519592,-0.014410704374313354
1772720914420071000,3.71907080078125,-0.024927139282226562,0.0012002885341644287,0.002290010452270508
1772720914438667000,3.7376669921875,0.0024871826171875,0.0011473000049591064,-0.01059182733297348
1772720914457262800,3.756262939453125,0.0025224685668945312,-0.012973174452781677,-0.0019821524620056152
1772720914475859000,3.77485888671875,-0.00089263916015625,0.001270204782485962,-0.020836137235164642
1772720914494454800,3.793454833984375,0.005078315734863281,-0.015098080039024353,-0.003952823579311371
1772720914513051000,3.81205078125,-0.014813423156738281,-0.005368337035179138,0.004536144435405731
1772720914531647000,3.83064697265625,0.004206657409667969,-0.0006676986813545227,-0.011965379118919373
1772720914550242800,3.849242919921875,0.0017337799072265625,-0.006502173840999603,0.006042368710041046
1772720914568839000,3.8678388671875,-0.010066986083984375,0.0054373666644096375,0.008356809616088867
1772720914587434800,3.886434814453125,0.0008945465087890625,0.006734989583492279,-0.003466174006462097
1772720914606030800,3.90503076171875,0.009003639221191406,-0.0018024370074272156,0.010802343487739563
1772720914624627000,3.923626953125,-0.0064487457275390625,-0.007543869316577911,0.0036899447441101074
1772720914643222800,3.942222900390625,-0.0018825531005859375,0.002835281193256378,-0.004675820469856262
1772720914661819000,3.96081884765625,-0.005173683166503906,-0.010318979620933533,0.02339775115251541
1772720914680415000,3.9794150390625,0.0042324066162109375,-0.0008064210414886475,-0.0017457082867622375
1772720914699010800,3.9980107421875,0.0064868927001953125,0.00027414411306381226,0.015916943550109863
1772720914717607000,4.01660693359375,0.0040569305419921875,0.0037515535950660706,-0.007860861718654633
1772720914736202800,4.03520263671875,-0.0008020401000976562,0.017703622579574585,-0.005289748311042786
1772720914754798800,4.053798828125,0.010950088500976562,0.008153922855854034,-0.010892435908317566
1772720914773395000,4.07239501953125,0.00015735626220703125,-0.006163164973258972,0.004567496478557587
1772720914791990800,4.09099072265625,0.013251304626464844,0.002119496464729309,0.003039442002773285
1772720914810587000,4.1095869140625,-0.005873680114746094,-0.013281472027301788,-0.010082557797431946
1772720914829183000,4.128182861328125,-0.001209259033203125,0.0057516321539878845,0.005080133676528931
1772720914847778800,4.14677880859375,0.009576797485351562,0.016081467270851135,-0.0032033771276474
1772720914866375000,4.165375,0.013886451721191406,0.0017223507165908813,-0.002036549150943756
1772720914884970800,4.183970703125,-0.006354331970214844,0.0018027201294898987,0.008887529373168945
1772720914903566800,4.20256689453125,-0.012025833129882812,-0.0030030161142349243,-0.0015607625246047974
1772720914922163000,4.221162841796875,-0.005961418151855469,0.01355888694524765,-0.000416584312915802
1772720914940758800,4.2397587890625,-0.0022764205932617188,-0.00773194432258606,0.003219693899154663
1772720914959355000,4.25835498046875,-0.00008296966552734375,-0.0016929209232330322,0.0020761489868164062
1772720914977950700,4.27695068359375,-0.012903213500976562,-0.0026998817920684814,0.015029944479465485
1772720914996546800,4.295546875,-0.006771087646484375,-0.0003758445382118225,0.0006648972630500793
1772720915015142700,4.314142578125,-0.0031757354736328125,-0.009834535419940948,-0.007547952234745026
1772720915033738800,4.33273876953125,0.0024585723876953125,0.0042620450258255005,-0.0049008652567863464
1772720915052334800,4.3513349609375,0.0013589859008789062,0.006472848355770111,0.0068003833293914795
1772720915070930700,4.3699306640625,-0.0033922195434570312,-0.005435645580291748,-0.003775477409362793
1772720915089526800,4.38852685546875,-0.0023193359375,-0.0063461363315582275,-0.007005251944065094
1772720915108123000,4.407122802734375,-0.011614799499511719,0.00306006520986557,0.005985356867313385
1772720915126718700,4.42571875,-0.0019769668579101562,-0.0157041996717453,-0.0036096423864364624
1772720915145314800,4.444314697265625,-0.0009889602661132812,-0.009359031915664673,0.002393186092376709
1772720915163910700,4.46291064453125,-0.0020742416381835938,-0.005689576268196106,0.00707949697971344
1772720915182506800,4.4815068359375,-0.0009069442749023438,-0.007847130298614502,-0.008258715271949768
1772720915201102600,4.5001025390625,0.0049457550048828125,0.007470861077308655,0.00010313093662261963
1772720915219698700,4.51869873046875,0.0025072097778320312,-0.016005098819732666,0.0010699555277824402
1772720915238294800,4.537294677734375,-0.0008487701416015625,0.001828894019126892,0.007895112037658691
1772720915256890600,4.555890625,-0.009996414184570312,-0.005367748439311981,0.007880017161369324
1772720915275486700,4.57448681640625,-0.003996849060058594,-0.0030493363738059998,-0.003912098705768585
1772720915294082600,4.59308251953125,-0.00031566619873046875,-0.011431969702243805,-0.01557769626379013
1772720915312678700,4.6116787109375,0.007910728454589844,-0.005337484180927277,0.004844978451728821
1772720915331274800,4.630274658203125,-0.007351875305175781,-0.0005220472812652588,-0.0022342056035995483
1772720915349870600,4.64887060546875,0.008168220520019531,-0.009893856942653656,-0.005562044680118561
1772720915368466700,4.667466796875,-0.010668754577636719,0.010055653750896454,-0.008647620677947998
1772720915387062500,4.6860625,0.004978179931640625,0.014365874230861664,-0.002449706196784973
1772720915405658600,4.70465869140625,0.004970550537109375,0.004376374185085297,-0.00942213088274002
1772720915424254500,4.72325439453125,0.001415252685546875,0.014678999781608582,-0.005578942596912384
1772720915442850600,4.7418505859375,-0.001003265380859375,0.0003727823495864868,0.018136054277420044
1772720915461446400,4.7604462890625,-0.0033063888549804688,0.0006039515137672424,0.005716182291507721
1772720915480042500,4.77904248046875,-0.0007266998291015625,-0.005180194973945618,0.008319012820720673
1772720915498638600,4.797638671875,0.0028066635131835938,0.005657695233821869,-0.01207917183637619
1772720915517234400,4.816234375,-0.006815910339355469,-0.006419606506824493,0.0021578073501586914
1772720915535830500,4.83483056640625,0.001331329345703125,-0.00760062038898468,0.005405403673648834
1772720915554426400,4.85342626953125,0.0107574462890625,0.0009675323963165283,0.004173696041107178
1772720915573022500,4.8720224609375,-0.008087158203125,0.002020016312599182,0.012362562119960785
1772720915591618300,4.890618408203125,-0.005526542663574219,-0.009786859154701233,-0.007899627089500427
1772720915610214400,4.90921435546875,-0.0019712448120117188,0.004378184676170349,0.004217363893985748
1772720915628810500,4.927810546875,0.004014015197753906,-0.011001020669937134,-0.001844748854637146
1772720915647406300,4.94640625,0.000431060791015625,0.010467804968357086,0.006496034562587738
1772720915666002400,4.96500244140625,0.006180763244628906,0.01620662212371826,0.0028682947158813477
1772720915684598300,4.983598388671875,-0.003238677978515625,0.013231784105300903,-0.0029180049896240234
1772720915703194400,5.0021943359375,0.008635520935058594,-0.0047943443059921265,-0.011216133832931519
1772720915721790200,5.020790283203125,-0.0032215118408203125,-0.01404491811990738,-0.0015337541699409485
1772720915740386300,5.03938623046875,-0.009113311767578125,-0.006591878831386566,-0.00505337119102478
1772720915758982100,5.057982177734375,0.00034427642822265625,-0.010021321475505829,0.001061946153640747
1772720915777578200,5.076578125,0.014492034912109375,-0.0007219240069389343,-0.005988359451293945
1772720915796174300,5.09517431640625,0.0024652481079101562,0.005074270069599152,-0.010448358952999115
1772720915814770200,5.113770263671875,0.01052093505859375,-0.0019553527235984802,0.005366861820220947
1772720915833366300,5.1323662109375,-0.006140708923339844,-0.004320450127124786,0.00171690434217453
1772720915851962000,5.150962158203125,0.008161544799804688,-0.010091409087181091,0.0027404502034187317
1772720915870558200,5.16955810546875,0.008008956909179688,0.006701938807964325,-0.007856868207454681
1772720915889154000,5.188154052734375,0.005331993103027344,-0.002763025462627411,-0.006378933787345886
1772720915907750100,5.206750244140625,0.006449699401855469,-0.016899622976779938,-0.0005855262279510498
1772720915926346000,5.225345947265625,0.000392913818359375,0.0046470388770103455,0.0028321444988250732
1772720915944942000,5.243942138671875,0.011028289794921875,-0.006072111427783966,0.003959782421588898
1772720915963538000,5.262537841796875,0.0072345733642578125,-0.0035732239484786987,-0.003067001700401306
1772720915982134000,5.281134033203125,0.007447242736816406,-0.003613390028476715,0.0031108111143112183
1772720916000729900,5.299729736328125,-0.00795745849609375,0.005963243544101715,0.006428658962249756
1772720916019326000,5.318325927734375,0.0014629364013671875,0.0023734867572784424,0.012113116681575775
1772720916037921800,5.336921875,-0.011406898498535156,-0.011618629097938538,0.014386124908924103
1772720916056518000,5.355517822265625,0.00040340423583984375,-0.009211398661136627,0.0027944594621658325
1772720916075114000,5.374114013671875,-0.004197120666503906,-0.0031224042177200317,-0.003184773027896881
1772720916093709800,5.392709716796875,-0.0064487457275390625,0.0026173964142799377,-0.005362585186958313
1772720916112305700,5.4113056640625,0.003078460693359375,0.0013579875230789185,0.0043777525424957275
1772720916130901800,5.42990185546875,0.0008792877197265625,0.00013963133096694946,-0.0019107162952423096
1772720916149497900,5.448497802734375,0.00457763671875,-0.006993286311626434,-0.0030893757939338684
1772720916168093700,5.46709375,0.0010156631469726562,-0.016293048858642578,0.0052647218108177185
1772720916186689800,5.485689697265625,0.011528968811035156,-0.0076923668384552,0.009897388517856598
1772720916205285600,5.50428564453125,-0.005123138427734375,-0.006309330463409424,0.002705022692680359
1772720916223881700,5.5228818359375,-0.00267791748046875,0.00794607400894165,0.004946969449520111
1772720916242477600,5.5414775390625,0.011546134948730469,0.00550195574760437,-0.0068494901061058044
1772720916261073700,5.56007373046875,-0.0040111541748046875,-0.006170019507408142,0.002493627369403839
1772720916279669500,5.57866943359375,-0.010995864868164062,0.0007816702127456665,-0.0034072548151016235
1772720916298265600,5.597265625,0.00689697265625,0.003096573054790497,0.0001031830906867981
1772720916316861400,5.615861328125,-0.0014276504516601562,0.005405783653259277,-0.00099201500415802
1772720916335457500,5.63445751953125,-0.0026559829711914062,0.004160240292549133,0.004701897501945496
1772720916354053400,5.653053466796875,-0.0024900436401367188,-0.006571091711521149,0.002582758665084839
1772720916372649500,5.6716494140625,-0.01168060302734375,-0.00890660285949707,-0.0009669139981269836
1772720916391245300,5.690245361328125,-0.004567146301269531,0.001757308840751648,-0.005653932690620422
1772720916409841400,5.70884130859375,-0.007985115051269531,-0.0006974786520004272,0.0036918967962265015
1772720916428437200,5.727437255859375,-0.0019178390502929688,0.006229914724826813,-0.009209029376506805
1772720916447033300,5.746033447265625,-0.010107994079589844,-0.005294010043144226,0.0015678182244300842
1772720916465629200,5.764629150390625,0.0030107498168945312,-0.007719852030277252,0.001663118600845337
1772720916484225300,5.783225341796875,0.0006580352783203125,-0.005298785865306854,-0.0041580721735954285
1772720916502821000,5.801821044921875,-0.004070281982421875,0.005323104560375214,-0.0017046034336090088
1772720916521417200,5.820417236328125,-0.008622169494628906,0.003743082284927368,0.014620557427406311
1772720916540013000,5.839012939453125,-0.007239341735839844,0.01655977964401245,-0.010221868753433228
1772720916558609000,5.85760888671875,0.013096809387207031,-0.01775047928094864,-0.0005228519439697266
1772720916577205000,5.876205078125,-0.0049419403076171875,-0.004732407629489899,0.0029562264680862427
1772720916595801000,5.894801025390625,0.011455535888671875,-0.01632608473300934,-0.0007472708821296692
1772720916614397000,5.91339697265625,-0.011981964111328125,-0.011521637439727783,-0.0031804442405700684
1772720916632992800,5.93199267578125,-0.009527206420898438,-0.018392562866210938,-0.0007674843072891235
1772720916651588900,5.9505888671875,-0.008251190185546875,0.0028233602643013,0.014401763677597046
1772720916670185000,5.96918505859375,-0.0033693313598632812,0.007184334099292755,0.0060095712542533875
1772720916688780800,5.98778076171875,-0.0021419525146484375,-0.006873995065689087,0.008369341492652893
1772720916707376600,6.006376708984375,-0.004581451416015625,0.005034789443016052,-0.010697774589061737
1772720916725972700,6.02497265625,-0.005664825439453125,0.0026167407631874084,0.003826044499874115
1772720916744568800,6.04356884765625,-0.005555152893066406,0.007163845002651215,0.0037479326128959656
1772720916763164700,6.06216455078125,-0.0019578933715820312,-0.0034573227167129517,-0.008056893944740295
1772720916781760500,6.080760498046875,0.011067390441894531,0.012111358344554901,-0.0007013455033302307
1772720916800356600,6.099356689453125,-0.00202178955078125,0.009346336126327515,0.0017950162291526794
1772720916818952400,6.117952392578125,-0.007700920104980469,0.012538991868495941,-0.015665285289287567
1772720916837548500,6.136548583984375,-0.008661270141601562,0.000491611659526825,-0.008365124464035034
1772720916856144400,6.155144287109375,-0.012080192565917969,-0.004404202103614807,-0.004655659198760986
1772720916874740500,6.173740478515625,0.006869316101074219,0.003800332546234131,0.00819462537765503
1772720916893336300,6.19233642578125,0.009212493896484375,-0.008200712502002716,0.016109153628349304
1772720916911932400,6.210932373046875,-0.012072563171386719,-0.011436276137828827,0.003959544003009796
1772720916930528300,6.2295283203125,0.016305923461914062,-0.008825771510601044,0.0015184655785560608
1772720916949124400,6.248124267578125,-0.005150794982910156,0.00047197192907333374,0.009544029831886292
1772720916967720200,6.26672021484375,-0.009844779968261719,-0.010100863873958588,-0.009791254997253418
1772720916986316000,6.28531591796875,0.002109527587890625,-0.008546687662601471,0.013954311609268188
1772720917004912000,6.303912109375,0.0077457427978515625,-0.0026017576456069946,0.0019694268703460693
1772720917023508000,6.322508056640625,-0.004158973693847656,-0.0002531707286834717,0.0031379982829093933
1772720917042104000,6.34110400390625,-0.0064525604248046875,-0.0013401210308074951,0.0008320361375808716
1772720917060700000,6.359699951171875,-0.0026702880859375,-0.00837370753288269,-0.0074602216482162476
1772720917079296000,6.3782958984375,0.0009860992431640625,-0.002164319157600403,-0.01559305191040039
1772720917097891800,6.396891845703125,0.0033273696899414062,-0.006998680531978607,-0.0013139694929122925
1772720917116488000,6.415488037109375,-0.005115509033203125,0.0024236440658569336,0.0035972818732261658
1772720917135083800,6.434083740234375,0.0031909942626953125,-0.004579097032546997,-0.005614116787910461
1772720917153680000,6.452679931640625,0.007811546325683594,-0.0009182244539260864,0.003922171890735626
1772720917172275700,6.471275634765625,0.013532638549804688,-0.0019323676824569702,0.002618350088596344
1772720917190871600,6.48987158203125,-0.003070831298828125,-0.0018851980566978455,0.005968846380710602
1772720917209467600,6.508467529296875,0.0016984939575195312,0.007530145347118378,-0.017618641257286072
1772720917228063500,6.5270634765625,0.003973960876464844,-0.010024696588516235,-0.0041711777448654175
1772720917246659600,6.54565966796875,0.009687423706054688,0.007699698209762573,0.0006432384252548218
1772720917265255400,6.56425537109375,0.0022106170654296875,0.0016089975833892822,0.00725148618221283
1772720917283851500,6.5828515625,-0.006038665771484375,-0.008965104818344116,-0.017486751079559326
1772720917302447400,6.601447265625,0.0057697296142578125,-0.002970650792121887,0.011310018599033356
1772720917321043200,6.620043212890625,0.005698204040527344,-0.0027560219168663025,-0.0078111812472343445
1772720917339639300,6.638639404296875,-0.0036859512329101562,0.0014364272356033325,0.007492125034332275
1772720917358235100,6.657235107421875,-0.0023469924926757812,0.003670535981655121,-0.012299001216888428
1772720917376831000,6.6758310546875,0.008279800415039062,-0.009385183453559875,0.009049154818058014
1772720917395427000,6.694427001953125,-0.011736869812011719,-0.004353806376457214,0.006586886942386627
1772720917414023000,6.71302294921875,0.00737762451171875,0.015746086835861206,0.0019189566373825073
1772720917432619000,6.731618896484375,-0.0031604766845703125,0.0024882927536964417,0.007846720516681671
1772720917451214800,6.75021484375,0.005297660827636719,-0.006885640323162079,0.0055144429206848145
1772720917469811000,6.76881103515625,0.00049591064453125,0.0016154199838638306,-0.007451146841049194
1772720917488406800,6.78740673828125,0.00036334991455078125,-0.012759596109390259,0.018196970224380493
1772720917507003000,6.8060029296875,0.0037431716918945312,-0.0017028450965881348,-0.005813777446746826
1772720917525598700,6.8245986328125,-0.008027076721191406,0.01594921201467514,-0.010423466563224792
1772720917544194600,6.843194580078125,0.014492988586425781,0.007432691752910614,-0.00680185854434967
1772720917562790700,6.861790771484375,-0.009377479553222656,-0.009276345372200012,0.009577609598636627
1772720917581386500,6.880386474609375,0.0048351287841796875,-0.001636691391468048,-0.010306224226951599
1772720917599982600,6.898982666015625,0.0023813247680664062,-0.015622928738594055,0.016087472438812256
1772720917618578400,6.917578369140625,-0.010756492614746094,0.023163601756095886,0.006185688078403473
1772720917637174300,6.93617431640625,-0.0044574737548828125,-0.004551634192466736,0.0029792413115501404
1772720917655770400,6.954770263671875,0.009767532348632812,0.000003330409526824951,-0.0016668587923049927
1772720917674366200,6.9733662109375,0.0025234222412109375,0.0011943057179450989,-0.0027001649141311646
1772720917692962300,6.99196240234375,0.003753662109375,-0.0032842978835105896,0.0032304972410202026
1772720917711558100,7.01055810546875,-0.0024499893188476562,0.006118029356002808,-0.004034079611301422
1772720917730154000,7.029154052734375,0.0034732818603515625,-0.008241668343544006,-0.011170059442520142
1772720917748750000,7.04775,-0.0036993026733398438,0.0013918131589889526,-0.0024930089712142944
1772720917767346000,7.066345947265625,-0.00010776519775390625,0.0012985393404960632,0.004498705267906189
1772720917785941800,7.084941650390625,0.006896018981933594,-0.008124954998493195,0.0032299086451530457
1772720917804537900,7.103537841796875,-0.011997222900390625,0.00973859429359436,0.0008074566721916199
1772720917823133700,7.1221337890625,-0.0014629364013671875,-0.006826639175415039,0.009974882006645203
1772720917841729800,7.140729736328125,0.010408401489257812,-0.0016877204179763794,0.005020029842853546
1772720917860325600,7.15932568359375,-0.0027799606323242188,0.0006625652313232422,-0.0010521411895751953
1772720917878921700,7.177921630859375,0.0021352767944335938,-0.0017365440726280212,-0.011553660035133362
1772720917897517600,7.196517578125,-0.00032806396484375,0.014654286205768585,0.0006316155195236206
1772720917916113400,7.215113525390625,-0.00025844573974609375,-0.007870100438594818,-0.0027480050921440125
1772720917934709500,7.23370947265625,-0.009622573852539062,0.012259535491466522,0.0019140169024467468
1772720917953305300,7.252305419921875,0.0035982131958007812,0.002620115876197815,0.0007204711437225342
1772720917971901400,7.2709013671875,-0.0000095367431640625,0.004788525402545929,0.011169344186782837
1772720917990497300,7.289497314453125,-0.007067680358886719,0.0011160150170326233,-0.0008644238114356995
1772720918009093000,7.308093017578125,0.008344650268554688,-0.004863172769546509,-0.0008189082145690918
1772720918027689200,7.326689208984375,0.012949943542480469,0.008168436586856842,-0.0018882453441619873
1772720918046285000,7.34528515625,0.0022106170654296875,-0.012083299458026886,-0.002965785562992096
1772720918064881000,7.363880859375,0.003215789794921875,0.01637384295463562,0.01928296685218811
1772720918083477000,7.38247705078125,-0.002849578857421875,0.0006203055381774902,0.009319044649600983
1772720918102072800,7.40107275390625,-0.007479667663574219,-0.0016780570149421692,-0.0036845728754997253
1772720918120668700,7.419668701171875,-0.0037212371826171875,-0.007361643016338348,-0.014545634388923645
1772720918139264800,7.4382646484375,0.0059108734130859375,-0.008331447839736938,-0.013156719505786896
1772720918157860600,7.456860595703125,-0.005991935729980469,0.007072746753692627,-0.001206330955028534
1772720918176456400,7.47545654296875,0.0047969818115234375,-0.00747816264629364,0.00032179057598114014
1772720918195052500,7.494052490234375,-0.0033998489379882812,-0.005073152482509613,0.012047484517097473
1772720918213648400,7.5126484375,-0.013836860656738281,-0.00620124489068985,-0.012886345386505127
1772720918232244500,7.531244384765625,-0.0016727447509765625,-0.00709494948387146,-0.0032579079270362854
1772720918250840300,7.54984033203125,0.004421234130859375,0.0011386573314666748,-0.00443471223115921
1772720918269436200,7.568436279296875,0.0067081451416015625,0.004506148397922516,0.011991359293460846
1772720918288032300,7.5870322265625,-0.00047588348388671875,-0.010949179530143738,0.009256422519683838
1772720918306628000,7.605628173828125,-0.007575035095214844,-0.00034309178590774536,0.016313761472702026
1772720918325224000,7.624223876953125,0.0009307861328125,0.0018367394804954529,0.007956810295581818
1772720918343820000,7.642820068359375,-0.001255035400390625,0.008877657353878021,0.005468130111694336
1772720918362415900,7.661415771484375,0.010316848754882812,-0.012575715780258179,0.00421905517578125
1772720918381011700,7.68001171875,-0.016750335693359375,-0.004157200455665588,0.0031327232718467712
1772720918399607800,7.69860791015625,0.0059413909912109375,-0.007404439151287079,-0.0036319121718406677
1772720918418203600,7.71720361328125,-0.00141143798828125,0.006804794073104858,-0.004838675260543823
1772720918436799500,7.735799560546875,-0.0014429092407226562,-0.0015541315078735352,0.0019118264317512512
1772720918455395600,7.7543955078125,-0.004825592041015625,0.0044026002287864685,-0.006176307797431946
1772720918473991400,7.772991455078125,0.0020589828491210938,0.011228576302528381,-0.007410138845443726
1772720918492587300,7.791587158203125,0.0022459030151367188,0.00039474666118621826,-0.00016282498836517334
1772720918511183400,7.810183349609375,-0.00014400482177734375,-0.005391336977481842,0.005703695118427277
1772720918529779200,7.828779296875,-0.0012159347534179688,-0.014828242361545563,0.004285678267478943
1772720918548375000,7.847375,0.011688232421875,0.0007598847150802612,0.004437334835529327
1772720918566971100,7.86597119140625,0.008048057556152344,-0.0006183534860610962,-0.002613052725791931
1772720918585567000,7.88456689453125,-0.0026292800903320312,-0.0006411075592041016,0.010501675307750702
1772720918604162800,7.903162841796875,-0.0038957595825195312,-0.008833855390548706,0.01964942365884781
1772720918622759000,7.921759033203125,-0.0014142990112304688,0.0007426366209983826,-0.001944214105606079
1772720918641354800,7.940354736328125,0.0044956207275390625,0.002933122217655182,-0.0018655583262443542
1772720918659950600,7.95895068359375,0.015112876892089844,-0.01221882551908493,-0.0065386369824409485
1772720918678546700,7.977546630859375,0.0029659271240234375,-0.0024873465299606323,0.0077808573842048645
1772720918697142500,7.996142578125,-0.003935813903808594,0.011351116001605988,0.00877310335636139
1772720918715738400,8.01473828125,-0.00278472900390625,0.003960020840167999,0.002904742956161499
1772720918734334500,8.03333447265625,-0.01108551025390625,-0.007948480546474457,-0.0063143521547317505
1772720918752930300,8.051930419921876,-0.004917144775390625,-0.006437383592128754,0.0034268423914909363
1772720918771526100,8.070526123046875,-0.005969047546386719,-0.005087420344352722,0.0010890886187553406
1772720918790122000,8.0891220703125,0.0057582855224609375,-0.006417907774448395,0.02319151908159256
1772720918808718000,8.107718017578126,0.01743030548095703,0.0054604411125183105,0.005117326974868774
1772720918827314000,8.12631396484375,0.0053424835205078125,0.0076745301485061646,-0.010367892682552338
1772720918845910000,8.144909912109375,0.0017137527465820312,-0.004140026867389679,0.005118966102600098
1772720918864505900,8.163505859375,-0.0006351470947265625,0.012393422424793243,0.0035800188779830933
1772720918883101700,8.182101806640626,-0.005145072937011719,0.008666150271892548,0.003558248281478882
1772720918901697800,8.20069775390625,0.005536079406738281,-0.0009433627128601074,0.0060493722558021545
1772720918920293600,8.219293701171875,0.01502227783203125,-0.0034105107188224792,0.0105728879570961
1772720918938889500,8.237889404296874,-0.004002571105957031,-0.023252904415130615,0.0009924322366714478
1772720918957485300,8.2564853515625,0.005600929260253906,-0.0029005780816078186,-0.0013907626271247864
1772720918976081400,8.275081298828125,0.0055522918701171875,-0.0029355287551879883,0.0033237487077713013
1772720918994677200,8.29367724609375,0.005543708801269531,-0.0027800872921943665,0.0057700201869010925
1772720919013273000,8.312273193359376,0.007616996765136719,0.001785367727279663,0.006891369819641113
1772720919031869200,8.330869140625,-0.01122283935546875,-0.014447033405303955,0.004392109811306
1772720919050465000,8.349465087890625,0.01030731201171875,-0.0015623122453689575,0.009037025272846222
1772720919069060900,8.368060791015624,0.007672309875488281,0.0030962228775024414,0.008849568665027618
1772720919087657000,8.386656982421876,-0.0007181167602539062,0.0006719082593917847,0.0017046406865119934
1772720919106252800,8.405252685546875,0.007542610168457031,-0.012339748442173004,0.004261210560798645
1772720919124848600,8.4238486328125,-0.008862495422363281,-0.01684672385454178,-0.0041093528270721436
1772720919143444500,8.442444580078124,-0.00164794921875,-0.0013723596930503845,-0.0016264915466308594
1772720919162040600,8.46104052734375,-0.0018291473388671875,-0.012723617255687714,-0.010977879166603088
1772720919180636400,8.479636474609375,-0.004239082336425781,0.003830254077911377,-0.007036246359348297
1772720919199232300,8.498232177734375,-0.004058837890625,0.008342787623405457,-0.0032716840505599976
1772720919217828400,8.516828369140624,-0.0040225982666015625,0.0010343864560127258,-0.007785432040691376
1772720919236424200,8.535424072265625,0.0019159317016601562,-0.007187984883785248,-0.004281535744667053
1772720919255020000,8.55402001953125,0.0066967010498046875,-0.004622511565685272,0.003916829824447632
1772720919273616000,8.572615966796874,-0.0028772354125976562,-0.0009401068091392517,-0.002139180898666382
1772720919292212000,8.5912119140625,-0.006604194641113281,-0.0032554790377616882,0.0003287568688392639
1772720919310807800,8.609807861328125,-0.00783538818359375,-0.0009012594819068909,0.001366935670375824
1772720919329403600,8.628403564453125,0.00646209716796875,0.005056135356426239,0.004553794860839844
1772720919347999700,8.646999755859374,0.011971473693847656,0.0027907267212867737,-0.0027784109115600586
1772720919366595600,8.665595703125,0.010792732238769531,-0.013795435428619385,-0.0121045783162117
1772720919385191400,8.68419140625,-0.00479888916015625,-0.005210757255554199,-0.0188567116856575
1772720919403787500,8.70278759765625,-0.00460052490234375,-0.004054553806781769,-0.0008466765284538269
1772720919422383400,8.72138330078125,0.0071010589599609375,-0.013219386339187622,0.001591317355632782
1772720919440979200,8.739979248046875,-0.0001506805419921875,-0.009405523538589478,0.006176479160785675
1772720919459575000,8.758574951171875,-0.0095367431640625,0.0058114901185035706,-0.0008682757616043091
1772720919478171100,8.777171142578124,0.011701583862304688,-0.006103731691837311,-0.004425995051860809
1772720919496767000,8.79576708984375,-0.0014104843139648438,0.010399773716926575,0.003934025764465332
1772720919515362800,8.81436279296875,0.011458396911621094,0.004315383732318878,0.00588902086019516
1772720919533958700,8.832958740234375,-0.009978294372558594,0.0005251094698905945,-0.007236480712890625
1772720919552554800,8.8515546875,0.006371498107910156,0.012412883341312408,0.005643486976623535
1772720919571150600,8.870150634765626,-0.001979827880859375,-0.0030521005392074585,-0.012250557541847229
1772720919589746400,8.888746337890625,0.0028905868530273438,0.0005584955215454102,0.01165541261434555
1772720919608342500,8.907342529296875,-0.007909774780273438,0.0029045268893241882,-0.003723829984664917
1772720919626938400,8.9259384765625,-0.0040798187255859375,-0.006407968699932098,0.01295769214630127
1772720919645534200,8.9445341796875,-0.010789871215820312,0.0007024630904197693,0.00916723906993866
1772720919664130000,8.963130126953125,-0.004511833190917969,0.0007216334342956543,0.0019314810633659363
1772720919682726100,8.98172607421875,-0.0019502639770507812,0.007959142327308655,0.0008460283279418945
1772720919701322000,9.000322021484376,0.013292312622070312,-0.008586525917053223,-0.008465960621833801
1772720919719917800,9.018917724609375,0.010735511779785156,0.00568901002407074,-0.0010515600442886353
1772720919738513700,9.037513671875,-0.0024623870849609375,-0.0014567375183105469,0.0013337060809135437
1772720919757109800,9.05610986328125,0.005913734436035156,0.004371568560600281,-0.0175311341881752
1772720919775705600,9.07470556640625,0.0057773590087890625,-0.0074301958084106445,-0.011311598122119904
1772720919794301400,9.093301513671875,-0.012002944946289062,0.00417192280292511,0.002174980938434601
1772720919812897300,9.111897216796875,0.0021209716796875,-0.006495296955108643,-0.0059104859828948975
1772720919831493400,9.130493408203124,0.009012222290039062,0.0031216666102409363,-0.009352117776870728
1772720919850089200,9.149089111328125,0.0077915191650390625,0.0008069425821304321,-0.009075112640857697
1772720919868685000,9.16768505859375,0.0029468536376953125,-0.00035456568002700806,-0.02518138289451599
1772720919887281200,9.18628125,0.0005960464477539062,0.0015385746955871582,-0.003503769636154175
1772720919905877000,9.204876953125,-0.0077762603759765625,0.01102118194103241,-0.01168009638786316
1772720919924472800,9.223472900390625,-0.0039310455322265625,-0.01035086065530777,0.006045736372470856
1772720919943068700,9.242068603515625,-0.0016632080078125,0.00034283846616744995,-0.004861995577812195
1772720919961664800,9.260664794921874,-0.0026063919067382812,-0.008102506399154663,-0.0010951608419418335
1772720919980260600,9.279260498046876,0.002185821533203125,-0.01264992356300354,0.001103825867176056
1772720919998856400,9.2978564453125,-0.00490570068359375,0.006457522511482239,-0.0001738816499710083
1772720920017452300,9.316452392578125,-0.00015354156494140625,-0.0029459819197654724,0.008106961846351624
1772720920036048400,9.33504833984375,0.00675201416015625,0.012118123471736908,0.0007812678813934326
1772720920054644200,9.353644287109375,-0.011038780212402344,0.0034372955560684204,-0.018039092421531677
1772720920073240000,9.372239990234375,-0.006008148193359375,-0.008128069341182709,0.007103569805622101
1772720920091836000,9.3908359375,0.008093833923339844,-0.0008991211652755737,-0.0022737011313438416
1772720920110432000,9.409431884765626,-0.0027618408203125,0.0003680512309074402,-0.006973974406719208
1772720920129027800,9.42802783203125,-0.00031566619873046875,0.011766433715820312,-0.00832938402891159
1772720920147623700,9.446623779296875,0.0031461715698242188,-0.012060582637786865,-0.0008435547351837158
1772720920166219500,9.465219482421874,0.012647628784179688,-0.006749793887138367,0.005181640386581421
1772720920184815600,9.483815673828126,0.005269050598144531,-0.004448890686035156,0.008592456579208374
1772720920203411500,9.502411376953125,-0.0009241104125976562,-0.010121770203113556,0.00747179239988327
1772720920222007300,9.52100732421875,-0.010187149047851562,-0.011045753955841064,-0.011498816311359406
1772720920240603100,9.53960302734375,-0.013497352600097656,-0.004642181098461151,-0.002062104642391205
1772720920259199200,9.55819921875,-0.009854316711425781,-0.010617412626743317,-0.008081890642642975
1772720920277795000,9.576795166015625,0.0020780563354492188,0.007061786949634552,-0.01516249030828476
1772720920296391000,9.595390869140624,-0.013223648071289062,0.007093057036399841,-0.004139117896556854
1772720920314986800,9.61398681640625,-0.000179290771484375,-0.003708064556121826,0.0007202550768852234
1772720920333582600,9.63258251953125,0.0009660720825195312,-0.0024354010820388794,-0.0014984160661697388
1772720920352178700,9.6511787109375,0.005542755126953125,0.007157646119594574,-0.005204685032367706
1772720920370774500,9.6697744140625,0.008965492248535156,0.0013393089175224304,-0.000653974711894989
1772720920389370400,9.688370361328126,-0.011213302612304688,-0.009101830422878265,0.01240917295217514
1772720920407966500,9.706966552734375,-0.006314277648925781,-0.0005237162113189697,-0.006344132125377655
1772720920426562300,9.725562255859375,-0.008478164672851562,0.0009005963802337646,-0.0027486681938171387
1772720920445158100,9.744158203125,-0.000141143798828125,-0.010871127247810364,-0.00045606493949890137
1772720920463754000,9.76275390625,0.0069217681884765625,0.002264373004436493,0.005404464900493622
1772720920482349800,9.781349853515625,-0.0025615692138671875,-0.011773340404033661,-0.006569430232048035
1772720920500946000,9.79994580078125,-0.0059490203857421875,0.003803163766860962,-0.005530402064323425
1772720920519541800,9.818541748046876,-0.00455474853515625,0.0013833343982696533,-0.0053772106766700745
1772720920538137600,9.8371376953125,-0.006854057312011719,0.02123245596885681,-0.0016330555081367493
1772720920556733400,9.8557333984375,-0.0019998550415039062,-0.009767517447471619,-0.0005170255899429321
1772720920575329300,9.874329345703124,0.0005006790161132812,-0.013313837349414825,0.01368781179189682
1772720920593925400,9.89292529296875,-0.0008306503295898438,0.006898932158946991,-0.004240475594997406
1772720920612521200,9.911521240234375,-0.0019197463989257812,0.0007996708154678345,0.001555897295475006
1772720920631117000,9.930116943359375,-0.0051898956298828125,-0.0013455897569656372,0.010999716818332672
1772720920649713200,9.948713134765624,-0.004115104675292969,-0.001392945647239685,0.00596175342798233
1772720920668309000,9.96730908203125,0.0041790008544921875,0.024429261684417725,0.016335614025592804
1772720920686904800,9.98590478515625,0.0018253326416015625,-0.00538722425699234,-0.0016769543290138245
1772720920705500700,10.004500732421874,-0.00292205810546875,-0.0039630308747291565,-0.007419086992740631
1772720920724096500,10.023096435546876,0.003116607666015625,0.0019128993153572083,-0.0024389922618865967
1772720920742692400,10.0416923828125,0.009993553161621094,-0.011967040598392487,0.012877605855464935
1772720920761288400,10.060288330078125,-0.000865936279296875,0.04240414500236511,-0.002528160810470581
1772720920779884300,10.07888427734375,-0.006583213806152344,-0.007769718766212463,-0.016621984541416168
1772720920798480100,10.097480224609376,0.004128456115722656,-0.008635103702545166,0.009385012090206146
1772720920817076000,10.116075927734375,0.016953468322753906,0.036845557391643524,-0.0038057267665863037
1772720920835672000,10.134672119140625,0.0014925003051757812,-0.042384661734104156,-0.009164795279502869
1772720920854268000,10.153267822265626,-0.0032224655151367188,0.03109787404537201,0.010135240852832794
1772720920872863700,10.17186376953125,0.008490562438964844,-0.023589283227920532,0.010967887938022614
1772720920891459600,10.19045947265625,-0.0034360885620117188,0.012528620660305023,-0.01815766841173172
1772720920910055400,10.209055419921874,-0.0034799575805664062,0.0025135576725006104,-0.007186539471149445
1772720920928651300,10.2276513671875,0.011987686157226562,-0.01384485512971878,-0.003514625132083893
1772720920947247400,10.246247314453125,0.0037488937377929688,0.025019608438014984,-0.000027894973754882812
1772720920965843200,10.26484326171875,0.0022525787353515625,-0.009691014885902405,0.010703831911087036
1772720920984439000,10.28343896484375,-0.00856781005859375,0.012970395386219025,0.000025585293769836426
1772720921003035000,10.302034912109375,-0.008381843566894531,0.006693705916404724,0.0023367106914520264
1772720921021630700,10.320630615234375,-0.0010280609130859375,-0.008434966206550598,0.0035948604345321655
1772720921040226800,10.339226806640625,0.0016155242919921875,0.004526086151599884,-0.00471043586730957
1772720921058822700,10.35782275390625,-0.011537551879882812,-0.015485212206840515,0.002600245177745819
1772720921077418500,10.37641845703125,0.004039764404296875,-0.010574206709861755,-0.003304615616798401
1772720921096014300,10.395014404296875,0.005298614501953125,-0.0033859312534332275,-0.006895102560520172
1772720921114610400,10.4136103515625,0.0015354156494140625,0.0039024651050567627,0.008338972926139832
1772720921133206300,10.432206298828126,0.004876136779785156,0.014183863997459412,-0.00021363049745559692
1772720921151802000,10.450802001953125,0.008204460144042969,0.0021525993943214417,0.0034538954496383667
1772720921170398000,10.46939794921875,0.0011110305786132812,0.002147071063518524,-0.008517131209373474
1772720921188993800,10.487993896484374,0.01305389404296875,-0.008292727172374725,0.012907713651657104
1772720921207589600,10.506589599609375,0.0010366439819335938,-0.0024729371070861816,0.00799790769815445
1772720921226185700,10.525185791015625,-0.016623497009277344,-0.005000226199626923,-0.010979115962982178
1772720921244781600,10.543781494140624,0.006005287170410156,-0.004938527941703796,0.00802747905254364
1772720921263377400,10.56237744140625,0.0023546218872070312,0.010411858558654785,0.00558963418006897
1772720921281973200,10.58097314453125,-0.00015354156494140625,-0.005012601613998413,-0.0026812106370925903
1772720921300569000,10.599569091796875,-0.0016012191772460938,0.012792177498340607,0.0012369751930236816
1772720921319165000,10.6181650390625,-0.008706092834472656,-0.019329309463500977,0.014067865908145905
1772720921337761000,10.636760986328126,0.0009546279907226562,-0.007309682667255402,0.0008126050233840942
1772720921356356900,10.65535693359375,0.0033721923828125,0.00806138664484024,0.008826814591884613
1772720921374952700,10.67395263671875,0.004458427429199219,0.002100616693496704,0.0027024447917938232
1772720921393548500,10.692548583984374,-0.0073757171630859375,-0.0038176998496055603,0.010743729770183563
1772720921412144400,10.711144287109375,0.0045757293701171875,-0.00036994367837905884,0.011795006692409515
1772720921430740200,10.729740234375,0.007971763610839844,0.0010733455419540405,-0.01311492919921875
1772720921449336300,10.74833642578125,-0.0028400421142578125,-0.00579562783241272,0.007132142782211304
1772720921467932200,10.76693212890625,-0.0006465911865234375,-0.001133933663368225,0.010682173073291779
1772720921486528000,10.785528076171875,-0.010036468505859375,-0.002466335892677307,-0.00813237577676773
1772720921505123800,10.804123779296875,-0.0038785934448242188,-0.006147012114524841,-0.006959743797779083
1772720921523719700,10.8227197265625,-0.010768890380859375,0.0011020749807357788,0.01224394142627716
1772720921542315500,10.8413154296875,0.005902290344238281,-0.008311018347740173,0.004857547581195831
1772720921560911600,10.85991162109375,-0.00005817413330078125,-0.0116695836186409,-0.004537425935268402
1772720921579507500,10.878507568359375,0.010552406311035156,0.011792555451393127,-0.006967552006244659
1772720921598103300,10.897103271484376,0.011673927307128906,-0.007182493805885315,0.006107978522777557
1772720921616699100,10.91569921875,0.0023069381713867188,0.004851020872592926,-0.01049535721540451
1772720921635295000,10.934294921875,-0.01522064208984375,-0.004724875092506409,0.0003044009208679199
1772720921653890800,10.952890869140624,-0.007851600646972656,0.0010396763682365417,-0.009957894682884216
1772720921672486700,10.971486572265626,0.20167255401611328,-0.04103541001677513,0.08204860985279083
1772720921691082800,10.990082763671875,0.05723285675048828,0.002121448516845703,0.027273856103420258
1772720921709678600,11.0086787109375,-0.11347389221191406,0.017024070024490356,-0.04955515265464783
1772720921728274400,11.0272744140625,0.03216552734375,0.007267944514751434,0.03944021463394165
