time,seconds_elapsed,z,y,x
1772720910793845800,0.092845703125,0.00022907429956831038,-0.0005345066892914474,0.0009162971982732415
1772720910812442000,0.111442138671875,-0.00038179047987796366,0.00007635809743078426,0
1772720910831038200,0.1300380859375,-0.0006872228696011007,-0.0005345066892914474,0.000610864779446274
1772720910849634000,0.148634033203125,0.0005345066892914474,-0.000839939049910754,0.000305432389723137
1772720910868230100,0.167230224609375,-0.00038179047987796366,-0.0005345066892914474,-0.0009162971982732415
1772720910886826200,0.185826171875,-0.00038179047987796366,-0.0005345066892914474,0.0009162971982732415
1772720910905422300,0.20442236328125,-0.0012980876490473747,0.00038179047987796366,0.000305432389723137
1772720910924018200,0.22301806640625,-0.0006872228696011007,-0.00022907429956831038,0.0009162971982732415
1772720910942614300,0.2416142578125,0.00022907429956831038,-0.000839939049910754,0.001221729558892548
1772720910961210400,0.26021044921875,-0.0012980876490473747,0.00038179047987796366,0.000610864779446274
1772720910979806500,0.278806396484375,0.0005345066892914474,0.0006872228696011007,0.0015271619195118546
1772720910998402600,0.297402587890625,-0.00038179047987796366,0.00038179047987796366,0.001221729558892548
1772720911016998400,0.315998291015625,-0.0006872228696011007,0.00007635809743078426,0.000305432389723137
1772720911035594500,0.334594482421875,0.00022907429956831038,0.00038179047987796366,0.0009162971982732415
1772720911054190600,0.353190673828125,-0.0009926552884280682,-0.0011453714687377214,-0.000305432389723137
1772720911072786700,0.37178662109375,0.00022907429956831038,0.0012980876490473747,0.0009162971982732415
1772720911091382800,0.3903828125,-0.0022143847309052944,-0.00022907429956831038,0
1772720911109978600,0.408978515625,0.00022907429956831038,0.00007635809743078426,0.0015271619195118546
1772720911128574700,0.42757470703125,0.0005345066892914474,0.00007635809743078426,0
1772720911147170800,0.4461708984375,-0.0009926552884280682,-0.001450803829357028,-0.000610864779446274
1772720911165767000,0.464766845703125,-0.0006872228696011007,0.00038179047987796366,-0.000305432389723137
1772720911184362800,0.48336279296875,-0.00038179047987796366,0.0006872228696011007,0.0009162971982732415
1772720911202958800,0.501958740234375,-0.0009926552884280682,0.00007635809743078426,-0.000610864779446274
1772720911221555000,0.520554931640625,0.000839939049910754,0.00007635809743078426,0.000610864779446274
1772720911240151000,0.539151123046875,-0.00038179047987796366,-0.0005345066892914474,0.0009162971982732415
1772720911258747100,0.5577470703125,0.0005345066892914474,-0.000839939049910754,0
1772720911277343000,0.576343017578125,-0.0016035200096666813,0.00007635809743078426,0.000610864779446274
1772720911295939000,0.59493896484375,-0.0012980876490473747,0.00007635809743078426,0.0009162971982732415
1772720911314535200,0.61353515625,-0.00038179047987796366,-0.0005345066892914474,0.000610864779446274
1772720911333131300,0.63213134765625,-0.00038179047987796366,-0.0005345066892914474,0.001221729558892548
1772720911351727400,0.650727294921875,-0.0009926552884280682,0.00007635809743078426,-0.000305432389723137
1772720911370323200,0.6693232421875,-0.00007635809743078426,0.00007635809743078426,-0.000305432389723137
1772720911388919300,0.687919189453125,0.00022907429956831038,0.00038179047987796366,0.000305432389723137
1772720911407515400,0.706515380859375,-0.0009926552884280682,0.00007635809743078426,0
1772720911426111500,0.725111572265625,-0.0006872228696011007,-0.00022907429956831038,0.000305432389723137
1772720911444707600,0.74370751953125,-0.00038179047987796366,0.0009926552884280682,0.000610864779446274
1772720911463303400,0.762303466796875,-0.0012980876490473747,0.00038179047987796366,0.001221729558892548
1772720911481899500,0.7808994140625,-0.0009926552884280682,0.00007635809743078426,0.001221729558892548
1772720911500495600,0.79949560546875,-0.0009926552884280682,0.00038179047987796366,0.000610864779446274
1772720911519091700,0.818091796875,-0.00007635809743078426,-0.00022907429956831038,0.000305432389723137
1772720911537687600,0.8366875,-0.0009926552884280682,0.00038179047987796366,0
1772720911556283600,0.85528369140625,0.00022907429956831038,0.0006872228696011007,0.000610864779446274
1772720911574879700,0.873879638671875,-0.00038179047987796366,-0.0017562361899763346,0.000610864779446274
1772720911593475800,0.892475830078125,0.00022907429956831038,0.00038179047987796366,0.000610864779446274
1772720911612071700,0.91107177734375,-0.00038179047987796366,-0.00022907429956831038,0
1772720911630667800,0.929667724609375,0.00022907429956831038,-0.0005345066892914474,0.0015271619195118546
1772720911649263900,0.948263916015625,-0.0006872228696011007,0.00007635809743078426,0.000610864779446274
1772720911667860000,0.96685986328125,-0.00007635809743078426,0.0019089524867013097,0.001221729558892548
1772720911686455800,0.985455810546875,-0.0009926552884280682,-0.0011453714687377214,0.000305432389723137
1772720911705052000,1.004052001953125,-0.0006872228696011007,-0.0011453714687377214,0.000305432389723137
1772720911723648000,1.02264794921875,0.0005345066892914474,-0.00022907429956831038,0.001221729558892548
1772720911742244000,1.041244140625,-0.0006872228696011007,0.00007635809743078426,0.0009162971982732415
1772720911760840000,1.05983984375,-0.0012980876490473747,-0.0005345066892914474,0
1772720911779436000,1.07843603515625,-0.00007635809743078426,0.00038179047987796366,0.000610864779446274
1772720911798032100,1.0970322265625,-0.00007635809743078426,0.0006872228696011007,0.0015271619195118546
1772720911816628200,1.115628173828125,-0.00007635809743078426,-0.0005345066892914474,-0.000305432389723137
1772720911835224300,1.134224365234375,-0.00007635809743078426,-0.0005345066892914474,0.000305432389723137
1772720911853820200,1.152820068359375,-0.00038179047987796366,0.00007635809743078426,0
1772720911872416300,1.171416259765625,-0.0006872228696011007,0.00038179047987796366,0.000610864779446274
1772720911891012400,1.190012451171875,-0.0012980876490473747,-0.0005345066892914474,0.000610864779446274
1772720911909608400,1.2086083984375,-0.00038179047987796366,-0.0017562361899763346,0.000610864779446274
1772720911928204500,1.22720458984375,-0.00038179047987796366,0.00007635809743078426,-0.0009162971982732415
1772720911946800400,1.24580029296875,-0.00038179047987796366,-0.00022907429956831038,0.000610864779446274
1772720911965396500,1.264396484375,-0.0006872228696011007,0.00007635809743078426,0.000610864779446274
1772720911983992600,1.28299267578125,-0.00038179047987796366,0.0006872228696011007,0.000305432389723137
1772720912002588400,1.30158837890625,0.0005345066892914474,-0.000839939049910754,0.000610864779446274
1772720912021184500,1.3201845703125,-0.00038179047987796366,-0.00022907429956831038,0.000305432389723137
1772720912039780600,1.338780517578125,-0.0006872228696011007,-0.00022907429956831038,-0.000610864779446274
1772720912058376700,1.357376708984375,-0.00038179047987796366,0.0006872228696011007,0.001221729558892548
1772720912076972500,1.37597265625,-0.0006872228696011007,0.00038179047987796366,0.000610864779446274
1772720912095568600,1.394568603515625,-0.0006872228696011007,-0.0005345066892914474,0.000305432389723137
1772720912114164700,1.413164794921875,-0.0006872228696011007,0.00007635809743078426,0.0009162971982732415
1772720912132760800,1.4317607421875,0.00022907429956831038,-0.0005345066892914474,0
1772720912151357000,1.45035693359375,-0.0012980876490473747,-0.00022907429956831038,0.000610864779446274
1772720912169952800,1.468952880859375,-0.00038179047987796366,0.00038179047987796366,0.000610864779446274
1772720912188548900,1.487548828125,-0.00038179047987796366,-0.00022907429956831038,0.000610864779446274
1772720912207145000,1.50614501953125,-0.0006872228696011007,0.0006872228696011007,0.000610864779446274
1772720912225740800,1.52474072265625,-0.0009926552884280682,0.00038179047987796366,0.000610864779446274
1772720912244337000,1.5433369140625,-0.0006872228696011007,-0.0005345066892914474,-0.000305432389723137
1772720912262933000,1.56193310546875,0.0011453714687377214,-0.0005345066892914474,0
1772720912281529000,1.580529052734375,0.00022907429956831038,0.00007635809743078426,0.000305432389723137
1772720912300125200,1.599125244140625,0.00022907429956831038,0.0006872228696011007,0.001221729558892548
1772720912318721000,1.617720947265625,-0.00007635809743078426,-0.000839939049910754,-0.000305432389723137
1772720912337317000,1.636317138671875,0.00022907429956831038,-0.0005345066892914474,-0.000305432389723137
1772720912355913200,1.654913330078125,-0.0006872228696011007,0.00038179047987796366,0.000610864779446274
1772720912374509000,1.673509033203125,-0.0006872228696011007,-0.000839939049910754,0.000305432389723137
1772720912393105200,1.692105224609375,-0.0006872228696011007,-0.0005345066892914474,0.0009162971982732415
1772720912411701200,1.710701171875,-0.0016035200096666813,0.0006872228696011007,0.0009162971982732415
1772720912430297300,1.72929736328125,-0.00038179047987796366,0.0006872228696011007,0
1772720912448893200,1.74789306640625,-0.00038179047987796366,0.00007635809743078426,-0.000305432389723137
1772720912467489300,1.7664892578125,-0.0006872228696011007,-0.000839939049910754,0.000610864779446274
1772720912486085400,1.78508544921875,-0.00007635809743078426,0.00038179047987796366,0.0009162971982732415
1772720912504681500,1.803681396484375,-0.00007635809743078426,-0.00022907429956831038,0.001221729558892548
1772720912523277300,1.82227734375,-0.0009926552884280682,0.0006872228696011007,0.000610864779446274
1772720912541873400,1.840873291015625,0.00022907429956831038,0.0006872228696011007,0.001832594396546483
1772720912560469500,1.859469482421875,-0.0006872228696011007,-0.00022907429956831038,-0.0009162971982732415
1772720912579065600,1.878065673828125,-0.00007635809743078426,0.00007635809743078426,0
1772720912597661400,1.896661376953125,-0.0009926552884280682,0.00007635809743078426,0
1772720912616257500,1.915257568359375,-0.0009926552884280682,0.00007635809743078426,0.0009162971982732415
1772720912634853600,1.933853515625,-0.0006872228696011007,0.00007635809743078426,0.000610864779446274
1772720912653449500,1.952449462890625,-0.0006872228696011007,0.00038179047987796366,0
1772720912672045600,1.971045654296875,-0.0006872228696011007,0.00007635809743078426,0.000610864779446274
1772720912690641700,1.9896416015625,0.0005345066892914474,0.00038179047987796366,0.000610864779446274
1772720912709237800,2.00823779296875,-0.00038179047987796366,0.00038179047987796366,0.000305432389723137
1772720912727833600,2.02683349609375,-0.00038179047987796366,-0.00022907429956831038,0.000305432389723137
1772720912746429700,2.0454296875,-0.0009926552884280682,0.00038179047987796366,0.0009162971982732415
1772720912765025800,2.06402587890625,-0.0006872228696011007,0.00007635809743078426,0.000610864779446274
1772720912783621600,2.08262158203125,-0.00007635809743078426,-0.00022907429956831038,0.000610864779446274
1772720912802217700,2.1012177734375,-0.00007635809743078426,-0.00022907429956831038,0.001221729558892548
1772720912820813800,2.119813720703125,-0.0006872228696011007,0.00007635809743078426,0.0009162971982732415
1772720912839410000,2.138409912109375,-0.0009926552884280682,0.0006872228696011007,0.000610864779446274
1772720912858006000,2.157006103515625,-0.00007635809743078426,-0.0005345066892914474,-0.0009162971982732415
1772720912876601900,2.175601806640625,-0.0009926552884280682,-0.00022907429956831038,0
1772720912895198000,2.194197998046875,-0.00038179047987796366,-0.00022907429956831038,0.000305432389723137
1772720912913793800,2.212793701171875,-0.00038179047987796366,0.00007635809743078426,-0.000305432389723137
1772720912932390000,2.231389892578125,-0.0016035200096666813,0.00007635809743078426,0
1772720912950986000,2.249986083984375,-0.0006872228696011007,0.0006872228696011007,0.001221729558892548
1772720912969582000,2.26858203125,-0.00038179047987796366,0.00038179047987796366,0.0009162971982732415
1772720912988178000,2.287177978515625,-0.0009926552884280682,-0.00022907429956831038,-0.000305432389723137
1772720913006774000,2.30577392578125,-0.0009926552884280682,0.0006872228696011007,0.0009162971982732415
1772720913025370000,2.3243701171875,-0.00038179047987796366,-0.000839939049910754,0
1772720913043966200,2.34296630859375,-0.0009926552884280682,-0.000839939049910754,0
1772720913062562000,2.36156201171875,-0.0009926552884280682,0.00038179047987796366,0.000305432389723137
1772720913081158100,2.380158203125,-0.0006872228696011007,-0.00022907429956831038,-0.000610864779446274
1772720913099754200,2.398754150390625,-0.00038179047987796366,-0.00022907429956831038,0.0009162971982732415
1772720913118350000,2.41735009765625,0.00022907429956831038,-0.00022907429956831038,-0.000305432389723137
1772720913136946200,2.4359462890625,-0.0009926552884280682,-0.00022907429956831038,0.001221729558892548
1772720913155542300,2.454542236328125,-0.0006872228696011007,0.00038179047987796366,0
1772720913174138000,2.47313818359375,-0.0012980876490473747,0.0006872228696011007,0.0009162971982732415
1772720913192734200,2.491734130859375,0.00022907429956831038,-0.0011453714687377214,0
1772720913211330300,2.510330322265625,-0.0009926552884280682,0.00007635809743078426,-0.000305432389723137
1772720913229926400,2.528926513671875,-0.0006872228696011007,0.00007635809743078426,0.000305432389723137
1772720913248522200,2.547522216796875,-0.0009926552884280682,0.00038179047987796366,0.000305432389723137
1772720913267118300,2.566118408203125,-0.00038179047987796366,-0.0011453714687377214,0
1772720913285714400,2.58471435546875,-0.00007635809743078426,-0.0005345066892914474,0
1772720913304310300,2.603310302734375,-0.00007635809743078426,0.00038179047987796366,0
1772720913322906400,2.62190625,-0.0009926552884280682,0.00007635809743078426,0.000305432389723137
1772720913341502500,2.64050244140625,-0.00038179047987796366,-0.0005345066892914474,0
1772720913360098300,2.659098388671875,-0.0006872228696011007,-0.00022907429956831038,0.000305432389723137
1772720913378694400,2.6776943359375,-0.00038179047987796366,0.0006872228696011007,0.000610864779446274
1772720913397290500,2.69629052734375,-0.0012980876490473747,0.00038179047987796366,0.000305432389723137
1772720913415886300,2.71488623046875,-0.0006872228696011007,-0.00022907429956831038,0.000610864779446274
1772720913434482400,2.733482421875,-0.0009926552884280682,-0.00022907429956831038,0.000610864779446274
1772720913453078500,2.75207861328125,-0.0006872228696011007,-0.00022907429956831038,0.0009162971982732415
1772720913471674400,2.77067431640625,-0.00038179047987796366,0.00007635809743078426,-0.000305432389723137
1772720913490270500,2.7892705078125,-0.0009926552884280682,-0.0005345066892914474,0.000305432389723137
1772720913508866600,2.807866455078125,-0.00038179047987796366,0.00007635809743078426,0.001221729558892548
1772720913527462700,2.826462646484375,-0.00038179047987796366,0.00007635809743078426,0
1772720913546058500,2.84505859375,-0.0006872228696011007,0.0006872228696011007,0.000305432389723137
1772720913564654600,2.863654541015625,-0.0006872228696011007,-0.0005345066892914474,0.000305432389723137
1772720913583250700,2.882250732421875,-0.0009926552884280682,0.00038179047987796366,0.0009162971982732415
1772720913601846500,2.900846435546875,-0.00038179047987796366,0.00007635809743078426,-0.000305432389723137
1772720913620442600,2.919442626953125,-0.0012980876490473747,-0.0005345066892914474,0.001221729558892548
1772720913639038700,2.938038818359375,0.000839939049910754,0.00038179047987796366,0.001221729558892548
1772720913657634600,2.956634521484375,-0.0009926552884280682,-0.0005345066892914474,0.000610864779446274
1772720913676230700,2.975230712890625,-0.0006872228696011007,-0.00022907429956831038,-0.000610864779446274
1772720913694826800,2.99382666015625,-0.00038179047987796366,0.00038179047987796366,0.001221729558892548
1772720913713422600,3.012422607421875,-0.00007635809743078426,0.00007635809743078426,0.000610864779446274
1772720913732018700,3.031018798828125,-0.00038179047987796366,0.00038179047987796366,0.001221729558892548
1772720913750614500,3.049614501953125,0.00022907429956831038,-0.00022907429956831038,0.000305432389723137
1772720913769210600,3.068210693359375,-0.00038179047987796366,0.00038179047987796366,0.000305432389723137
1772720913787806700,3.086806640625,-0.00007635809743078426,0.00007635809743078426,0.000610864779446274
1772720913806402600,3.105402587890625,-0.00038179047987796366,-0.0005345066892914474,0.000305432389723137
1772720913824998700,3.12399853515625,-0.00038179047987796366,-0.0005345066892914474,0
1772720913843594800,3.1425947265625,-0.00038179047987796366,0.00038179047987796366,0.0015271619195118546
1772720913862190600,3.161190673828125,-0.0009926552884280682,0.0006872228696011007,0.000610864779446274
1772720913880786700,3.17978662109375,-0.0009926552884280682,0.00007635809743078426,0
1772720913899382800,3.1983828125,-0.00007635809743078426,0.00007635809743078426,0.000610864779446274
1772720913917978600,3.216978515625,-0.00038179047987796366,-0.00022907429956831038,0
1772720913936574700,3.23557470703125,-0.00038179047987796366,0.00038179047987796366,0.000305432389723137
1772720913955170800,3.2541708984375,-0.0012980876490473747,-0.0005345066892914474,0.001221729558892548
1772720913973766700,3.2727666015625,0.00022907429956831038,0.00007635809743078426,0.000610864779446274
1772720913992362800,3.29136279296875,-0.00007635809743078426,-0.00022907429956831038,0.001221729558892548
1772720914010958800,3.309958740234375,0.0005345066892914474,-0.0005345066892914474,0.000610864779446274
1772720914029554700,3.3285546875,-0.0012980876490473747,-0.00022907429956831038,0
1772720914048150800,3.34715087890625,-0.00007635809743078426,0.00038179047987796366,0.000610864779446274
1772720914066747000,3.365746826171875,-0.00038179047987796366,-0.00022907429956831038,0.000305432389723137
1772720914085342700,3.3843427734375,-0.00038179047987796366,0.00038179047987796366,0.000610864779446274
1772720914103938800,3.402938720703125,0.000839939049910754,-0.0005345066892914474,0.000305432389723137
1772720914122535000,3.421534912109375,-0.00038179047987796366,-0.00022907429956831038,0.001221729558892548
1772720914141130800,3.440130859375,-0.00007635809743078426,-0.00022907429956831038,-0.000305432389723137
1772720914159726800,3.458726806640625,-0.00038179047987796366,0.00007635809743078426,0
1772720914178323000,3.477322998046875,-0.00007635809743078426,0.0006872228696011007,0.000610864779446274
1772720914196918800,3.495918701171875,-0.0009926552884280682,0.00007635809743078426,-0.0009162971982732415
1772720914215515000,3.514514892578125,-0.00007635809743078426,0.00007635809743078426,0
1772720914234111000,3.533111083984375,-0.00007635809743078426,-0.0005345066892914474,0.0009162971982732415
1772720914252706800,3.551706787109375,-0.0006872228696011007,-0.00022907429956831038,0.000610864779446274
1772720914271303000,3.570302978515625,0.00022907429956831038,-0.00022907429956831038,0.000305432389723137
1772720914289898800,3.588898681640625,0.00022907429956831038,-0.00022907429956831038,0
1772720914308494800,3.607494873046875,-0.00007635809743078426,0.00038179047987796366,-0.000305432389723137
1772720914327091000,3.626091064453125,-0.00038179047987796366,0.00038179047987796366,0.000305432389723137
1772720914345686800,3.644686767578125,-0.0009926552884280682,0.00007635809743078426,0.000610864779446274
1772720914364283000,3.663282958984375,-0.0006872228696011007,0.00038179047987796366,0.000305432389723137
1772720914382879000,3.68187890625,-0.0006872228696011007,0.00038179047987796366,-0.000305432389723137
1772720914401474800,3.700474853515625,-0.0006872228696011007,-0.0005345066892914474,0
1772720914420071000,3.71907080078125,0.00022907429956831038,-0.00022907429956831038,0
1772720914438667000,3.7376669921875,-0.0006872228696011007,0.00038179047987796366,0.000610864779446274
1772720914457262800,3.756262939453125,-0.0006872228696011007,-0.00022907429956831038,-0.000305432389723137
1772720914475859000,3.77485888671875,-0.00038179047987796366,0.00007635809743078426,0.0009162971982732415
1772720914494454800,3.793454833984375,-0.0006872228696011007,0.0006872228696011007,0.000305432389723137
1772720914513051000,3.81205078125,-0.0009926552884280682,0.00007635809743078426,0.001221729558892548
1772720914531647000,3.83064697265625,-0.00038179047987796366,-0.00022907429956831038,0.0009162971982732415
1772720914550242800,3.849242919921875,-0.00007635809743078426,0.00007635809743078426,0.000305432389723137
1772720914568839000,3.8678388671875,-0.00038179047987796366,0.00007635809743078426,0
1772720914587434800,3.886434814453125,-0.0006872228696011007,0.00038179047987796366,0.000305432389723137
1772720914606030800,3.90503076171875,-0.00007635809743078426,0.00007635809743078426,0.000305432389723137
1772720914624627000,3.923626953125,-0.0006872228696011007,-0.00022907429956831038,0.001221729558892548
1772720914643222800,3.942222900390625,-0.0012980876490473747,-0.00022907429956831038,0.000305432389723137
1772720914661819000,3.96081884765625,-0.0006872228696011007,-0.000839939049910754,0.0009162971982732415
1772720914680415000,3.9794150390625,-0.0009926552884280682,0.00038179047987796366,0.000305432389723137
1772720914699010800,3.9980107421875,-0.0009926552884280682,-0.00022907429956831038,0.001221729558892548
1772720914717607000,4.01660693359375,-0.0009926552884280682,0.00038179047987796366,0
1772720914736202800,4.03520263671875,-0.00007635809743078426,0.00007635809743078426,0.0015271619195118546
1772720914754798800,4.053798828125,-0.0012980876490473747,0.0006872228696011007,0
1772720914773395000,4.07239501953125,-0.0006872228696011007,0.00007635809743078426,0.000305432389723137
1772720914791990800,4.09099072265625,-0.0009926552884280682,0.00038179047987796366,0
1772720914810587000,4.1095869140625,-0.00038179047987796366,-0.00022907429956831038,0
1772720914829183000,4.128182861328125,-0.00007635809743078426,-0.00022907429956831038,0.0009162971982732415
1772720914847778800,4.14677880859375,0.00022907429956831038,0.00007635809743078426,0.001221729558892548
1772720914866375000,4.165375,-0.0009926552884280682,-0.00022907429956831038,0
1772720914884970800,4.183970703125,-0.0012980876490473747,0.00038179047987796366,0.000305432389723137
1772720914903566800,4.20256689453125,-0.0012980876490473747,-0.00022907429956831038,0.001221729558892548
1772720914922163000,4.221162841796875,-0.0009926552884280682,-0.00022907429956831038,0.000610864779446274
1772720914940758800,4.2397587890625,-0.0012980876490473747,-0.00022907429956831038,-0.000610864779446274
1772720914959355000,4.25835498046875,-0.0009926552884280682,-0.00022907429956831038,0.0009162971982732415
1772720914977950700,4.27695068359375,-0.0009926552884280682,0.00007635809743078426,0.001221729558892548
1772720914996546800,4.295546875,-0.0009926552884280682,0.00007635809743078426,0.000305432389723137
1772720915015142700,4.314142578125,0.00022907429956831038,-0.000839939049910754,0.000305432389723137
1772720915033738800,4.33273876953125,-0.0009926552884280682,-0.0005345066892914474,0.000305432389723137
1772720915052334800,4.3513349609375,-0.00007635809743078426,0.00038179047987796366,0.000610864779446274
1772720915070930700,4.3699306640625,-0.0006872228696011007,-0.00022907429956831038,0.000610864779446274
1772720915089526800,4.38852685546875,-0.0006872228696011007,-0.0005345066892914474,0.0009162971982732415
1772720915108123000,4.407122802734375,-0.0009926552884280682,-0.0005345066892914474,0.000305432389723137
1772720915126718700,4.42571875,-0.0009926552884280682,0.00007635809743078426,0
1772720915145314800,4.444314697265625,-0.00038179047987796366,-0.0005345066892914474,0.000305432389723137
1772720915163910700,4.46291064453125,-0.0006872228696011007,-0.0011453714687377214,0.000610864779446274
1772720915182506800,4.4815068359375,-0.00038179047987796366,-0.0005345066892914474,0.000305432389723137
1772720915201102600,4.5001025390625,-0.0006872228696011007,-0.0005345066892914474,0.000305432389723137
1772720915219698700,4.51869873046875,-0.00007635809743078426,-0.000839939049910754,0.000610864779446274
1772720915238294800,4.537294677734375,-0.0006872228696011007,0.00038179047987796366,0.000610864779446274
1772720915256890600,4.555890625,-0.0012980876490473747,0.00007635809743078426,0
1772720915275486700,4.57448681640625,-0.00007635809743078426,0.00038179047987796366,0.000305432389723137
1772720915294082600,4.59308251953125,-0.00038179047987796366,-0.0011453714687377214,0.000305432389723137
1772720915312678700,4.6116787109375,-0.00038179047987796366,0.0006872228696011007,-0.000305432389723137
1772720915331274800,4.630274658203125,-0.00038179047987796366,0.00007635809743078426,-0.000305432389723137
1772720915349870600,4.64887060546875,-0.0006872228696011007,0.00038179047987796366,0.0009162971982732415
1772720915368466700,4.667466796875,-0.00038179047987796366,0.00038179047987796366,0.0009162971982732415
1772720915387062500,4.6860625,-0.0009926552884280682,0.00007635809743078426,0.000305432389723137
1772720915405658600,4.70465869140625,-0.0006872228696011007,-0.00022907429956831038,0.000610864779446274
1772720915424254500,4.72325439453125,-0.0006872228696011007,0.00007635809743078426,0.000610864779446274
1772720915442850600,4.7418505859375,-0.00007635809743078426,-0.0005345066892914474,0.000305432389723137
1772720915461446400,4.7604462890625,-0.0012980876490473747,-0.000839939049910754,0.000305432389723137
1772720915480042500,4.77904248046875,-0.0012980876490473747,0.0009926552884280682,-0.000610864779446274
1772720915498638600,4.797638671875,-0.0012980876490473747,0.0006872228696011007,-0.000610864779446274
1772720915517234400,4.816234375,-0.0006872228696011007,-0.00022907429956831038,0.000610864779446274
1772720915535830500,4.83483056640625,-0.00038179047987796366,-0.0005345066892914474,0.000305432389723137
1772720915554426400,4.85342626953125,-0.0012980876490473747,0.0006872228696011007,-0.000305432389723137
1772720915573022500,4.8720224609375,-0.00038179047987796366,0.0006872228696011007,0.000610864779446274
1772720915591618300,4.890618408203125,0.00022907429956831038,-0.0005345066892914474,0.0009162971982732415
1772720915610214400,4.90921435546875,-0.00038179047987796366,-0.00022907429956831038,0.000305432389723137
1772720915628810500,4.927810546875,-0.0012980876490473747,-0.0005345066892914474,0
1772720915647406300,4.94640625,-0.00007635809743078426,0.0006872228696011007,-0.000305432389723137
1772720915666002400,4.96500244140625,-0.0009926552884280682,0.00038179047987796366,0.000305432389723137
1772720915684598300,4.983598388671875,-0.0009926552884280682,0.00007635809743078426,0.000305432389723137
1772720915703194400,5.0021943359375,-0.0006872228696011007,0.00007635809743078426,0.000305432389723137
1772720915721790200,5.020790283203125,-0.00007635809743078426,-0.0005345066892914474,0
1772720915740386300,5.03938623046875,-0.0016035200096666813,0.00007635809743078426,0
1772720915758982100,5.057982177734375,-0.0012980876490473747,-0.00022907429956831038,0.0009162971982732415
1772720915777578200,5.076578125,-0.00007635809743078426,-0.00022907429956831038,0.0009162971982732415
1772720915796174300,5.09517431640625,-0.0006872228696011007,-0.0005345066892914474,0.0009162971982732415
1772720915814770200,5.113770263671875,-0.0016035200096666813,0.00038179047987796366,-0.000610864779446274
1772720915833366300,5.1323662109375,-0.0009926552884280682,0.00038179047987796366,0.0009162971982732415
1772720915851962000,5.150962158203125,-0.0006872228696011007,-0.00022907429956831038,0
1772720915870558200,5.16955810546875,-0.0009926552884280682,-0.00022907429956831038,0.000305432389723137
1772720915889154000,5.188154052734375,-0.0006872228696011007,0.00038179047987796366,-0.000610864779446274
1772720915907750100,5.206750244140625,-0.0009926552884280682,-0.00022907429956831038,0.000305432389723137
1772720915926346000,5.225345947265625,-0.0012980876490473747,-0.0005345066892914474,0.000305432389723137
1772720915944942000,5.243942138671875,-0.0006872228696011007,0.00038179047987796366,0.0009162971982732415
1772720915963538000,5.262537841796875,-0.0012980876490473747,0.00038179047987796366,-0.000305432389723137
1772720915982134000,5.281134033203125,-0.00007635809743078426,0.00038179047987796366,0.0009162971982732415
1772720916000729900,5.299729736328125,-0.00038179047987796366,0.00007635809743078426,0.000305432389723137
1772720916019326000,5.318325927734375,-0.0006872228696011007,0.00038179047987796366,0.000305432389723137
1772720916037921800,5.336921875,-0.0009926552884280682,0.0006872228696011007,0.000305432389723137
1772720916056518000,5.355517822265625,-0.0006872228696011007,0.0006872228696011007,0.000610864779446274
1772720916075114000,5.374114013671875,-0.0009926552884280682,0.00007635809743078426,0.000610864779446274
1772720916093709800,5.392709716796875,-0.0009926552884280682,0.00038179047987796366,-0.000305432389723137
1772720916112305700,5.4113056640625,-0.0006872228696011007,0.0006872228696011007,0
1772720916130901800,5.42990185546875,-0.00038179047987796366,0.00038179047987796366,0
1772720916149497900,5.448497802734375,-0.00038179047987796366,0.0009926552884280682,0.000305432389723137
1772720916168093700,5.46709375,-0.0006872228696011007,0.00007635809743078426,0.000610864779446274
1772720916186689800,5.485689697265625,-0.0006872228696011007,0.00038179047987796366,0
1772720916205285600,5.50428564453125,-0.00038179047987796366,0.00007635809743078426,0.000610864779446274
1772720916223881700,5.5228818359375,-0.0009926552884280682,0.00007635809743078426,0.000305432389723137
1772720916242477600,5.5414775390625,-0.0009926552884280682,0.00007635809743078426,0.000305432389723137
1772720916261073700,5.56007373046875,-0.0012980876490473747,-0.00022907429956831038,0.000305432389723137
1772720916279669500,5.57866943359375,0.00022907429956831038,0.00007635809743078426,0.001221729558892548
1772720916298265600,5.597265625,-0.0006872228696011007,-0.00022907429956831038,-0.000305432389723137
1772720916316861400,5.615861328125,-0.0006872228696011007,0.0006872228696011007,0.000305432389723137
1772720916335457500,5.63445751953125,-0.0009926552884280682,0.0006872228696011007,-0.000305432389723137
1772720916354053400,5.653053466796875,-0.00007635809743078426,0.00007635809743078426,0.000305432389723137
1772720916372649500,5.6716494140625,-0.0009926552884280682,0.00038179047987796366,0
1772720916391245300,5.690245361328125,-0.0006872228696011007,0.0006872228696011007,-0.000610864779446274
1772720916409841400,5.70884130859375,-0.0006872228696011007,0.00007635809743078426,0
1772720916428437200,5.727437255859375,-0.00038179047987796366,-0.0005345066892914474,0.001221729558892548
1772720916447033300,5.746033447265625,-0.00038179047987796366,-0.00022907429956831038,0
1772720916465629200,5.764629150390625,-0.0006872228696011007,0.00007635809743078426,0.0015271619195118546
1772720916484225300,5.783225341796875,-0.0009926552884280682,0.00038179047987796366,-0.000610864779446274
1772720916502821000,5.801821044921875,-0.00038179047987796366,0.00007635809743078426,0
1772720916521417200,5.820417236328125,-0.0006872228696011007,0.00007635809743078426,-0.000305432389723137
1772720916540013000,5.839012939453125,-0.00007635809743078426,-0.00022907429956831038,0.000305432389723137
1772720916558609000,5.85760888671875,-0.00007635809743078426,-0.00022907429956831038,0
1772720916577205000,5.876205078125,-0.0012980876490473747,0.00038179047987796366,0.000610864779446274
1772720916595801000,5.894801025390625,-0.00007635809743078426,0.00007635809743078426,0.000305432389723137
1772720916614397000,5.91339697265625,-0.00038179047987796366,-0.00022907429956831038,-0.000305432389723137
1772720916632992800,5.93199267578125,-0.0009926552884280682,-0.0005345066892914474,0.000305432389723137
1772720916651588900,5.9505888671875,-0.0009926552884280682,-0.00022907429956831038,0.000305432389723137
1772720916670185000,5.96918505859375,-0.00038179047987796366,-0.0005345066892914474,0.000610864779446274
1772720916688780800,5.98778076171875,-0.0006872228696011007,-0.00022907429956831038,-0.000610864779446274
1772720916707376600,6.006376708984375,-0.0006872228696011007,-0.0005345066892914474,0.000305432389723137
1772720916725972700,6.02497265625,-0.0006872228696011007,0.00038179047987796366,0
1772720916744568800,6.04356884765625,-0.00007635809743078426,-0.00022907429956831038,0.0009162971982732415
1772720916763164700,6.06216455078125,-0.00038179047987796366,0.00007635809743078426,0
1772720916781760500,6.080760498046875,-0.0006872228696011007,0.00038179047987796366,0.000305432389723137
1772720916800356600,6.099356689453125,-0.0009926552884280682,-0.00022907429956831038,0.0015271619195118546
1772720916818952400,6.117952392578125,-0.0006872228696011007,0.00038179047987796366,0
1772720916837548500,6.136548583984375,-0.00038179047987796366,0.00038179047987796366,0.000610864779446274
1772720916856144400,6.155144287109375,-0.00038179047987796366,0.00038179047987796366,-0.000610864779446274
1772720916874740500,6.173740478515625,-0.0006872228696011007,0.00007635809743078426,0.000305432389723137
1772720916893336300,6.19233642578125,-0.0006872228696011007,-0.00022907429956831038,0.001221729558892548
1772720916911932400,6.210932373046875,-0.0009926552884280682,0.00038179047987796366,-0.0009162971982732415
1772720916930528300,6.2295283203125,-0.0012980876490473747,0.00007635809743078426,0
1772720916949124400,6.248124267578125,-0.00038179047987796366,0.00007635809743078426,0.001832594396546483
1772720916967720200,6.26672021484375,-0.0012980876490473747,0.00007635809743078426,0
1772720916986316000,6.28531591796875,-0.0009926552884280682,-0.00022907429956831038,-0.000305432389723137
1772720917004912000,6.303912109375,-0.0006872228696011007,0.00038179047987796366,0
1772720917023508000,6.322508056640625,-0.0006872228696011007,-0.0005345066892914474,-0.0009162971982732415
1772720917042104000,6.34110400390625,-0.00038179047987796366,-0.00022907429956831038,0
1772720917060700000,6.359699951171875,-0.0006872228696011007,-0.0011453714687377214,0
1772720917079296000,6.3782958984375,0.00022907429956831038,-0.0005345066892914474,0.000305432389723137
1772720917097891800,6.396891845703125,-0.00038179047987796366,0.0009926552884280682,0.000610864779446274
1772720917116488000,6.415488037109375,-0.0006872228696011007,0.00038179047987796366,0
1772720917135083800,6.434083740234375,-0.00038179047987796366,0.00038179047987796366,-0.000305432389723137
1772720917153680000,6.452679931640625,-0.00007635809743078426,0.00038179047987796366,0
1772720917172275700,6.471275634765625,-0.00038179047987796366,0.00038179047987796366,0.000305432389723137
1772720917190871600,6.48987158203125,-0.0006872228696011007,-0.00022907429956831038,-0.000305432389723137
1772720917209467600,6.508467529296875,-0.0009926552884280682,0.00038179047987796366,-0.000305432389723137
1772720917228063500,6.5270634765625,-0.0006872228696011007,0.00007635809743078426,0
1772720917246659600,6.54565966796875,-0.0009926552884280682,-0.00022907429956831038,0
1772720917265255400,6.56425537109375,-0.0006872228696011007,0.00038179047987796366,0
1772720917283851500,6.5828515625,-0.0012980876490473747,0.00038179047987796366,0.000305432389723137
1772720917302447400,6.601447265625,-0.0012980876490473747,0.00007635809743078426,0.0009162971982732415
1772720917321043200,6.620043212890625,-0.00007635809743078426,0.00038179047987796366,0.000610864779446274
1772720917339639300,6.638639404296875,-0.00038179047987796366,-0.00022907429956831038,0.000610864779446274
1772720917358235100,6.657235107421875,-0.0006872228696011007,0.00038179047987796366,0.000305432389723137
1772720917376831000,6.6758310546875,-0.00038179047987796366,-0.0005345066892914474,0.0009162971982732415
1772720917395427000,6.694427001953125,-0.0006872228696011007,0.0006872228696011007,-0.000305432389723137
1772720917414023000,6.71302294921875,-0.00038179047987796366,0.00038179047987796366,0
1772720917432619000,6.731618896484375,-0.0006872228696011007,0.00038179047987796366,-0.000610864779446274
1772720917451214800,6.75021484375,-0.00038179047987796366,0.0006872228696011007,0
1772720917469811000,6.76881103515625,-0.00007635809743078426,0.00038179047987796366,-0.000305432389723137
1772720917488406800,6.78740673828125,-0.0009926552884280682,-0.00022907429956831038,0.000610864779446274
1772720917507003000,6.8060029296875,-0.00038179047987796366,0.00038179047987796366,0
1772720917525598700,6.8245986328125,-0.00038179047987796366,0.00007635809743078426,0
1772720917544194600,6.843194580078125,-0.0016035200096666813,0.00038179047987796366,0.0009162971982732415
1772720917562790700,6.861790771484375,-0.00007635809743078426,0.00038179047987796366,0
1772720917581386500,6.880386474609375,-0.0009926552884280682,-0.0005345066892914474,-0.000610864779446274
1772720917599982600,6.898982666015625,-0.0006872228696011007,0.00038179047987796366,0.000305432389723137
1772720917618578400,6.917578369140625,-0.0009926552884280682,0.00007635809743078426,0.000305432389723137
1772720917637174300,6.93617431640625,-0.0006872228696011007,0.00007635809743078426,0.0009162971982732415
1772720917655770400,6.954770263671875,-0.0006872228696011007,-0.0005345066892914474,0
1772720917674366200,6.9733662109375,-0.0006872228696011007,0.00007635809743078426,0.000305432389723137
1772720917692962300,6.99196240234375,-0.00007635809743078426,0.00007635809743078426,-0.000305432389723137
1772720917711558100,7.01055810546875,-0.00038179047987796366,-0.00022907429956831038,0.000610864779446274
1772720917730154000,7.029154052734375,0.00022907429956831038,-0.0005345066892914474,0
1772720917748750000,7.04775,-0.0006872228696011007,-0.0005345066892914474,0
1772720917767346000,7.066345947265625,-0.0016035200096666813,-0.00022907429956831038,0.000305432389723137
1772720917785941800,7.084941650390625,-0.0006872228696011007,0.00007635809743078426,0.000305432389723137
1772720917804537900,7.103537841796875,-0.0012980876490473747,0.00007635809743078426,0.0009162971982732415
1772720917823133700,7.1221337890625,-0.0012980876490473747,0.00007635809743078426,-0.000305432389723137
1772720917841729800,7.140729736328125,-0.0009926552884280682,0.00007635809743078426,-0.000305432389723137
1772720917860325600,7.15932568359375,-0.0012980876490473747,0.00007635809743078426,-0.000305432389723137
1772720917878921700,7.177921630859375,0.00022907429956831038,-0.0005345066892914474,-0.000305432389723137
1772720917897517600,7.196517578125,-0.0012980876490473747,0.0006872228696011007,-0.000305432389723137
1772720917916113400,7.215113525390625,-0.0009926552884280682,0.0006872228696011007,-0.000305432389723137
1772720917934709500,7.23370947265625,-0.0006872228696011007,0.00007635809743078426,0.0009162971982732415
1772720917953305300,7.252305419921875,-0.0009926552884280682,0.0006872228696011007,0
1772720917971901400,7.2709013671875,-0.0006872228696011007,-0.00022907429956831038,0.000305432389723137
1772720917990497300,7.289497314453125,-0.0012980876490473747,-0.00022907429956831038,0.000305432389723137
1772720918009093000,7.308093017578125,-0.00038179047987796366,-0.00022907429956831038,0.0009162971982732415
1772720918027689200,7.326689208984375,-0.0009926552884280682,-0.0005345066892914474,0
1772720918046285000,7.34528515625,-0.00007635809743078426,0.00038179047987796366,0.000305432389723137
1772720918064881000,7.363880859375,-0.0006872228696011007,-0.0005345066892914474,0.0009162971982732415
1772720918083477000,7.38247705078125,-0.00007635809743078426,0.00007635809743078426,0.0009162971982732415
1772720918102072800,7.40107275390625,-0.00007635809743078426,0.00038179047987796366,-0.000610864779446274
1772720918120668700,7.419668701171875,-0.00038179047987796366,0.00038179047987796366,0.000610864779446274
1772720918139264800,7.4382646484375,-0.00007635809743078426,-0.00022907429956831038,0.000305432389723137
1772720918157860600,7.456860595703125,-0.0006872228696011007,-0.0005345066892914474,0.000610864779446274
1772720918176456400,7.47545654296875,-0.0009926552884280682,0.00007635809743078426,0.000610864779446274
1772720918195052500,7.494052490234375,-0.0009926552884280682,0.00007635809743078426,0.000305432389723137
1772720918213648400,7.5126484375,-0.0006872228696011007,-0.00022907429956831038,0.0009162971982732415
1772720918232244500,7.531244384765625,-0.0006872228696011007,-0.00022907429956831038,0.000610864779446274
1772720918250840300,7.54984033203125,-0.0006872228696011007,0.00007635809743078426,0.000610864779446274
1772720918269436200,7.568436279296875,-0.0006872228696011007,-0.0005345066892914474,0.001832594396546483
1772720918288032300,7.5870322265625,-0.0006872228696011007,0.00007635809743078426,0.000305432389723137
1772720918306628000,7.605628173828125,-0.0016035200096666813,0.00007635809743078426,-0.000305432389723137
1772720918325224000,7.624223876953125,-0.0012980876490473747,-0.00022907429956831038,0.001221729558892548
1772720918343820000,7.642820068359375,-0.00007635809743078426,0.00007635809743078426,0.000610864779446274
1772720918362415900,7.661415771484375,-0.00038179047987796366,0.00007635809743078426,-0.000610864779446274
1772720918381011700,7.68001171875,-0.00007635809743078426,-0.00022907429956831038,0.000305432389723137
1772720918399607800,7.69860791015625,-0.0006872228696011007,0.00007635809743078426,-0.000610864779446274
1772720918418203600,7.71720361328125,-0.0012980876490473747,0.00038179047987796366,0.000305432389723137
1772720918436799500,7.735799560546875,-0.00038179047987796366,0.00007635809743078426,0
1772720918455395600,7.7543955078125,-0.0006872228696011007,0.0006872228696011007,0.000305432389723137
1772720918473991400,7.772991455078125,-0.00038179047987796366,-0.0005345066892914474,-0.000305432389723137
1772720918492587300,7.791587158203125,-0.0012980876490473747,-0.00022907429956831038,0.000305432389723137
1772720918511183400,7.810183349609375,-0.0009926552884280682,-0.0005345066892914474,-0.000305432389723137
1772720918529779200,7.828779296875,-0.0006872228696011007,0.00038179047987796366,0
1772720918548375000,7.847375,-0.0012980876490473747,0.0006872228696011007,0.000610864779446274
1772720918566971100,7.86597119140625,-0.00038179047987796366,0.00038179047987796366,0.000305432389723137
1772720918585567000,7.88456689453125,-0.0006872228696011007,-0.000839939049910754,0
1772720918604162800,7.903162841796875,0.00022907429956831038,-0.00022907429956831038,-0.000305432389723137
1772720918622759000,7.921759033203125,-0.00007635809743078426,0.00007635809743078426,0
1772720918641354800,7.940354736328125,-0.0006872228696011007,0.00007635809743078426,0.000610864779446274
1772720918659950600,7.95895068359375,-0.0006872228696011007,0.00007635809743078426,0
1772720918678546700,7.977546630859375,0.00022907429956831038,0.00038179047987796366,0.000610864779446274
1772720918697142500,7.996142578125,-0.0006872228696011007,0.00007635809743078426,0.000610864779446274
1772720918715738400,8.01473828125,-0.0006872228696011007,0.00007635809743078426,-0.000305432389723137
1772720918734334500,8.03333447265625,-0.0009926552884280682,-0.00022907429956831038,0.0009162971982732415
1772720918752930300,8.051930419921876,-0.0012980876490473747,0.00007635809743078426,-0.0009162971982732415
1772720918771526100,8.070526123046875,-0.0009926552884280682,0.00038179047987796366,0.000610864779446274
1772720918790122000,8.0891220703125,-0.0009926552884280682,-0.0005345066892914474,0.000610864779446274
1772720918808718000,8.107718017578126,-0.0006872228696011007,-0.00022907429956831038,0.000305432389723137
1772720918827314000,8.12631396484375,-0.0006872228696011007,-0.0005345066892914474,0
1772720918845910000,8.144909912109375,-0.0006872228696011007,-0.00022907429956831038,-0.000610864779446274
1772720918864505900,8.163505859375,-0.0012980876490473747,0.00007635809743078426,0.000610864779446274
1772720918883101700,8.182101806640626,-0.0009926552884280682,0.00007635809743078426,0.000305432389723137
1772720918901697800,8.20069775390625,-0.00007635809743078426,-0.00022907429956831038,0.000610864779446274
1772720918920293600,8.219293701171875,0.00022907429956831038,0.0006872228696011007,0
1772720918938889500,8.237889404296874,0.00022907429956831038,0.00038179047987796366,0.000305432389723137
1772720918957485300,8.2564853515625,-0.0009926552884280682,0.00038179047987796366,0
1772720918976081400,8.275081298828125,-0.0012980876490473747,-0.00022907429956831038,0.0009162971982732415
1772720918994677200,8.29367724609375,-0.0012980876490473747,-0.00022907429956831038,0
1772720919013273000,8.312273193359376,-0.00007635809743078426,-0.00022907429956831038,0.001832594396546483
1772720919031869200,8.330869140625,-0.0009926552884280682,0.00038179047987796366,0.000305432389723137
1772720919050465000,8.349465087890625,-0.00007635809743078426,0.00038179047987796366,0.001221729558892548
1772720919069060900,8.368060791015624,-0.00038179047987796366,-0.0005345066892914474,0.000610864779446274
1772720919087657000,8.386656982421876,-0.0006872228696011007,0.00007635809743078426,0
1772720919106252800,8.405252685546875,-0.0006872228696011007,0.00038179047987796366,0.000610864779446274
1772720919124848600,8.4238486328125,-0.0009926552884280682,0.00007635809743078426,0.0009162971982732415
1772720919143444500,8.442444580078124,-0.0006872228696011007,-0.00022907429956831038,-0.000305432389723137
1772720919162040600,8.46104052734375,-0.00038179047987796366,-0.00022907429956831038,0.000305432389723137
1772720919180636400,8.479636474609375,-0.0012980876490473747,0.00007635809743078426,0
1772720919199232300,8.498232177734375,-0.0009926552884280682,0.00007635809743078426,0.000610864779446274
1772720919217828400,8.516828369140624,-0.00038179047987796366,0.00038179047987796366,0.000610864779446274
1772720919236424200,8.535424072265625,-0.00038179047987796366,0.0006872228696011007,0.000305432389723137
1772720919255020000,8.55402001953125,-0.00007635809743078426,0.00038179047987796366,0.000610864779446274
1772720919273616000,8.572615966796874,-0.0012980876490473747,-0.00022907429956831038,0.000610864779446274
1772720919292212000,8.5912119140625,-0.00007635809743078426,0.00038179047987796366,0.000305432389723137
1772720919310807800,8.609807861328125,-0.0006872228696011007,0.00038179047987796366,0.000305432389723137
1772720919329403600,8.628403564453125,-0.00038179047987796366,-0.0011453714687377214,0.000610864779446274
1772720919347999700,8.646999755859374,-0.0009926552884280682,-0.00022907429956831038,-0.000305432389723137
1772720919366595600,8.665595703125,-0.0006872228696011007,0.00007635809743078426,0
1772720919385191400,8.68419140625,0.00022907429956831038,0.00007635809743078426,0.000305432389723137
1772720919403787500,8.70278759765625,-0.0012980876490473747,-0.00022907429956831038,0
1772720919422383400,8.72138330078125,-0.0006872228696011007,0.00038179047987796366,0.000305432389723137
1772720919440979200,8.739979248046875,-0.0012980876490473747,0.00038179047987796366,0.000305432389723137
1772720919459575000,8.758574951171875,-0.0009926552884280682,0.00007635809743078426,0.000610864779446274
1772720919478171100,8.777171142578124,-0.00007635809743078426,0.00007635809743078426,0.001221729558892548
1772720919496767000,8.79576708984375,-0.0006872228696011007,0.00007635809743078426,0.000305432389723137
1772720919515362800,8.81436279296875,-0.0009926552884280682,-0.00022907429956831038,-0.000610864779446274
1772720919533958700,8.832958740234375,-0.0009926552884280682,0.00007635809743078426,0.0009162971982732415
1772720919552554800,8.8515546875,-0.00038179047987796366,0.0006872228696011007,-0.000305432389723137
1772720919571150600,8.870150634765626,-0.0009926552884280682,-0.000839939049910754,-0.001221729558892548
1772720919589746400,8.888746337890625,-0.0012980876490473747,0.00038179047987796366,0.000610864779446274
1772720919608342500,8.907342529296875,-0.0006872228696011007,0.00038179047987796366,-0.000305432389723137
1772720919626938400,8.9259384765625,-0.0006872228696011007,-0.00022907429956831038,-0.000305432389723137
1772720919645534200,8.9445341796875,-0.0006872228696011007,-0.0005345066892914474,-0.000610864779446274
1772720919664130000,8.963130126953125,-0.00038179047987796366,-0.0005345066892914474,-0.000305432389723137
1772720919682726100,8.98172607421875,-0.00038179047987796366,0.00038179047987796366,-0.000305432389723137
1772720919701322000,9.000322021484376,-0.0012980876490473747,0.00007635809743078426,-0.000305432389723137
1772720919719917800,9.018917724609375,-0.00038179047987796366,0.00007635809743078426,0.000305432389723137
1772720919738513700,9.037513671875,-0.0006872228696011007,-0.00022907429956831038,0.000305432389723137
1772720919757109800,9.05610986328125,-0.0009926552884280682,0.00007635809743078426,0.000305432389723137
1772720919775705600,9.07470556640625,0.00022907429956831038,0.0006872228696011007,0
1772720919794301400,9.093301513671875,-0.0009926552884280682,0.00007635809743078426,0
1772720919812897300,9.111897216796875,-0.0009926552884280682,0.00038179047987796366,0.000305432389723137
1772720919831493400,9.130493408203124,-0.0006872228696011007,0.0006872228696011007,0.0009162971982732415
1772720919850089200,9.149089111328125,-0.0009926552884280682,-0.00022907429956831038,0
1772720919868685000,9.16768505859375,0.00022907429956831038,0.0006872228696011007,0
1772720919887281200,9.18628125,-0.00038179047987796366,0.00007635809743078426,0.000610864779446274
1772720919905877000,9.204876953125,-0.0012980876490473747,0.0006872228696011007,-0.000305432389723137
1772720919924472800,9.223472900390625,-0.0009926552884280682,-0.0005345066892914474,-0.000305432389723137
1772720919943068700,9.242068603515625,-0.00007635809743078426,0.00038179047987796366,0.0009162971982732415
1772720919961664800,9.260664794921874,-0.0006872228696011007,0.00007635809743078426,0.000305432389723137
1772720919980260600,9.279260498046876,-0.00038179047987796366,-0.0005345066892914474,-0.000305432389723137
1772720919998856400,9.2978564453125,-0.0006872228696011007,-0.00022907429956831038,0
1772720920017452300,9.316452392578125,-0.0006872228696011007,0.00007635809743078426,0
1772720920036048400,9.33504833984375,-0.00007635809743078426,0.00007635809743078426,0.000305432389723137
1772720920054644200,9.353644287109375,-0.00038179047987796366,0.00007635809743078426,0.000610864779446274
1772720920073240000,9.372239990234375,-0.0009926552884280682,-0.00022907429956831038,-0.000305432389723137
1772720920091836000,9.3908359375,-0.0012980876490473747,-0.00022907429956831038,0.0009162971982732415
1772720920110432000,9.409431884765626,-0.00007635809743078426,0.00007635809743078426,0
1772720920129027800,9.42802783203125,-0.00038179047987796366,0.00038179047987796366,0.000610864779446274
1772720920147623700,9.446623779296875,-0.0009926552884280682,-0.00022907429956831038,0
1772720920166219500,9.465219482421874,-0.0006872228696011007,0.00007635809743078426,-0.0009162971982732415
1772720920184815600,9.483815673828126,-0.0006872228696011007,-0.0005345066892914474,0.000610864779446274
1772720920203411500,9.502411376953125,-0.0009926552884280682,0.0006872228696011007,0
1772720920222007300,9.52100732421875,-0.0009926552884280682,-0.0005345066892914474,0
1772720920240603100,9.53960302734375,-0.00038179047987796366,0.00007635809743078426,-0.000305432389723137
1772720920259199200,9.55819921875,-0.0009926552884280682,0.00007635809743078426,-0.000305432389723137
1772720920277795000,9.576795166015625,-0.00038179047987796366,-0.0005345066892914474,0
1772720920296391000,9.595390869140624,0.0005345066892914474,0.00038179047987796366,0.0009162971982732415
1772720920314986800,9.61398681640625,0.00022907429956831038,0.00007635809743078426,0.000305432389723137
1772720920333582600,9.63258251953125,-0.00007635809743078426,0.0009926552884280682,0.0009162971982732415
1772720920352178700,9.6511787109375,-0.00038179047987796366,-0.00022907429956831038,0
1772720920370774500,9.6697744140625,-0.00007635809743078426,-0.00022907429956831038,-0.000305432389723137
1772720920389370400,9.688370361328126,-0.00038179047987796366,0.00007635809743078426,0.000305432389723137
1772720920407966500,9.706966552734375,-0.00038179047987796366,0.00007635809743078426,-0.000610864779446274
1772720920426562300,9.725562255859375,-0.00038179047987796366,-0.00022907429956831038,-0.001221729558892548
1772720920445158100,9.744158203125,-0.0009926552884280682,-0.000839939049910754,0.000305432389723137
1772720920463754000,9.76275390625,-0.0016035200096666813,-0.00022907429956831038,0
1772720920482349800,9.781349853515625,-0.0006872228696011007,-0.00022907429956831038,0
1772720920500946000,9.79994580078125,-0.0006872228696011007,-0.0005345066892914474,0
1772720920519541800,9.818541748046876,-0.0009926552884280682,0.00007635809743078426,0
1772720920538137600,9.8371376953125,-0.0009926552884280682,-0.00022907429956831038,0.000305432389723137
1772720920556733400,9.8557333984375,-0.0012980876490473747,0.00007635809743078426,0.000610864779446274
1772720920575329300,9.874329345703124,-0.0016035200096666813,0.00007635809743078426,0.000610864779446274
1772720920593925400,9.89292529296875,-0.0009926552884280682,-0.00022907429956831038,0.000305432389723137
1772720920612521200,9.911521240234375,-0.00038179047987796366,-0.00022907429956831038,0.000610864779446274
1772720920631117000,9.930116943359375,0.00022907429956831038,0.00038179047987796366,-0.000610864779446274
1772720920649713200,9.948713134765624,0.00022907429956831038,0.00007635809743078426,0.000305432389723137
1772720920668309000,9.96730908203125,-0.0009926552884280682,0.00007635809743078426,0.000610864779446274
1772720920686904800,9.98590478515625,-0.00038179047987796366,0.00007635809743078426,0.000305432389723137
1772720920705500700,10.004500732421874,-0.00038179047987796366,-0.00022907429956831038,0
1772720920724096500,10.023096435546876,-0.0006872228696011007,-0.00022907429956831038,0.000305432389723137
1772720920742692400,10.0416923828125,-0.00038179047987796366,-0.0005345066892914474,-0.0009162971982732415
1772720920761288400,10.060288330078125,-0.0009926552884280682,0.00007635809743078426,0
1772720920779884300,10.07888427734375,-0.0009926552884280682,-0.0005345066892914474,-0.000305432389723137
1772720920798480100,10.097480224609376,-0.00038179047987796366,0.0019089524867013097,0.001221729558892548
1772720920817076000,10.116075927734375,-0.0009926552884280682,0.00007635809743078426,-0.000610864779446274
1772720920835672000,10.134672119140625,-0.0009926552884280682,0.00007635809743078426,0.000305432389723137
1772720920854268000,10.153267822265626,-0.0006872228696011007,-0.00022907429956831038,0
1772720920872863700,10.17186376953125,-0.0019089524867013097,0.00007635809743078426,0
1772720920891459600,10.19045947265625,-0.0006872228696011007,0.00038179047987796366,-0.000610864779446274
1772720920910055400,10.209055419921874,-0.0009926552884280682,-0.0005345066892914474,0.000610864779446274
1772720920928651300,10.2276513671875,0.00022907429956831038,0.00038179047987796366,0.0009162971982732415
1772720920947247400,10.246247314453125,-0.0009926552884280682,0.00038179047987796366,0.000305432389723137
1772720920965843200,10.26484326171875,-0.00038179047987796366,0.00007635809743078426,0
1772720920984439000,10.28343896484375,-0.0006872228696011007,-0.00022907429956831038,-0.000305432389723137
1772720921003035000,10.302034912109375,-0.0006872228696011007,0.00038179047987796366,-0.000610864779446274
1772720921021630700,10.320630615234375,-0.00007635809743078426,0.00007635809743078426,0.000610864779446274
1772720921040226800,10.339226806640625,-0.00038179047987796366,0.00007635809743078426,-0.000305432389723137
1772720921058822700,10.35782275390625,-0.00007635809743078426,-0.00022907429956831038,0.0009162971982732415
1772720921077418500,10.37641845703125,-0.0009926552884280682,0.00007635809743078426,0
1772720921096014300,10.395014404296875,-0.0006872228696011007,-0.0005345066892914474,0.000305432389723137
1772720921114610400,10.4136103515625,-0.0009926552884280682,-0.0005345066892914474,-0.000610864779446274
1772720921133206300,10.432206298828126,-0.0009926552884280682,-0.00022907429956831038,0.000305432389723137
1772720921151802000,10.450802001953125,-0.00007635809743078426,0.00007635809743078426,0.000305432389723137
1772720921170398000,10.46939794921875,-0.00038179047987796366,-0.00022907429956831038,0.000305432389723137
1772720921188993800,10.487993896484374,-0.0009926552884280682,0.00007635809743078426,0.000305432389723137
1772720921207589600,10.506589599609375,-0.0006872228696011007,0.00007635809743078426,0.000610864779446274
1772720921226185700,10.525185791015625,-0.0006872228696011007,0.00038179047987796366,0.000610864779446274
1772720921244781600,10.543781494140624,-0.0006872228696011007,-0.00022907429956831038,0.000305432389723137
1772720921263377400,10.56237744140625,-0.0019089524867013097,0.00007635809743078426,-0.0015271619195118546
1772720921281973200,10.58097314453125,-0.0016035200096666813,0.0006872228696011007,-0.000610864779446274
1772720921300569000,10.599569091796875,-0.0016035200096666813,0.00038179047987796366,-0.000305432389723137
1772720921319165000,10.6181650390625,-0.0006872228696011007,-0.0011453714687377214,0
1772720921337761000,10.636760986328126,-0.0009926552884280682,-0.0005345066892914474,0
1772720921356356900,10.65535693359375,-0.0009926552884280682,-0.00022907429956831038,-0.000610864779446274
1772720921374952700,10.67395263671875,-0.0009926552884280682,0.00038179047987796366,-0.000305432389723137
1772720921393548500,10.692548583984374,-0.00038179047987796366,-0.0005345066892914474,0.000610864779446274
1772720921412144400,10.711144287109375,-0.0009926552884280682,0.0009926552884280682,0
1772720921430740200,10.729740234375,-0.00038179047987796366,-0.00022907429956831038,-0.000610864779446274
1772720921449336300,10.74833642578125,-0.0009926552884280682,0.00007635809743078426,0.000610864779446274
1772720921467932200,10.76693212890625,-0.00038179047987796366,0.0006872228696011007,0.000305432389723137
1772720921486528000,10.785528076171875,-0.00038179047987796366,-0.00022907429956831038,0.001221729558892548
1772720921505123800,10.804123779296875,-0.0009926552884280682,-0.00022907429956831038,0.0015271619195118546
1772720921523719700,10.8227197265625,-0.00038179047987796366,0.0006872228696011007,0
1772720921542315500,10.8413154296875,-0.0016035200096666813,0.00038179047987796366,0.000305432389723137
1772720921560911600,10.85991162109375,-0.00007635809743078426,-0.00022907429956831038,0.000305432389723137
1772720921579507500,10.878507568359375,-0.0016035200096666813,0.0009926552884280682,-0.000305432389723137
1772720921598103300,10.897103271484376,-0.0006872228696011007,0.00007635809743078426,0
1772720921616699100,10.91569921875,-0.0012980876490473747,0.00007635809743078426,-0.001221729558892548
1772720921635295000,10.934294921875,-0.0006872228696011007,-0.00022907429956831038,-0.000305432389723137
1772720921653890800,10.952890869140624,-0.0009926552884280682,0.0006872228696011007,0.000610864779446274
1772720921672486700,10.971486572265626,-0.002825249684974551,0.07612902671098709,0.03634645417332649
1772720921691082800,10.990082763671875,-0.0012980876490473747,0.012293653562664986,0.004276053514331579
1772720921709678600,11.0086787109375,0.0011453714687377214,-0.04543306678533554,-0.023212861269712448
1772720921728274400,11.0272744140625,-0.00007635809743078426,-0.003894262947142124,-0.0027488914784044027
