time,seconds_elapsed,z,y,x
1772796609750547000,0.076546875,-1.0986071381002664,1.8289305605150759,0.5002957559814676
1772796609760539000,0.086538818359375,-1.1939204464763402,1.9994746125727891,0.47202308976445345
1772796609770530800,0.09653076171875,-1.39468851801455,1.978968707899749,0.4574854093134403
1772796609780522800,0.106522705078125,-1.6488023952931166,1.9079095508143304,0.35013398221712555
1772796609790515000,0.116514892578125,-1.8634528617113828,1.8281294732652604,0.11046692876834421
1772796609800507000,0.1265068359375,-1.9386597861260175,1.8100474347382782,-0.1496728394699283
1772796609810499000,0.1364990234375,-1.9360434661477803,1.7919785479538142,-0.43811117555145174
1772796609820490800,0.14649072265625,-1.8813076673537492,1.6949759713165462,-0.7698271652854979
1772796609830484000,0.15648388671875,-1.715717876702547,1.5619883274540305,-1.1752839889369904
1772796609840476000,0.166475830078125,-1.5066256289333104,1.3652394284293055,-1.6655438328661023
1772796609850467800,0.1764677734375,-1.2951596377700567,1.1042255625039339,-2.07482372193709
1772796609860459800,0.186459716796875,-1.0665554648011921,0.8382505670398473,-2.322427048277855
1772796609870452000,0.196451904296875,-0.7550456296086311,0.5850614033907652,-2.4721187203124164
1772796609880444000,0.20644384765625,-0.48699733500182624,0.38087154071032997,-2.509760176442563
1772796609890435800,0.216435791015625,-0.24622809246480465,0.25071546701192854,-2.427773674890399
1772796609900427800,0.226427734375,0.0314537074059248,0.1770657089114189,-2.278261158815026
1772796609910420000,0.236419921875,0.30358430289030075,0.18225071033388376,-2.0670114407509566
1772796609920412000,0.246411865234375,0.5187789591878652,0.19622575193345546,-1.8232263575240968
1772796609930403800,0.25640380859375,0.707540366590023,0.23213030126839876,-1.6291354256622492
1772796609940395800,0.266395751953125,0.8124912718832492,0.17178630720376967,-1.4754102603279053
1772796609950389000,0.276388916015625,0.8233972813010215,0.04835515784621239,-1.3046075573340057
1772796609960380700,0.286380615234375,0.781072051268816,-0.12260229731798171,-1.1838602402329443
1772796609970372600,0.29637255859375,0.7138286530792712,-0.3338455856412649,-1.1136265741862357
1772796609980364800,0.30636474609375,0.7233300563961267,-0.4600035296142101,-1.0736932807918638
1772796609990356700,0.316356689453125,0.7601397378772496,-0.528708817049861,-1.0732120731461792
1772796610000349000,0.326348876953125,0.8178817327499389,-0.6167983116522431,-1.0550884604997932
1772796610010340600,0.336340576171875,0.8248077326208353,-0.7344815650075673,-0.9625191901348531
1772796610020332800,0.346332763671875,0.8074298968404531,-0.9196689133152365,-0.8095673472605646
1772796610030324700,0.35632470703125,0.7824053456991911,-1.0547212346225976,-0.6403455567825586
1772796610040317000,0.36631689453125,0.7523556598722935,-1.1858356319591403,-0.4899041258266195
1772796610050308600,0.37630859375,0.7008709718286991,-1.3046771154388785,-0.4025386711824685
1772796610060300800,0.38630078125,0.6124971073269844,-1.4234294593304395,-0.33156357565131034
1772796610070292700,0.396292724609375,0.48477732086479663,-1.5198001678049564,-0.2668997090935707
1772796610080285700,0.40628564453125,0.23627602277100085,-1.641608099874854,-0.20831563737355172
1772796610090277600,0.416277587890625,-0.0904348886847496,-1.740009729655087,-0.17351353285517543
1772796610100269800,0.426269775390625,-0.4060977519035339,-1.7510504713684318,-0.154916019086726
1772796610110261800,0.43626171875,-0.6787450647383928,-1.7371029022976756,-0.14154502606121822
1772796610120253700,0.446253662109375,-0.9425620053857564,-1.701791934941709,-0.12915171896144748
1772796610130245600,0.45624560546875,-1.1508236475497484,-1.595683968567848,-0.17448734632339327
1772796610140237800,0.46623779296875,-1.2903800022780894,-1.5067816962778566,-0.27589316288828847
1772796610150229800,0.476229736328125,-1.3921873488485812,-1.388140703806281,-0.2664144097946584
1772796610160221700,0.4862216796875,-1.4924883825093507,-1.3208780163943767,-0.23865115440450607
1772796610170213600,0.496213623046875,-1.522714009425044,-1.2365537195444107,-0.25736670506205406
1772796610180205800,0.506205810546875,-1.4785837757974862,-1.115519694456458,-0.33156890941355377
1772796610190197800,0.51619775390625,-1.356874043405056,-0.9902774040237069,-0.4135209241742268
1772796610200190700,0.526190673828125,-1.1985428455799818,-0.8544473763421178,-0.499123095472902
1772796610210182700,0.5361826171875,-1.044479826593399,-0.7735849103838205,-0.572520997704193
1772796610220174800,0.5461748046875,-0.9422311659961938,-0.665298138666153,-0.5723921836927532
1772796610230166800,0.556166748046875,-0.8446902446985244,-0.5928311606094241,-0.36880021384023126
1772796610240158700,0.56615869140625,-0.5750321768075227,-0.5539677614688873,-0.09415051167439668
1772796610250150700,0.576150634765625,-0.25681203032135963,-0.29720220063775776,-0.2254465857207775
1772796610260142800,0.586142822265625,-0.12642623952031135,0.11464812344312666,-0.5819532813075929
1772796610270134800,0.596134765625,-0.11722820306420326,0.38609044440239665,-0.657034533515945
1772796610280126700,0.606126708984375,-0.2278261743336916,0.4951984693750739,-0.5268553346702829
1772796610290118700,0.61611865234375,-0.377467869746685,0.5185615170449018,-0.23799037067452444
1772796610300110800,0.62611083984375,-0.4785334580391645,0.5608364781945944,0.05701990940952673
1772796610310102800,0.636102783203125,-0.36545711395740504,0.7238625558376311,0.2537073423042893
1772796610320095700,0.646095703125,-0.0681400547683239,0.9891223887696862,0.23173580379178746
1772796610330087700,0.656087646484375,0.2688748085588217,1.182453296044469,0.10319008789947255
1772796610340079900,0.666079833984375,0.5380781184196471,1.2317702846601604,-0.04173345641782507
1772796610350071600,0.676071533203125,0.7032786174923181,1.0985042622476815,-0.12547469268282874
1772796610360063700,0.686063720703125,0.7166402033686637,0.8637015268996358,-0.06987604824807495
1772796610370055700,0.6960556640625,0.6823696849763393,0.6245023101583123,0.035182299474999304
1772796610380048000,0.7060478515625,0.7210013211876154,0.475099099676311,0.07387447023447602
1772796610390039800,0.716039794921875,0.8395441139817237,0.4379302294939756,0.005337415505200624
1772796610400031700,0.72603173828125,1.0399977127432822,0.5233861607223749,-0.0986180307435803
1772796610410023700,0.736023681640625,1.3388503109365701,0.6186638132631779,-0.15957975484775377
1772796610420015900,0.746015869140625,1.5716472594201565,0.6925023719340563,-0.19623493988690896
1772796610430007800,0.7560078125,1.7326245878398416,0.672149904257059,-0.1849181394448504
1772796610439999700,0.765999755859375,1.8322610201120375,0.6170031865745782,-0.08410513767395168
1772796610449992700,0.77599267578125,1.9075158753216266,0.4997770293369889,0.05064155175033956
1772796610459985000,0.78598486328125,2.006768861234188,0.40792292150408027,0.13030037753991783
1772796610469976600,0.7959765625,2.091993321794271,0.37689708412140605,0.19974336813297122
1772796610479968800,0.80596875,2.1634061146229504,0.3772092188104987,0.23622896875888108
1772796610489960700,0.815960693359375,2.1344658513426777,0.32701398605555293,0.2897154250789434
1772796610499953000,0.825952880859375,2.068465146690607,0.29463498049825426,0.3729710332514718
1772796610509944600,0.835944580078125,2.014008749359846,0.29946634617745876,0.43418819342143833
1772796610519936800,0.845936767578125,1.9191946226775645,0.2917100329622626,0.501057643732056
1772796610529928700,0.8559287109375,1.7961936814308166,0.28107904109358783,0.546046101624146
1772796610539921000,0.8659208984375,1.6476631621301172,0.23000731776505706,0.5554699827253818
1772796610549912600,0.87591259765625,1.524271175739169,0.18420359796732663,0.5012682542754336
1772796610559904800,0.88590478515625,1.4222972404301166,0.10215016865879296,0.44594234410114586
1772796610569897700,0.895897705078125,1.3325427352249621,0.046318391321599484,0.3679255133649334
1772796610579889700,0.9058896484375,1.1957605213850735,0.0005026888251304626,0.33694676652699707
1772796610589881600,0.915881591796875,1.0432119986146688,-0.059065352430939674,0.3232317641030997
1772796610599873800,0.925873779296875,0.874825855243206,-0.0852589473515749,0.3155574300829321
1772796610609865700,0.93586572265625,0.7416226689338684,-0.07888853553682565,0.2892414326253347
1772796610619857700,0.945857666015625,0.663757338964939,-0.0758563282340765,0.24285397638920694
1772796610629849600,0.955849609375,0.5811755018681287,-0.07825052989423274,0.1644061520908959
1772796610639841800,0.965841796875,0.5217834017008542,-0.121803548155725,0.06169360030898824
1772796610649833700,0.975833740234375,0.4473211581736803,-0.15044249040186405,-0.025465753286832475
1772796610659826000,0.985825927734375,0.38103053066432474,-0.18457418484538793,-0.05100190492875408
1772796610669817600,0.995817626953125,0.2950058596372604,-0.23968261634409427,0.006392573985029594
1772796610679809800,1.005809814453125,0.1960965725958347,-0.30798604498058557,0.09700388267836534
1772796610689801700,1.0158017578125,0.137577748131752,-0.34154110857993364,0.16167004165789112
1772796610699794700,1.025794677734375,0.09437748883068561,-0.3395587025910616,0.22916381614562123
1772796610709786600,1.03578662109375,0.08160627006292343,-0.3293009279489517,0.28524642643872644
1772796610719778800,1.04577880859375,0.06625964784920216,-0.33832097748965023,0.3203089719915762
1772796610729770800,1.055770751953125,0.11394845074117183,-0.34612697506546974,0.37059045825786885
1772796610739762700,1.0657626953125,0.14174188207387922,-0.37172728026807306,0.3924012349843979
1772796610749754600,1.075754638671875,0.15129939949214458,-0.4086950749203562,0.4212136341013014
1772796610759746800,1.085746826171875,0.12581892127692698,-0.44779345186054703,0.44436950529385355
1772796610769738800,1.09573876953125,0.10959200909733771,-0.4644347900599241,0.45150914791543034
1772796610779730700,1.105730712890625,0.10867898590564727,-0.47462534468472,0.4565469228869304
1772796610789722600,1.11572265625,0.03363748118579388,-0.4639452529773116,0.5027116945493966
1772796610799714800,1.12571484375,-0.12209142518639564,-0.5019163794532417,0.5453577175011858
1772796610809706800,1.135706787109375,-0.22334406048357486,-0.5019517430275678,0.5664378053329885
1772796610819699700,1.14569970703125,-0.24181904385089872,-0.4606204924687743,0.5877360294274986
1772796610829691600,1.155691650390625,-0.3036772418707609,-0.440870666860044,0.5896820489287377
1772796610839683800,1.165683837890625,-0.4109691573321819,-0.4515256241261959,0.59749184589684
1772796610849675800,1.17567578125,-0.4696580776661634,-0.44607817237526176,0.6361800346009433
1772796610859667700,1.185667724609375,-0.5788578725755215,-0.4683388117611408,0.7079924942716955
1772796610869659600,1.19565966796875,-0.6352794324994087,-0.4331337889976799,0.7311720020681619
1772796610879651800,1.20565185546875,-0.695253716468811,-0.40457229590192434,0.6998695397011935
1772796610889643800,1.215643798828125,-0.7540858446657657,-0.3299956322148442,0.6912710765734315
1772796610899635700,1.2256357421875,-0.7941641725540161,-0.26512919228971005,0.7087364445067942
1772796610909627600,1.235627685546875,-0.8277467086821794,-0.20967866935506463,0.7520965705446898
1772796610919619800,1.245619873046875,-0.8735124345570802,-0.18046981826648115,0.7953976598717272
1772796610929611800,1.25561181640625,-0.8722901992857456,-0.12692600573599339,0.8710610958822071
1772796610939604700,1.265604736328125,-0.8653057472258806,-0.05959522152394056,0.89247534757182
1772796610949596700,1.2755966796875,-0.8313099541217088,0.00821501676812768,0.8690640768460929
1772796610959588900,1.2855888671875,-0.7875041301429271,0.07192863339632749,0.8903997103415429
1772796610969580500,1.29558056640625,-0.7735901710808276,0.04416720463708043,0.915070771870017
1772796610979572500,1.305572509765625,-0.7587099973350763,-0.09910700157061218,1.0187031419105828
1772796610989564700,1.315564697265625,-0.6929629751831292,-0.30841026174202557,1.12029268101193
1772796610999556600,1.325556640625,-0.525530771535635,-0.35980288758799434,1.0015287928130476
1772796611009548500,1.335548583984375,-0.28823300450146194,-0.14092398981973528,0.6373357805073261
1772796611019540500,1.34554052734375,-0.1443488497018814,0.14942016161680222,0.30948870462849737
1772796611029532700,1.35553271484375,-0.24296587579846382,0.2057575503885746,0.23436839905139056
1772796611039524600,1.365524658203125,-0.4234516222864389,0.11522168554738163,0.38834268030859526
1772796611049516800,1.375516845703125,-0.5408914222747088,0.09747428580224514,0.5871902321130037
1772796611059508500,1.385508544921875,-0.565611437511444,0.23452070353627202,0.6108194564383477
1772796611069501700,1.395501708984375,-0.4869155019372701,0.4321158441267907,0.4906693745780736
1772796611079493600,1.40549365234375,-0.38759588052928445,0.5694317264519632,0.35580479439515617
1772796611089485600,1.415485595703125,-0.27379589834809304,0.5737729705266654,0.2801143242472783
1772796611099477500,1.4254775390625,-0.1682768377780914,0.5165070687331259,0.22865973908100276
1772796611109469700,1.4354697265625,-0.09928338105082511,0.4408936093442142,0.15531937572322785
1772796611119461600,1.445461669921875,0.0017974048107862472,0.3745607501283288,0.0752041844682768
1772796611129453600,1.45545361328125,0.0827098473906517,0.33749665549471974,0.030706396169960497
1772796611139445500,1.465445556640625,0.05300152234733104,0.2914448061548173,0.08482325934804975
1772796611149437700,1.475437744140625,-0.11165011067092417,0.2844059935592115,0.19399101515132933
1772796611159429600,1.4854296875,-0.23140812447369097,0.3839500713728368,0.1968655111417174
1772796611169421600,1.495421630859375,-0.1058329488247633,0.5652313521526754,0.001891220574080944
1772796611179413500,1.50541357421875,0.10329203217029571,0.7035347842104732,-0.2616692976268008
1772796611189405700,1.51540576171875,0.2866705774903297,0.7486883695363998,-0.5324648085825145
1772796611199398400,1.5253984375,0.5165402403503656,0.7373119661279022,-0.7700991140946746
1772796611209390600,1.535390625,0.7235077510505914,0.6871497588597237,-0.8808587056666612
1772796611219382500,1.545382568359375,0.960625485342741,0.6809633253097533,-0.9110099521718918
1772796611229374700,1.555374755859375,1.2673287970364093,0.6548799127653241,-0.9395750254642218
1772796611239366700,1.56536669921875,1.555907253974676,0.6342559346705675,-0.9014375294454395
1772796611249358600,1.575358642578125,1.801567775684595,0.6327770942896604,-0.7897859574697911
1772796611259350500,1.5853505859375,2.021395937001705,0.648747985881567,-0.717940983768925
1772796611269342700,1.5953427734375,2.263798333698511,0.6805613203801214,-0.6816285842854529
1772796611279334700,1.605334716796875,2.495565939134359,0.8004895761832594,-0.6610811785582452
1772796611289326600,1.61532666015625,2.6905074964761733,0.9253582109980285,-0.5595864781334996
1772796611299318500,1.625318603515625,2.7717320737451314,0.9998100792616605,-0.47791671438030897
1772796611309310700,1.635310791015625,2.650461317291856,1.0202632308341562,-0.4306570966858417
1772796611319303400,1.645303466796875,2.4387007270962,0.9915132294289767,-0.42947044418454167
1772796611329295600,1.655295654296875,2.111343334430456,0.8824784158229827,-0.5224278005516156
1772796611339287600,1.66528759765625,1.7087117973327637,0.7036608948081732,-0.6199807410806417
1772796611349279700,1.67527978515625,1.266855918827653,0.5870018699340522,-0.790550439036265
1772796611359271400,1.685271484375,0.7530757908403873,0.45079365658983583,-0.9283817966029048
1772796611369263600,1.695263671875,0.2939402762323618,0.3375545231617987,-0.9643730743732303
1772796611379255600,1.705255615234375,-0.1737754351943731,0.2782823230471462,-0.8887015281215309
1772796611389247700,1.715247802734375,-0.6907634193122386,0.19973660959862172,-0.8123377618219703
1772796611399239400,1.725239501953125,-1.2420493943512438,0.10875964992642402,-0.8143550199285149
1772796611409231600,1.735231689453125,-1.784148438850045,0.058293052884191274,-0.8034093360874801
1772796611419223600,1.7452236328125,-2.192875370213389,-0.019174583004042504,-0.6783244281735271
1772796611429215700,1.7552158203125,-2.4602368515998125,-0.10206358635388314,-0.5736683411084115
1772796611439207700,1.765207763671875,-2.5695792698502538,-0.15507270748578011,-0.4469785552810877
1772796611449200600,1.77520068359375,-2.5932319481164217,-0.20987941609155386,-0.3365026760213077
1772796611459192600,1.785192626953125,-2.5335867499709126,-0.32384511022847146,-0.21029782416671514
1772796611469184500,1.7951845703125,-2.383137829828262,-0.5002491768933832,-0.13897007927298546
1772796611479176400,1.805176513671875,-2.1653724462598563,-0.7219191666848958,-0.13639138789139688
1772796611489168600,1.815168701171875,-1.9880302584946155,-0.9292682240486144,-0.23056970088817177
1772796611499160600,1.82516064453125,-1.7715911550939083,-1.0742952652730047,-0.30729974321685727
1772796611509152800,1.83515283203125,-1.5369313353478908,-1.2261010068520903,-0.3484443851623684
1772796611519144400,1.84514453125,-1.3810615592002868,-1.3650938824787735,-0.3258057062443346
1772796611529136600,1.85513671875,-1.2699036159604786,-1.4486124159038065,-0.23805684177316724
1772796611539128600,1.865128662109375,-1.1318892299771308,-1.4905509847059846,-0.14656068053245544
1772796611549120800,1.875120849609375,-0.9670552261292934,-1.517642989771068,-0.042048166656494135
1772796611559112400,1.885112548828125,-0.8799521122157573,-1.5332926865845917,0.049586745467782016
1772796611569105700,1.895105712890625,-0.8613345055073499,-1.5413064816921949,0.0885628842677921
1772796611579097900,1.905097900390625,-0.8467880937606096,-1.5250556041151284,0.1282344579860568
1772796611589089500,1.915089599609375,-0.7899749041706323,-1.4887357519775628,0.17524850342161952
1772796611599081500,1.92508154296875,-0.7675438766539097,-1.4497788293346763,0.21465821133330462
1772796611609073700,1.93507373046875,-0.7603899132460356,-1.431586608431488,0.2707167831636965
1772796611619065600,1.945065673828125,-0.7388081960350275,-1.4135286814324557,0.31484497096464037
1772796611629057500,1.9550576171875,-0.7355576698064804,-1.3883894178703426,0.36825748526565727
1772796611639049500,1.965049560546875,-0.7666285153746605,-1.384251149021834,0.41189949698485434
1772796611649041700,1.975041748046875,-0.8043412831753491,-1.3533105057045816,0.453138612280786
1772796611659033600,1.98503369140625,-0.8125128991931676,-1.2688992612235248,0.4542047071423381
1772796611669025500,1.995025634765625,-0.8299030099332332,-1.1864873738661408,0.4030302540916949
1772796611679017500,2.005017578125,-0.8788497039318084,-1.1385838322449475,0.35096696244254705
1772796611689009700,2.015009765625,-0.8889081566095351,-1.1037212662436067,0.34675000233463943
1772796611699002600,2.025002685546875,-0.8615940332263707,-1.0719020865261555,0.3827290051452815
1772796611708994600,2.03499462890625,-0.8440636372327804,-1.013999567329511,0.41733321247138083
1772796611718986500,2.044986572265625,-0.8215805872678756,-0.9319237069934606,0.42126339152716097
1772796611728978700,2.054978759765625,-0.7531798357367515,-0.8245699783422052,0.42101942670345305
1772796611738970600,2.064970703125,-0.6712947487324475,-0.7091966824296861,0.39695619487501677
1772796611748962600,2.074962646484375,-0.6245756676554679,-0.6307717458166182,0.3552242545608431
1772796611758954500,2.08495458984375,-0.5722504371345043,-0.5648045781079679,0.3348233446322381
1772796611768946700,2.09494677734375,-0.4872445877611637,-0.5157957055933773,0.37660759965553875
1772796611778938600,2.104938720703125,-0.3732745097100735,-0.4405030025914311,0.3652925710454583
1772796611788930600,2.1149306640625,-0.25206395901143547,-0.35460407683588563,0.3218411865275353
1772796611798922500,2.124922607421875,-0.10584054760932922,-0.26623306187838314,0.25294673319533467
1772796611808914700,2.134914794921875,-0.004469838890433312,-0.22386413883492348,0.22322927499748765
1772796611818907600,2.14490771484375,0.05318915387392044,-0.19576010718308387,0.2109388985492289
1772796611828899600,2.154899658203125,0.10783785890638828,-0.18405008790604768,0.21063494716659187
1772796611838891800,2.164891845703125,0.16648936983942986,-0.16457338015027342,0.19847828010059893
1772796611848883700,2.1748837890625,0.2240606843203306,-0.09710567168556153,0.1931018477592617
1772796611858875400,2.18487548828125,0.32496728265881536,-0.10467786050550638,0.23261048600077627
1772796611868867600,2.19486767578125,0.41146833902597424,-0.10776830080151557,0.2777993983684108
1772796611878859500,2.204859619140625,0.4582698376893997,-0.16942615394368768,0.34196605599373575
1772796611888851700,2.214851806640625,0.42763270736336706,-0.29494843036159873,0.4852067617906257
1772796611898843600,2.22484375,0.45416298689246176,-0.4587184582397342,0.6190921947430819
1772796611908835600,2.234835693359375,0.5140156903088092,-0.4653748473890125,0.6296734291858971
1772796611918827500,2.24482763671875,0.5222615406066179,-0.30731136058941483,0.4218262861069292
1772796611928819700,2.25481982421875,0.4828595045447349,-0.09485518934503197,0.1285015662233345
1772796611938811600,2.264811767578125,0.32163609240949154,0.043295244108140465,-0.13273679264029487
1772796611948804600,2.2748046875,0.07812778029739856,0.12493307835310696,-0.35261348754055793
1772796611958796800,2.284796875,-0.23238018437623975,0.18174480663836,-0.4710904485568404
1772796611968790500,2.29479052734375,-0.4968383455365896,0.33952290062531826,-0.5535946903727949
1772796611978782500,2.304782470703125,-0.7220435237169265,0.5042777017571032,-0.5775329806473106
1772796611988774700,2.314774658203125,-0.9167565329998731,0.6524680293180048,-0.47736375667266545
1772796611998766300,2.324766357421875,-0.9981909536272286,0.7799616058088839,-0.2890432614384219
1772796612008758500,2.334758544921875,-0.9923913274377584,0.8142783014304935,-0.07322364164292812
1772796612018750500,2.34475048828125,-0.9132809658437967,0.8025200590975582,0.1039100362044759
1772796612028742700,2.35474267578125,-0.7517325595378875,0.717920890828967,0.1444865046069026
1772796612038734300,2.364734375,-0.4885995095014572,0.5998777181200683,0.09045306366225704
1772796612048726500,2.3747265625,-0.21476912436187265,0.456099361782521,-0.02628435107716359
1772796612058718500,2.384718505859375,0.07018237425088882,0.3072255820021033,-0.1252931073045358
1772796612068711400,2.39471142578125,0.30541210283935066,0.2171012205712497,-0.17884444555435328
1772796612078703400,2.404703369140625,0.49924949833154675,0.07637289945408701,-0.20435637835375964
1772796612088695600,2.414695556640625,0.6592594430238008,-0.03317556276246905,-0.2095839768089354
1772796612098687500,2.4246875,0.7829325844436883,-0.0962859528005123,-0.18692513188570736
1772796612108679400,2.434679443359375,0.9099386696785687,-0.146536276743561,-0.14487548565817995
1772796612118671400,2.44467138671875,1.011118239739537,-0.1546513402685523,-0.055511212746473027
1772796612128663600,2.45466357421875,1.1269476819217203,-0.18669409960880876,0.04970208807629533
1772796612138655500,2.464655517578125,1.1699988881409167,-0.1884489804521203,0.15906597837302833
1772796612148647400,2.4746474609375,1.163948502060771,-0.14897548658922313,0.23808897221079095
1772796612158639400,2.484639404296875,1.1213298420399427,-0.1000353684619069,0.35352278440520163
1772796612168631600,2.494631591796875,0.9764525845497846,0.009149082747846841,0.41209673659000545
1772796612178623500,2.50462353515625,0.7389017195373773,0.13784078298211097,0.49290973738338795
1772796612188615700,2.51461572265625,0.4856529346555471,0.28733678631410003,0.5462924410680309
1772796612198608400,2.5246083984375,0.2727911052197218,0.40250718006566166,0.5941875436544418
1772796612208600600,2.5346005859375,0.12559738748073576,0.5068215410210192,0.64435245433636
1772796612218592500,2.544592529296875,-0.009438274952769278,0.6072662209361791,0.6963818437159061
1772796612228584400,2.55458447265625,-0.11628887638747691,0.6891156521052122,0.7633451097898185
1772796612238576400,2.564576416015625,-0.18387012822926044,0.7222270635902881,0.88277484148629
1772796612248568600,2.574568603515625,-0.20848259143829345,0.7626471906535327,0.9595410511068999
1772796612258560500,2.584560546875,-0.20926059007346628,0.7946236067593098,1.0363858058564364
1772796612268552400,2.594552490234375,-0.24162264449596405,0.8270844453811645,1.0271383773006497
1772796612278544400,2.60454443359375,-0.3034779199063778,0.8453367259085178,1.0279553927719594
1772796612288536600,2.61453662109375,-0.37376317000985143,0.8604385795809328,1.008312680799514
1772796612298528500,2.624528564453125,-0.4388754013895988,0.8832518844135105,0.9770770731236785
1772796612308520400,2.6345205078125,-0.49270519125461576,0.9523644374758005,0.9236315333358943
1772796612318513400,2.644513427734375,-0.53225394231081,0.9798637081675231,0.839458262329176
1772796612328505600,2.654505615234375,-0.5109504575192928,1.0154705897301435,0.7650069055221974
1772796612338497300,2.664497314453125,-0.44747956360578534,1.049764342867583,0.697377869015932
1772796612348489500,2.674489501953125,-0.3456535123348236,1.0424836843401193,0.6674196608647703
1772796612358481400,2.6844814453125,-0.2621235807329416,1.0360403534196316,0.6122586954612285
1772796612368473600,2.6944736328125,-0.17300561986565588,0.9827755039609968,0.5653340818747877
1772796612378465500,2.704465576171875,-0.07762684503793715,0.9074459760800003,0.5476192692250013
1772796612388457500,2.71445751953125,0.02232289096713066,0.84655881504938,0.5582984476169571
1772796612398449400,2.724449462890625,0.10387889214754104,0.7532765741094947,0.6112054966138676
1772796612408441600,2.734441650390625,0.2063677912414074,0.6987596787631511,0.6588628449216485
1772796612418433500,2.74443359375,0.3035159138292074,0.642757513295114,0.7308690005335956
1772796612428425500,2.754425537109375,0.3297095087498426,0.6069644615106284,0.8159769951071589
1772796612438418400,2.76441845703125,0.3088625355541706,0.5703257526822387,0.8861527934867888
1772796612448410600,2.77441064453125,0.2577197928160429,0.4725708963729441,0.9459719599597155
1772796612458402300,2.78440234375,0.19477906025648115,0.39437092762216924,0.9655383187603205
1772796612468394500,2.79439453125,0.20114742624461648,0.3565380405731499,0.9505788692332804
1772796612478386400,2.804386474609375,0.21431261276602745,0.38153278109803795,0.9073444884669035
1772796612488378600,2.814378662109375,0.2627864285558462,0.3722007429987192,0.8642799843747169
1772796612498370300,2.824370361328125,0.30094343299269677,0.3372885657019913,0.8495863461770117
1772796612508362500,2.834362548828125,0.3012193273246288,0.30492855710610745,0.8732605056226252
1772796612518354400,2.8443544921875,0.322149887150526,0.30494448532760143,0.8352665827929973
1772796612528346600,2.8543466796875,0.32204467321038244,0.3150863785050809,0.7648435316540301
1772796612538338300,2.86433837890625,0.365582201641798,0.31714448007866736,0.7105329725347459
1772796612548330500,2.87433056640625,0.3529991989225149,0.2772742419831455,0.6317204979088157
1772796612558322400,2.884322509765625,0.3110843032568693,0.2369642972961068,0.5751609908189624
1772796612568315400,2.8943154296875,0.23890870936214922,0.2087057326696813,0.5261881759984418
1772796612578307300,2.904307373046875,0.19818039313256738,0.19738266688361764,0.536259232429415
1772796612588299500,2.914299560546875,0.1244458793580532,0.16254750034585594,0.5591709561351687
1772796612598291500,2.92429150390625,0.045668110719323154,0.08642185365110636,0.559468112450838
1772796612608283400,2.934283447265625,0.0028927988320589064,-0.008266893085837364,0.4895007691901177
1772796612618275300,2.944275390625,0.009469254612922667,-0.060384033814072605,0.4536847018562257
1772796612628267500,2.954267578125,0.030652327895164488,-0.08596870305612683,0.453160093460232
1772796612638259500,2.964259521484375,0.0740261901974678,-0.13810074909254907,0.4524640740200877
1772796612648251600,2.974251708984375,0.12105974405109882,-0.21988602898418902,0.51258529217951
1772796612658243300,2.984243408203125,0.21022563571333883,-0.3076245181918144,0.5488985684458166
1772796612668235500,2.994235595703125,0.2706558467566967,-0.31644962968230245,0.5839475238647311
1772796612678227500,3.0042275390625,0.26981062810420986,-0.27949805551245804,0.6068748104657977
1772796612688220400,3.014220458984375,0.23712182594537734,-0.2971250437483191,0.5846964425358921
1772796612698212400,3.02421240234375,0.19686989505589006,-0.3511765135399997,0.5659385505739599
1772796612708204500,3.03420458984375,0.11310264756679535,-0.37632074553817507,0.5013293002802879
1772796612718196500,3.044196533203125,0.061035191199183464,-0.38085444344505665,0.4963329532977193
1772796612728188400,3.0541884765625,0.04573065456151962,-0.35187823206856844,0.4575224899208173
1772796612738180400,3.064180419921875,0.050258361119031904,-0.33020927496552466,0.43507867598775773
1772796612748172500,3.074172607421875,0.08737900824546814,-0.30984190198034045,0.46202469671089197
1772796612758164500,3.08416455078125,0.08919511775672435,-0.3064889382906258,0.5321388280311599
1772796612768156400,3.094156494140625,0.06311375103890896,-0.32597602130994197,0.5718156624464318
1772796612778148400,3.1041484375,0.05631693050563335,-0.39834304612353444,0.5781334307584911
1772796612788140500,3.114140625,0.05693301657736301,-0.4362536745838821,0.6004714096968993
1772796612798132500,3.124132568359375,0.007466682618856429,-0.5057148949533701,0.6989940720409155
1772796612808125400,3.13412548828125,-0.06982113972306252,-0.6999605789855122,0.8824280008099973
1772796612818117600,3.14411767578125,-0.09651391633749008,-0.931722485332936,0.9913824426561594
1772796612828109600,3.154109619140625,-0.11636603327691554,-0.9280604556940495,0.804983745797351
1772796612838101500,3.1641015625,-0.19293255560696124,-0.7088350825756787,0.5039435013666749
1772796612848093400,3.174093505859375,-0.29506898800134657,-0.5115003464870155,0.39707678904738275
1772796612858085400,3.18408544921875,-0.4748129762113094,-0.4850244274936616,0.523933784667775
1772796612868077600,3.19407763671875,-0.6688128687888384,-0.49927024885863064,0.708637952568382
1772796612878069500,3.204069580078125,-0.7477671630382537,-0.3009109920278191,0.8016632230725139
1772796612888061400,3.2140615234375,-0.7336059512168168,0.017125614584982393,0.7741966125413775
1772796612898053400,3.224053466796875,-0.7231687283545732,0.27611849607676264,0.7533410176478326
1772796612908045600,3.234045654296875,-0.672069824758172,0.45095235428288577,0.7351030579067767
1772796612918037500,3.24403759765625,-0.6972095267117023,0.44268721476271744,0.738017849374935
1772796612928030500,3.254030517578125,-0.7455150001972913,0.22584464512765406,0.7210620383989066
1772796612938022700,3.264022705078125,-0.8681126213401555,0.010588467901200056,0.6670098379548639
1772796612948014600,3.2740146484375,-0.8112696211338043,-0.059261313394457095,0.4644077559225261
1772796612958006500,3.284006591796875,-0.7415086871653794,-0.08461305066347122,0.35365517861321566
1772796612967996700,3.29399658203125,-0.6400824488669633,-0.07213380057960748,0.20562048000544308
1772796612977988600,3.303988525390625,-0.549164160579443,0.03994549528881907,0.08077829480618239
1772796612987980500,3.31398046875,-0.583901711961627,0.18677257167249917,0.04401599613074213
1772796612997972500,3.323972412109375,-0.6434165617257356,0.33136823574230073,-0.0814042081521824
1772796613007964700,3.333964599609375,-0.694578593686223,0.5071726925462484,-0.1903217155214399
1772796613017956600,3.34395654296875,-0.7037438969165086,0.5832471935756505,-0.21040742202103135
1772796613027948500,3.353948486328125,-0.755787972408533,0.579674595785886,-0.24825477598682044
1772796613037940500,3.3639404296875,-0.7546680284678936,0.5923565288349986,-0.3714747668117285
1772796613047933700,3.37393359375,-0.7780722849309444,0.5237297134630382,-0.41769349715113635
1772796613057925400,3.38392529296875,-0.7565133640736341,0.49149873807430267,-0.4768396232007071
1772796613067917600,3.39391748046875,-0.6955828022927045,0.4849481473870575,-0.5702828268559649
1772796613077909500,3.403909423828125,-0.6113695646017789,0.5109273689046502,-0.6676305271364749
1772796613087901700,3.413901611328125,-0.5428706133931875,0.5919160915911197,-0.7182496113266795
1772796613097893400,3.423893310546875,-0.45977205894589424,0.6757692637979984,-0.7803405951891094
1772796613107885600,3.433885498046875,-0.3527642211228609,0.7047314466491341,-0.7916150725930928
1772796613117877500,3.44387744140625,-0.1954179426819086,0.71438131852597,-0.7709788926038891
1772796613127869700,3.45386962890625,0.0020171850413084028,0.7422535141833126,-0.7398680803515016
1772796613137861400,3.463861328125,0.16427052474617956,0.6978298505671322,-0.7053470943294465
1772796613147853600,3.473853515625,0.3352250573009252,0.6236565069839358,-0.6747587715812027
1772796613157845500,3.483845458984375,0.5149135159313678,0.5302974014155566,-0.6682074502415954
1772796613167838500,3.49383837890625,0.7076473340958357,0.4298160427518189,-0.6949314987771212
1772796613177830400,3.503830322265625,0.8921160127401352,0.36076296479180453,-0.6747649090610444
1772796613187822600,3.513822509765625,0.9719330612987279,0.2655782512314617,-0.6949160089470445
1772796613197814500,3.523814453125,1.0096832385003567,0.21794527017995713,-0.6862064866602421
1772796613207806500,3.533806396484375,0.9956979677677154,0.1474880245104432,-0.6805868932127952
1772796613217798400,3.54379833984375,1.0015332497924565,0.1411968154117465,-0.6614544688500463
1772796613227790600,3.55379052734375,1.0086807834595442,0.17811419505104423,-0.6633277153760194
1772796613237782500,3.563782470703125,0.96017949514091,0.22472382440418004,-0.5820480103863402
1772796613247774700,3.573774658203125,0.8577700910240411,0.2602219848953187,-0.49947753493376074
1772796613257766400,3.583766357421875,0.6999544415056705,0.26099983740001914,-0.38101566188875585
1772796613267758600,3.593758544921875,0.5288888497918844,0.26232363334968684,-0.2559780637152493
1772796613277750500,3.60375048828125,0.39313890160918236,0.2248641096577048,-0.26413492055535315
1772796613287743500,3.613743408203125,0.28684242692589756,0.18030045304894446,-0.30767865953184664
1772796613297735400,3.6237353515625,0.2031254483193159,0.14412804655805228,-0.3388520886916667
1772796613307727600,3.6337275390625,0.10755319674611091,0.08046104555055499,-0.3741765365837142
1772796613317719600,3.643719482421875,0.023308394873142242,-0.006177811852097511,-0.3478950441839173
1772796613327711500,3.65371142578125,-0.04258358870744705,-0.04062865524739027,-0.2819691583337262
1772796613337703400,3.663703369140625,-0.052205988055467605,-0.037595717292279,-0.23505897513143717
1772796613347695600,3.673695556640625,-0.04897650461494922,-0.04085530361011624,-0.16476744141764937
1772796613357687600,3.6836875,0.04590893373787403,-0.043718584086745976,-0.1409510604897514
1772796613367679500,3.693679443359375,0.1933440590173006,-0.08726561099886894,-0.14565690009314566
1772796613377671400,3.70367138671875,0.3299515008121729,-0.1469641467668116,-0.1355105499362573
1772796613387663600,3.71366357421875,0.42352001134753225,-0.2535537591777742,-0.1115124922985211
1772796613397655600,3.723655517578125,0.49035365969240663,-0.3788414961874485,-0.1502794453272596
1772796613407648500,3.7336484375,0.5728630160748959,-0.4929689567573368,-0.17070742592588067
1772796613417640400,3.743640380859375,0.5750450362890959,-0.5803367129564285,-0.16498882908336818
1772796613427632600,3.753632568359375,0.5836842698186636,-0.6406039885230362,-0.1630374027546495
1772796613437624600,3.76362451171875,0.5422492666244506,-0.6547003184147179,-0.12276099501103162
1772796613447616500,3.773616455078125,0.5113666371047496,-0.6217999193318188,-0.0707769426105544
1772796613457608400,3.7836083984375,0.48874096379876136,-0.6312460853300988,0.014346286064758896
1772796613467600600,3.7936005859375,0.46231472916603084,-0.6169743988715112,0.02571494455821812
1772796613477592600,3.803592529296875,0.40958500949740406,-0.5816268988974392,0.0013724573969841002
1772796613487584500,3.81358447265625,0.2977379149496555,-0.577847088097781,-0.04249543549995869
1772796613497576400,3.823576416015625,0.19586977810263634,-0.5502516635552048,-0.03261036662776023
1772796613507568600,3.833568603515625,0.14706044674813745,-0.540444116898626,0.0028174320409074423
1772796613517560600,3.843560546875,0.11366145049333572,-0.5254202968984842,-0.02272336152680218
1772796613527553500,3.853553466796875,0.112603465873003,-0.5221949051111936,-0.0569585894100368
1772796613537545500,3.86354541015625,0.154618314781785,-0.5190846641361713,-0.04937233553212136
1772796613547537700,3.87353759765625,0.16394962222874163,-0.47164457530826326,-0.04893222708180547
1772796613557529300,3.883529296875,0.1741471911162138,-0.462555990575999,-0.005481171357445419
1772796613567521500,3.893521484375,0.2144575741946697,-0.4407622380495071,0.00610942279100418
1772796613577513500,3.903513427734375,0.2404530161947012,-0.40761473233774304,0.011646744782477616
1772796613587505700,3.913505615234375,0.27504852875769137,-0.38944443100541826,0.021393647293001413
1772796613597497300,3.923497314453125,0.289790170815587,-0.38216537991315125,-0.024494572450406846
1772796613607489500,3.933489501953125,0.2390326280027628,-0.3993032694578171,-0.09990962319038808
1772796613617481500,3.9434814453125,0.12685937024056912,-0.4324325088605284,-0.14371347440779209
1772796613627473700,3.9534736328125,0.07843582333326339,-0.4630075337357819,-0.25910054311733693
1772796613637465600,3.963465576171875,0.1076315226793289,-0.4706080718673765,-0.3653966159418225
1772796613647458600,3.97345849609375,0.0911275471240282,-0.5001967160537839,-0.4467198312796652
1772796613657450500,3.983450439453125,0.1459130302786827,-0.5353503008909524,-0.48148923910483715
1772796613667442700,3.993442626953125,0.1699158371567726,-0.5803802598372102,-0.4024528195299208
1772796613677434400,4.003434326171875,0.2290665297836065,-0.5865186164617539,-0.36838805284276605
1772796613687426600,4.013426513671875,0.3097808194428682,-0.5609405230909585,-0.34933245657589285
1772796613697418500,4.02341845703125,0.3949006505846977,-0.5589740453235804,-0.3247981001043692
1772796613707410700,4.03341064453125,0.4450450299352407,-0.5985816869601607,-0.3250681126847863
1772796613717402400,4.04340234375,0.43211657477915283,-0.6977550317652523,-0.36802440716214474
1772796613727394600,4.05339453125,0.36077860075235363,-0.7661237807229161,-0.3936720586378127
1772796613737386500,4.063386474609375,0.284702492287755,-0.7852638038702309,-0.41056711586993183
1772796613747378700,4.073378662109375,0.2053255887120962,-0.7709956245429813,-0.4349078494654968
1772796613757370400,4.083370361328125,0.12042787588834762,-0.7877917149126529,-0.42776506503876294
1772796613767363600,4.093363525390625,0.053282092854380604,-0.8104248408727347,-0.42805195568874477
1772796613777355500,4.10335546875,-0.008182137411832808,-0.7966383075825869,-0.4394281033689156
1772796613787347500,4.113347412109375,-0.06383446652889252,-0.8046991567023098,-0.4537602878430858
1772796613797339400,4.12333935546875,-0.1162152266293764,-0.7945188312105834,-0.4372564218856394
1772796613807331600,4.13333154296875,-0.11774199780523777,-0.7766074730753898,-0.41206045970022676
1772796613817323500,4.143323486328125,-0.08956687367856501,-0.7383319568254053,-0.3834525336468592
1772796613827315500,4.1533154296875,-0.020182956328988075,-0.7515887671530246,-0.39806306013837456
1772796613837307400,4.163307373046875,-0.0038204350709915157,-0.7556096932321786,-0.3926339842943474
1772796613847299600,4.173299560546875,0.05869476555287838,-0.7860713208608329,-0.4083312831092626
1772796613857291500,4.18329150390625,0.11522504654824733,-0.8373023264043032,-0.4842097135772928
1772796613867283500,4.193283447265625,0.03978372885584831,-0.891217310334742,-0.5548043218908831
1772796613877275400,4.203275390625,-0.031741292175650596,-0.8924984361864626,-0.5258905447587371
1772796613887268600,4.2132685546875,-0.09211597363948822,-0.8612320680461824,-0.5114886560492218
1772796613897260500,4.223260498046875,-0.14163608361184596,-0.7922235598802566,-0.5074226487193256
1772796613907252500,4.23325244140625,-0.20885610092580317,-0.7054847492344677,-0.4510216201268136
1772796613917244400,4.243244384765625,-0.29852000523805616,-0.5954230767987668,-0.394180227355659
1772796613927236600,4.253236572265625,-0.39543315002620216,-0.5992122399486601,-0.27787984319347886
1772796613937228500,4.263228515625,-0.45754795315563673,-0.7188140402764082,-0.08373513531778007
1772796613947220500,4.273220458984375,-0.44750586709082124,-0.8288698674932121,0.04464863147847354
1772796613957212400,4.28321240234375,-0.3810451437115669,-0.7939910079441964,-0.009915756271407008
1772796613967204900,4.293204833984375,-0.30960429383218285,-0.621145693206787,-0.28196937752943485
1772796613977196800,4.30319677734375,-0.33467385315895076,-0.5066040988780558,-0.6114734268350527
1772796613987188700,4.313188720703125,-0.6030389586299657,-0.5114025852009654,-0.8000671860527246
1772796613997182000,4.323181884765625,-0.8974199643671512,-0.5186882121644913,-0.7821743134222924
1772796614007174000,4.333173828125,-1.1158844361156224,-0.39436332883760333,-0.8118876069016754
1772796614017165800,4.343165771484375,-1.2423930932223797,-0.1727842321999371,-0.8154857775241136
1772796614027157800,4.35315771484375,-1.2807745540648698,0.1575704425856471,-0.8024589765600859
1772796614037150000,4.36314990234375,-1.1377280191332102,0.4409707662336528,-0.7347924575876444
1772796614047142000,4.373141845703125,-0.9326146118670702,0.6407035033747553,-0.6176598969176411
1772796614057133800,4.3831337890625,-0.7305185065954923,0.7522343715801835,-0.4975782041184604
1772796614067125800,4.393125732421875,-0.5391787731379271,0.7045216032907367,-0.41439547851905223
1772796614077117700,4.40311767578125,-0.39791502996981143,0.5140823258042335,-0.3543354159623384
1772796614087110000,4.41310986328125,-0.2620119370520115,0.2465498717650771,-0.2808045350011438
1772796614097101600,4.4231015625,-0.15905074427127838,0.0098272742703557,-0.30902295028027144
1772796614107093800,4.43309375,-0.045722471255064005,-0.13002747888267038,-0.409866383722052
1772796614117085700,4.443085693359375,0.06098433779478073,-0.22241277098283171,-0.44622517963051794
1772796614127078700,4.45307861328125,0.12381342667341232,-0.2734413858219981,-0.45293238565158095
1772796614137070800,4.46307080078125,0.1936748984068632,-0.32729660238921643,-0.44536260798443106
1772796614147062800,4.473062744140625,0.2600929516881704,-0.33831966231539845,-0.4000786742771044
1772796614157055000,4.483054931640625,0.3044663464218378,-0.2786919998265803,-0.3430490289248526
1772796614167047000,4.493046875,0.4006897553801536,-0.14128244786858557,-0.26302630172632635
1772796614177038800,4.503038818359375,0.4595253907084465,0.015120119981467723,-0.10384628678588197
1772796614187030800,4.51303076171875,0.5232113886773586,0.1732405976653099,0.1125482559538912
1772796614197023000,4.52302294921875,0.541096004936099,0.3556402149505913,0.3032099531525746
1772796614207015000,4.533014892578125,0.5728460649400949,0.4934067636527121,0.48122167420983314
1772796614217006600,4.543006591796875,0.6247516087442636,0.6141815532825887,0.5929029837366193
1772796614226998800,4.552998779296875,0.724707774490118,0.7246982760094106,0.6900240721870213
1772796614236992000,4.562991943359375,0.7869605247855186,0.8240525303393602,0.7891575233731418
1772796614246983700,4.572983642578125,0.7919628631174563,0.9025283934220671,0.8905864650852978
1772796614256976000,4.582975830078125,0.7570335885554552,0.9517729013234376,0.9445023988638073
1772796614266967800,4.5929677734375,0.6937216845959424,0.9969384693481027,0.9239693869881331
1772796614276960000,4.6029599609375,0.6273720203757286,1.0047248854406177,0.9978113797251135
1772796614286951700,4.61295166015625,0.5891513030529022,1.0228227060586212,1.060833141631633
1772796614296943900,4.62294384765625,0.5736152957469225,1.0116440171793102,1.054999613172561
1772796614306935800,4.632935791015625,0.5671335325121879,1.0241719287104905,1.0033402992144227
1772796614316928000,4.642927978515625,0.5726145942717791,1.0098689703308046,0.9474972698308527
1772796614326919700,4.652919677734375,0.5818664067417383,1.0304062930554152,0.8883202737189829
1772796614336911600,4.66291162109375,0.4379413354098797,1.0372658035613596,0.7667959078308194
1772796614346903800,4.67290380859375,0.2322656180858612,1.0508541839309036,0.5981873173477128
1772796614356896800,4.682896728515625,-0.02911678889095783,1.0440338363915682,0.48444677373617884
1772796614366888700,4.692888671875,-0.28230829062759877,1.0646649748794734,0.43619288430735464
1772796614376881000,4.702880859375,-0.4950082074999809,1.0603653779894113,0.4191491758521646
1772796614386872800,4.712872802734375,-0.6671808836728335,1.0809775195159017,0.4468363703314215
1772796614396864800,4.72286474609375,-0.6918412776768207,1.1324606001242994,0.5008678202483803
1772796614406856700,4.732856689453125,-0.5853799678206444,1.1581833626627922,0.5158148852178827
1772796614416849000,4.742848876953125,-0.4168570463269949,1.1252237807385623,0.5269711065370589
1772796614426840800,4.7528408203125,-0.2424871523708105,0.9775218212164938,0.5837699022755026
1772796614436833000,4.7628330078125,-0.07856792528033256,0.8078346782490611,0.6579641425162553
1772796614446824700,4.77282470703125,0.08292495144605636,0.6208645381778478,0.6866977042432874
1772796614456817000,4.78281689453125,0.2400432663500309,0.41486455733552574,0.6753392018176615
1772796614466808800,4.792808837890625,0.3261766584485769,0.2381403553381562,0.6193734959024936
1772796614476801800,4.8028017578125,0.36097850723862646,0.09964344653487205,0.5803311965310946
1772796614486793700,4.812793701171875,0.38363574472665785,-0.0257053730122745,0.5104988412942737
1772796614496786000,4.822785888671875,0.34955811855792995,-0.10889482061341405,0.4673427864611149
1772796614506777900,4.83277783203125,0.30501287438869473,-0.18295374403670428,0.4945451200328767
1772796614516769800,4.842769775390625,0.25012743799090387,-0.20873568941652773,0.49054560206793246
1772796614526761700,4.85276171875,0.19915069946944713,-0.17908245556131006,0.4772216447882354
1772796614536754000,4.86275390625,0.12335574603378772,-0.1686230208672583,0.48371440434101964
1772796614546745900,4.872745849609375,0.04760170913040638,-0.19992109932005403,0.5108606603439897
1772796614556737800,4.88273779296875,-0.010747603985667228,-0.20559329973757265,0.542696462402679
1772796614566729700,4.892729736328125,-0.05494096597731113,-0.2537989661104977,0.4899516912953928
1772796614576722000,4.902721923828125,-0.10360299781560897,-0.29069910235404967,0.44364714583605525
1772796614586714600,4.912714599609375,-0.11625848124921322,-0.33470819381996986,0.3558704435098916
1772796614596706800,4.922706787109375,-0.14995149201452732,-0.37347792332768437,0.2819771407107822
1772796614606698800,4.93269873046875,-0.20545242996215818,-0.3882505450457334,0.2733747868591919
1772796614616691000,4.94269091796875,-0.1984416744172573,-0.39273718894049525,0.30660218940675255
1772796614626683000,4.952682861328125,-0.2062321821630001,-0.3962432973653078,0.34109102672487496
1772796614636674800,4.9626748046875,-0.1960153240531683,-0.3808490366175771,0.4098301433648914
1772796614646666800,4.972666748046875,-0.15349603275358675,-0.33269685399755833,0.4252206412529573
1772796614656659000,4.982658935546875,-0.10330196904242038,-0.34365839299485085,0.4197968626385554
1772796614666651000,4.99265087890625,-0.08564005562365054,-0.3518415533199906,0.41863428513258694
1772796614676642800,5.002642822265625,-0.09446575163602829,-0.37496421636268495,0.4116569569332525
1772796614686634800,5.012634765625,-0.1178887127995491,-0.38719825951382514,0.431070682455413
1772796614696627000,5.022626953125,-0.10141805499196052,-0.3969287954114377,0.4478794496435672
1772796614706619600,5.03261962890625,-0.09416121573150157,-0.4051375285692513,0.4447698662556708
1772796614716611800,5.04261181640625,-0.1146294187426567,-0.3849649475038051,0.44577166370935734
1772796614726603800,5.052603759765625,-0.11999649873375892,-0.3733646722115576,0.4606097518790513
1772796614736596000,5.062595947265625,-0.15501228253543375,-0.3383323756664991,0.46071083763334897
1772796614746587600,5.072587646484375,-0.19921324331164358,-0.31569618096649643,0.454624357326515
1772796614756579800,5.082579833984375,-0.21350188090503214,-0.308091551181674,0.4329987279085442
1772796614766571800,5.09257177734375,-0.2775374229639768,-0.30597002898305653,0.412186351102218
1772796614776564000,5.10256396484375,-0.2949789716303348,-0.29810747891440986,0.447089541374892
1772796614786555600,5.1125556640625,-0.2819464715778828,-0.28060440931916236,0.4294335097076371
1772796614796547800,5.1225478515625,-0.26268413722515105,-0.2693057473219931,0.4304820689124986
1772796614806539800,5.132539794921875,-0.2806406496763229,-0.2669296658404171,0.427816722160764
1772796614816532000,5.142531982421875,-0.2836228803575039,-0.2831795205041766,0.448194433876872
1772796614826524700,5.152524658203125,-0.32788755401968955,-0.3304660262055695,0.5587852082205936
1772796614836516900,5.162516845703125,-0.42625265118181704,-0.5925070432215929,0.8319124500595033
1772796614846508800,5.1725087890625,-0.46231414464414117,-0.8393081132687628,0.8964763999067247
1772796614856501000,5.1825009765625,-0.3957125514894724,-0.6492177953504026,0.5327145455598831
1772796614866492700,5.19249267578125,-0.31454116571247576,-0.2359144959822297,-0.0036093678698875006
1772796614876484900,5.20248486328125,-0.40246728644669055,-0.059893766079097986,-0.330473844185844
1772796614886476800,5.212476806640625,-0.7073188327938318,-0.18888240343332288,-0.321058182923682
1772796614896469000,5.222468994140625,-1.0388614021897316,-0.2709261881306767,-0.16181429070048034
1772796614906460700,5.232460693359375,-1.2598597763299941,-0.11416092444807291,-0.19415853547165168
1772796614916452900,5.242452880859375,-1.3839607877731321,0.193387167506665,-0.33118524385821074
1772796614926444800,5.25244482421875,-1.3656944787204264,0.44152591589838264,-0.3697481987474486
1772796614936437800,5.262437744140625,-1.327553840896487,0.43434637965783474,-0.29419801385309546
1772796614946429700,5.2724296875,-1.2935060253441333,0.32895152998939153,-0.13016045761257408
1772796614956422000,5.282421875,-1.1995686814963817,0.2371595276072621,-0.051652591956406826
1772796614966414300,5.292414306640625,-1.1230103424727915,0.22133286679163575,-0.02281975283967331
1772796614976406000,5.302406005859375,-1.0141320346027611,0.2637842074215412,-0.04909898021714761
1772796614986398200,5.312398193359375,-0.8505337100297212,0.31649142299741506,-0.06986707949033007
1772796614996390100,5.32239013671875,-0.7272802553266287,0.44239436929598447,-0.15687363769421353
1772796615006382300,5.33238232421875,-0.5968938800036907,0.5804072939746081,-0.2441127077460289
1772796615016374000,5.3423740234375,-0.49473698934316634,0.6779724729306995,-0.33546368836238977
1772796615026366200,5.3523662109375,-0.36868718191981315,0.7395147368691861,-0.3960224576888606
1772796615036358100,5.362358154296875,-0.16554010629057883,0.769028708384186,-0.4201395385963842
1772796615046350300,5.372350341796875,0.07724047606885433,0.7409571907624601,-0.5004727565161884
1772796615056343000,5.382343017578125,0.3475824345707893,0.7016494088552891,-0.6506731087252497
1772796615066335200,5.392335205078125,0.5633370628386736,0.6453365700028836,-0.7803483401041478
1772796615076327200,5.4023271484375,0.7303425655066966,0.5619729348786175,-0.8677341434165835
1772796615086319000,5.412319091796875,0.893600698339939,0.46601679855436084,-0.9935407166685909
1772796615096311000,5.42231103515625,1.0621084222644568,0.39769495747834444,-1.1008091781891882
1772796615106303200,5.43230322265625,1.1511053871005772,0.3616165128812194,-1.1476410719908774
1772796615116295200,5.442295166015625,1.115765778172016,0.3058344199046492,-1.1938696661371737
1772796615126287000,5.452287109375,1.0333201346755028,0.3347682534441352,-1.19101128103137
1772796615136279000,5.462279052734375,0.9503332239091395,0.4244871028140187,-1.14470311884284
1772796615146271200,5.472271240234375,0.82394088665843,0.5487690237820149,-1.1667287804290651
1772796615156263200,5.48226318359375,0.5846949081659316,0.6104110948331654,-1.2019774962037801
1772796615166256000,5.492256103515625,0.33733576584458347,0.6963340590514242,-1.252927200587839
1772796615176248000,5.502248046875,0.13629413806200028,0.7387300162322818,-1.3000560315094887
1772796615186240300,5.512240234375,-0.01006429789662361,0.8040858471095561,-1.4005477654367684
1772796615196232200,5.522232177734375,-0.16435878755152225,0.8495574123434722,-1.472216871114075
1772796615206224100,5.53222412109375,-0.2860503997653723,0.8653826118543744,-1.4974709932275116
1772796615216216000,5.542216064453125,-0.35494857942461966,0.8564059630639851,-1.4730740724653004
1772796615226208300,5.552208251953125,-0.3595388298243284,0.8527003865443169,-1.351740333778411
1772796615236200200,5.5622001953125,-0.2744686830431223,0.8335197391256689,-1.2172704154688865
1772796615246192000,5.572192138671875,-0.1624310343593359,0.8044342221558094,-1.1048717514529824
1772796615256184000,5.58218408203125,0.04941138890087604,0.7817356297440826,-0.9682320148237049
1772796615266176300,5.59217626953125,0.2748246568739414,0.7134576278097927,-0.8212998706303536
1772796615276168200,5.602168212890625,0.458953728300333,0.5735213338531553,-0.6988008144911378
1772796615286161200,5.6121611328125,0.5816384432047605,0.45115898277088995,-0.6175449653010815
1772796615296153000,5.622153076171875,0.6388076066255569,0.2912373008839786,-0.5566342772644013
1772796615306145300,5.632145263671875,0.6617921763718128,0.12793357534334063,-0.4950171214587986
1772796615316137000,5.642136962890625,0.6397878498345613,0.00567439237460494,-0.44772071541789915
1772796615326129200,5.652129150390625,0.6276163505256176,-0.07476034969091415,-0.41144316805209963
1772796615336121000,5.66212109375,0.5920242281407118,-0.09426233801841735,-0.3995682770695537
1772796615346113300,5.67211328125,0.5740560252517461,-0.12542232317477464,-0.3846898568894714
1772796615356105200,5.682105224609375,0.4843547115385532,-0.1486025616236031,-0.34286687729097903
1772796615366097200,5.69209716796875,0.3520312306731939,-0.13570157899633048,-0.2841572612288408
1772796615376089000,5.702089111328125,0.2562958974927664,-0.08684227102026343,-0.23299504660526288
1772796615386081300,5.712081298828125,0.18811375714838505,-0.03968728274405002,-0.192847909530811
1772796615396074000,5.722073974609375,0.12708733377754688,-0.0025458850905299185,-0.16330306795351207
1772796615406066200,5.732066162109375,0.07182721884846686,-0.019038170208036897,-0.14061713409395887
1772796615416058000,5.74205810546875,0.042514615124464035,-0.015576777707785367,-0.16251695907711983
1772796615426050300,5.75205029296875,0.0411176078081131,-0.05460077423751354,-0.22192279550880192
1772796615436042000,5.7620419921875,0.024187515795230864,-0.10704656239822506,-0.24563807241609317
1772796615446034200,5.7720341796875,0.04458382261395454,-0.14171777054592966,-0.31281646081171927
1772796615456026000,5.782026123046875,0.07866846304535866,-0.14689341961815952,-0.34204584323167797
1772796615466018300,5.792018310546875,0.09917582902312279,-0.1460053847372532,-0.3578483194541186
1772796615476010000,5.802010009765625,0.12635901950299738,-0.10997954711019992,-0.3451789536256343
1772796615486002200,5.812002197265625,0.1587619904577732,-0.07332023388519883,-0.34073322626315056
1772796615495994000,5.821994140625,0.16934534379243849,-0.020333909106999636,-0.3289107595875859
1772796615505986300,5.831986328125,0.17934242167174816,0.0064652504913508884,-0.29838476148582993
1772796615515979000,5.84197900390625,0.2142062297821045,0.03515153901055455,-0.32242227435112
1772796615525971200,5.85197119140625,0.1827601211607456,0.03612725217491388,-0.3745216967595741
1772796615535963100,5.861963134765625,0.11120528951287269,0.03463336035534739,-0.391038568329066
1772796615545955000,5.871955078125,0.02176291899681091,0.012668342915177344,-0.41738888818137343
1772796615555947000,5.881947021484375,-0.0892453866392374,0.007342471717298031,-0.42189076617788523
1772796615565939200,5.891939208984375,-0.20033026464283465,0.04013794912099838,-0.3862730344276875
1772796615575931100,5.90193115234375,-0.26467677234709264,0.08199468485862016,-0.45149595964029426
1772796615585923000,5.911923095703125,-0.3297334741473198,0.10856354283243418,-0.5151758931946009
1772796615595915000,5.9219150390625,-0.45877252651453015,0.11814824051856994,-0.5740219037864357
1772796615605907200,5.9319072265625,-0.5906774897068738,0.09376271793320774,-0.6000932970995083
1772796615615899100,5.941899169921875,-0.7111281619489193,0.022388065157830712,-0.594246178506501
1772796615625892000,5.95189208984375,-0.7559376100122929,0.00835091810747981,-0.675126581980288
1772796615635884300,5.96188427734375,-0.7348994981586933,-0.0263514158308506,-0.747135806332156
1772796615645876200,5.971876220703125,-0.7124643789887428,-0.08611381061524152,-0.8167562358513474
1772796615655868200,5.9818681640625,-0.688463325676322,-0.1559812736980617,-0.8330622046165168
1772796615665860000,5.991860107421875,-0.6360603537440299,-0.19813757690414785,-0.802738670284301
1772796615675852000,6.00185205078125,-0.5395908610701561,-0.22893267427086827,-0.7814163346618413
1772796615685844200,6.01184423828125,-0.44636371131837366,-0.2691073021404445,-0.7626481405016035
1772796615695836200,6.021836181640625,-0.36586744832396506,-0.29482670367807146,-0.7311976479660719
1772796615705828000,6.031828125,-0.3154460055977106,-0.31521877271309495,-0.7083654192373157
1772796615715820000,6.041820068359375,-0.30078210495114327,-0.3046208063311875,-0.709042076389864
1772796615725812200,6.051812255859375,-0.2693652224242687,-0.3125923697322607,-0.6481576187729835
1772796615735805200,6.06180517578125,-0.24060148475468157,-0.3344644481919706,-0.4908964247995987
1772796615745797000,6.071797119140625,-0.16247487350106238,-0.430905007032305,-0.24769893220234662
1772796615755789300,6.081789306640625,-0.014610124632716178,-0.5554721746824681,-0.07625617773924022
1772796615765781200,6.09178125,0.10104805263578891,-0.5523772774070501,-0.18827674742406234
1772796615775773200,6.101773193359375,0.11959551671743392,-0.42344110089242454,-0.43187699386961753
1772796615785765000,6.11176513671875,-0.04794365443587303,-0.23495149616897104,-0.6000990327205509
1772796615795757000,6.121757080078125,-0.3895388312906027,-0.18693521488830447,-0.613370675291121
1772796615805749200,6.131749267578125,-0.6922253085583449,-0.13818243602663277,-0.5578924606319516
1772796615815741200,6.1417412109375,-0.8523439743220805,0.12340733009055256,-0.5552100896801799
1772796615825733000,6.151733154296875,-0.7918301766484975,0.47886035190597176,-0.6379794852383435
1772796615835725000,6.16172509765625,-0.6072586221516132,0.7244057228036225,-0.7004527464166284
1772796615845717200,6.17171728515625,-0.37433249433040616,0.85298840970546,-0.7261793814126402
1772796615855710200,6.181710205078125,-0.1476174961090088,0.8112057621173561,-0.7384696847956627
1772796615865702100,6.1917021484375,0.06348842957019805,0.6350751420989632,-0.723113929427415
1772796615875694300,6.2016943359375,0.21992460742890835,0.45511707274690266,-0.6486497131388634
1772796615885686300,6.211686279296875,0.41138884404897685,0.3527048921510577,-0.6224776724629104
1772796615895678200,6.22167822265625,0.6672112788110971,0.33241087666302915,-0.7046748210910707
1772796615905670100,6.231670166015625,0.8191150739371776,0.3170432116612792,-0.7533826648324727
1772796615915662300,6.241662353515625,0.9159060536503791,0.33014263947010036,-0.7530011181689799
1772796615925654300,6.251654296875,0.9616782092660665,0.3090104195922613,-0.7281272275447845
1772796615935646000,6.26164599609375,0.960942296206951,0.28717297405451536,-0.6662843001592904
1772796615945638100,6.27163818359375,0.9330115022301674,0.30305121892690656,-0.6737568279970437
1772796615955630000,6.281630126953125,0.8542635442078113,0.3454077208802104,-0.7285092125996947
1772796615965623000,6.291623046875,0.766976305899024,0.405743239377439,-0.8128971492704004
1772796615975614700,6.30161474609375,0.6665390786379576,0.5015814484104514,-0.8831777962639927
1772796615985607000,6.31160693359375,0.5210591790795326,0.6077966745510697,-0.9922280266348272
1772796615995598800,6.321598876953125,0.3098077074497938,0.7069990993201732,-1.0872736239854246
1772796616005591000,6.331591064453125,0.09935761533081532,0.8101859175503253,-1.156568694007769
1772796616015582700,6.341582763671875,-0.10004384402930735,0.8940425968885422,-1.2043996818494052
1772796616025575000,6.351574951171875,-0.36999826451838014,1.0020283398330212,-1.1427008391097186
1772796616035566800,6.36156689453125,-0.6002373452126979,1.0891127490460872,-1.0011711384817956
1772796616045559000,6.37155908203125,-0.780827721118927,1.139865323422849,-0.8775916666947304
1772796616055550700,6.38155078125,-0.9236953923523425,1.2358651527583597,-0.768681794642657
1772796616065543000,6.39154296875,-0.9388701651304959,1.2760045631840824,-0.6683095954418182
1772796616075536000,6.401535888671875,-0.8470815237492323,1.2592062808573246,-0.6094909843135625
1772796616085527800,6.41152783203125,-0.7382593299806117,1.2414341850623487,-0.5739559989433736
1772796616095519700,6.421519775390625,-0.5739280149579048,1.2029609542831778,-0.5826894866276532
1772796616105512000,6.431511962890625,-0.3892290346890688,1.1745841701045632,-0.6491201071295887
1772796616115503900,6.44150390625,-0.19242752869427204,1.107621634683013,-0.6758760121081024
1772796616125495800,6.451495849609375,-0.03247778975665569,1.0491676921486854,-0.6953359879247843
1772796616135487700,6.46148779296875,0.12013561494350433,0.9891726576521992,-0.6428066861990839
1772796616145480000,6.47147998046875,0.2829506801843643,0.9532631398811936,-0.560386834730953
1772796616155472000,6.481471923828125,0.4603875604957342,0.9201526051789521,-0.5213127885144203
1772796616165463800,6.4914638671875,0.5770516999363899,0.8696440686911344,-0.5176803502961993
1772796616175455700,6.501455810546875,0.6183920105844736,0.8038748347073793,-0.4388845345441252
1772796616185448000,6.511447998046875,0.5804577089875936,0.7272913612425327,-0.3658955784399062
1772796616195441000,6.52144091796875,0.46399581412076946,0.6342006973519921,-0.312833338881284
1772796616205432800,6.531432861328125,0.3418880223214626,0.5616252904847264,-0.2688075885415077
1772796616215424800,6.5414248046875,0.20857845302820205,0.5478168376237154,-0.29468203451037406
1772796616225417000,6.5514169921875,0.016717910566926,0.6199529762908816,-0.3138329443778842
1772796616235409000,6.561408935546875,-0.2032517050474882,0.6646180474475025,-0.29175533340871335
1772796616245400800,6.57140087890625,-0.4236187955468893,0.682903645722568,-0.26642354294918474
1772796616255392800,6.581392822265625,-0.5659019448906183,0.7626501132629812,-0.2382490764096379
1772796616265385000,6.591385009765625,-0.6729384242862463,0.8060803819276392,-0.22670053130462764
1772796616275377000,6.601376953125,-0.7767717237263917,0.8349281446188688,-0.21723127669170497
1772796616285368800,6.611368896484375,-0.8014391319930553,0.8595517137438058,-0.22004333843775092
1772796616295360800,6.62136083984375,-0.7793330986469984,0.8495005675897002,-0.20819522586427627
1772796616305354000,6.63135400390625,-0.7357166597604751,0.8387902268745004,-0.17860270922034976
1772796616315345700,6.641345703125,-0.6620388446092605,0.819072257708758,-0.14032302825190127
1772796616325337900,6.651337890625,-0.6104606330633163,0.7935210523448885,-0.12738638978935776
1772796616335329800,6.661329833984375,-0.4634761741608381,0.7117363569751382,-0.15223689953796565
1772796616345322000,6.671322021484375,-0.40142917557060714,0.7463542275004088,-0.15996873589903116
1772796616355313700,6.681313720703125,-0.3304559432029724,0.7732992253102362,-0.19068200020119547
1772796616365305900,6.691305908203125,-0.21051731213629243,0.7745141540579498,-0.18172895148210227
1772796616375297800,6.7012978515625,-0.20223697504699228,0.8261841355405748,-0.15827172272279857
1772796616385290000,6.7112900390625,-0.3080547263026237,0.8040572055369615,-0.18056845633536575
1772796616395281700,6.72128173828125,-0.30595863080620767,0.7921263831160962,-0.20737886798009275
1772796616405273900,6.73127392578125,-0.2066805104523897,0.7631291289515792,-0.26894648555554446
1772796616415267000,6.74126708984375,-0.04816635727584362,0.6917312414310872,-0.14103161491267382
1772796616425258800,6.7512587890625,0.0683054744631052,0.6056751523524523,-0.03986008202768862
1772796616435251000,6.7612509765625,0.1554465822994709,0.6250863936565816,-0.07692680700980127
1772796616445243000,6.771242919921875,0.2404699673295021,0.7203792437665164,-0.07081738421879709
1772796616455234800,6.78123486328125,0.201465406152606,0.7565957816600799,-0.07572276498228311
1772796616465227000,6.79122705078125,0.06942600292563438,0.793870596434921,-0.0866294319871813
1772796616475218700,6.80121875,-0.08610591956973075,0.8110375659435987,-0.08978080869019031
