time,seconds_elapsed,z,y,x
1772796814657683500,0.064683349609375,-11.895275306665896,-3.9778798413708802,4.384383835987746
1772796814667676400,0.074676513671875,-10.124440522897244,-3.587648351640999,3.842924842958152
1772796814677668600,0.084668701171875,-8.856544155105947,-6.761288032123446,2.9654692237332463
1772796814687660500,0.09466064453125,-7.63742263187766,-8.457324472278357,2.844173040577769
1772796814697652200,0.10465234375,-6.360917425695061,-8.287949902391434,2.58264158051908
1772796814707644400,0.11464453125,-9.389608244755864,-7.355068164020777,1.1243867453925311
1772796814717637600,0.1246376953125,-19.92790370955467,-3.426487775608897,-0.37878070591092106
1772796814727629300,0.13462939453125,-31.856190474462508,-0.1045220123566687,1.0666842788126318
1772796814737621500,0.14462158203125,-36.755365369045734,-0.9401185577563941,2.3369551937155424
1772796814747613400,0.154613525390625,-31.492281174468992,-2.5491139894485473,3.243374310965836
1772796814757605600,0.164605712890625,-20.14184339735508,-2.8958880302459,3.2274051729395983
1772796814767598300,0.174598388671875,-10.506668738913536,-2.9805758997112513,1.3037126543208957
1772796814777590500,0.184590576171875,-2.9132629434168336,-2.68249428589046,-0.10465104556381702
1772796814787582500,0.19458251953125,2.611328745821118,-1.947155811792612,-0.4997851395782083
1772796814797574400,0.204574462890625,6.360913918563723,-0.9708180857941507,-0.6061114979431033
1772796814807566300,0.21456640625,8.411903614318371,0.3794154966831207,-0.9994474564943462
1772796814817559600,0.2245595703125,8.55000860119462,1.7517323161527514,-1.470922739650309
1772796814827551500,0.234551513671875,8.047789731663466,2.879864239422977,-1.424260357196629
1772796814837543400,0.24454345703125,8.583442084240913,3.5365786741390823,-1.4760688703671097
1772796814847535400,0.254535400390625,10.222001902461052,3.860006618401408,-1.6597585274629294
1772796814857527600,0.264527587890625,12.236009482777117,3.4924595464274284,-1.8354105701841412
1772796814867520500,0.2745205078125,13.951635005021094,2.8513658746913073,-1.9145165478639303
1772796814877512400,0.284512451171875,15.041090283894539,2.4360136799693106,-1.5697612995430825
1772796814887504400,0.29450439453125,15.332787749636172,2.3467414053231477,-1.1105086613614112
1772796814897496600,0.30449658203125,15.029489862471818,2.689183846656978,-0.842140706346184
1772796814907488300,0.31448828125,14.42056184580326,3.2913580051511526,-0.5503322545107454
1772796814917481500,0.3244814453125,13.396498199772834,3.865538825826347,0.036150413854792715
1772796814927473700,0.3344736328125,11.995124504905938,4.171362139815092,0.2802086149346083
1772796814937465300,0.34446533203125,10.802037002122402,4.317690180635452,0.038431145203113554
1772796814947457500,0.35445751953125,9.89596494474411,4.41904656856805,-0.0648301995679736
1772796814957449500,0.364449462890625,9.478387182927131,4.344515059196949,-0.04378521958217024
1772796814967442400,0.3744423828125,9.381918859297036,4.400623899909854,-0.2797268958322704
1772796814977434400,0.384434326171875,9.270288622370362,4.288813045719266,-0.7931463738135993
1772796814987426600,0.394426513671875,9.074768972879648,3.895617737747729,-1.0323755473017693
1772796814997418500,0.40441845703125,8.826955657050013,3.4678099660784003,-0.6661700261298567
1772796815007410400,0.414410400390625,8.421500879225134,3.2524332312121986,-0.37738581748642025
1772796815017403400,0.4244033203125,7.832548898136615,3.022792408671975,-0.3706972796332091
1772796815027395600,0.4343955078125,7.0672285427510735,2.681082081004977,-0.2771164941381663
1772796815037387300,0.44438720703125,5.814041668313742,2.1783197522468862,-0.17154289036933332
1772796815047379500,0.45437939453125,4.291300770881771,1.2174050746992229,-0.4499426292510703
1772796815057371400,0.464371337890625,2.5983541134357453,0.2630382113598287,-0.6213772369403392
1772796815067364400,0.4743642578125,0.5044669407188892,-0.7901504068680107,-0.741138757874444
1772796815077356500,0.4843564453125,-1.63505034879446,-1.9452020473763345,-0.6697161012388766
1772796815087348500,0.494348388671875,-4.144243831264973,-2.711744638033211,0.28782763857096433
1772796815097340400,0.50434033203125,-7.594462611073255,-2.907014988937974,1.7519088417634368
1772796815107332400,0.514332275390625,-11.405413229882717,-3.4106527853563424,2.9848049155831333
1772796815117325600,0.52432568359375,-14.694277080130576,-4.397583801561594,3.77082757499665
1772796815127317500,0.5343173828125,-16.74542401227355,-3.876429345414042,4.009533163002133
1772796815137309400,0.544309326171875,-17.951254092252253,-2.937973898564279,4.010712728175521
1772796815147301400,0.55430126953125,-18.722250155186654,-5.14387212421894,3.831753460602462
1772796815157294000,0.564294189453125,-16.89331389558315,-6.792294580283761,3.4979821092411876
1772796815167286800,0.574286865234375,-11.702139921963214,-7.337436061218381,1.7216911058932542
1772796815177279000,0.584279052734375,-9.302589301994443,-8.275429443514346,0.1721537522766739
1772796815187271000,0.59427099609375,-12.7323948238492,-7.487026903226972,0.10853555884696543
1772796815197263000,0.60426318359375,-20.057681597590445,-4.487342982941866,1.2648456019185483
1772796815207254800,0.6142548828125,-26.20495568808317,-2.1364339365452527,2.6168799502074718
1772796815217248000,0.624248046875,-27.026244014406203,-1.804630378125608,3.7623832795172927
1772796815227240000,0.634239990234375,-22.355738759243486,-2.613923438489437,3.3460099250540134
1772796815237231900,0.64423193359375,-12.398064669561386,-3.5257355008244513,1.476721196796
1772796815247223800,0.654223876953125,-4.220574206751585,-3.220651314765215,0.06039608957804739
1772796815257216000,0.664216064453125,1.078003326010704,-2.422158465357125,-0.8629110341090709
1772796815267209000,0.674208984375,3.8033278688460586,-1.3596774103879927,-1.0494595147021115
1772796815277201000,0.684200927734375,4.431829770034551,0.046139381492882964,-1.7702829951047896
1772796815287193000,0.694193115234375,4.220799247679114,1.4848983657717705,-2.5814193452477454
1772796815297185000,0.70418505859375,3.7813726421475407,2.1017261957794426,-2.8525167982921005
1772796815307177000,0.714177001953125,4.332731097900867,2.1624245562396944,-3.0484689939811824
1772796815317170000,0.724169921875,6.127400346243381,2.132621100258827,-2.988160655751824
1772796815327162000,0.734162109375,8.625420108270644,2.022875361904502,-2.675573254455626
1772796815337153800,0.74415380859375,11.13179385714531,1.987036863543093,-2.35316150149852
1772796815347146000,0.75414599609375,13.343430626451969,1.9708055674493312,-1.9719841097094117
1772796815357138000,0.764137939453125,14.589725987809896,1.934581869162619,-1.622307917729765
1772796815367131000,0.774130859375,14.936935497415066,1.7861454578861593,-1.3002711355648935
1772796815377122800,0.784122802734375,14.882078118067978,1.534060456086695,-1.020069023436308
1772796815387115000,0.794114990234375,14.642345817363262,1.483669993020594,-0.6111852940760553
1772796815397107000,0.80410693359375,14.483231944727898,1.61399470128417,-0.06540430966150015
1772796815407099100,0.81409912109375,14.459029231363534,1.7748688615903256,0.21823826177716255
1772796815417091800,0.824091796875,14.269763381570577,2.0856647032946345,0.13316373108178375
1772796815427084000,0.834083984375,13.605135104990005,2.415432664233446,-0.29928192952126265
1772796815437076000,0.844075927734375,12.597075668299198,2.5105636017799378,-0.7988444393247366
1772796815447068000,0.85406787109375,11.525061353570223,2.821163336390257,-1.2212134540062396
1772796815457059800,0.864059814453125,10.748169802856445,2.9966923372536898,-1.1312291586332022
1772796815467053000,0.874052978515625,10.240502020269632,3.363094915367663,-0.7550682067666202
1772796815477045000,0.884044921875,9.920496159410476,3.715395902892947,-0.7645675642568618
1772796815487037000,0.894036865234375,9.273489464238285,3.7528140716612337,-0.9242886090051382
1772796815497029000,0.904029052734375,8.210752096420526,3.678044954141974,-0.736445120165497
1772796815507021000,0.91402099609375,7.152751109474897,3.8059912428364155,-0.4556535907763988
1772796815517014000,0.924013916015625,5.807869117158651,3.9915295965388413,-0.20957170184925197
1772796815527006000,0.934005859375,4.251159899151325,3.878265328669548,-0.011209157082810997
1772796815536998100,0.943998046875,2.7251421720057722,3.774423261401057,0.1753038138054311
1772796815546989800,0.95398974609375,1.1711737771391868,3.1369840205192565,0.5999181231956928
1772796815556982000,0.96398193359375,-0.5395142887026071,1.9564361197046933,0.5404664748609066
1772796815566975000,0.97397509765625,-2.1797417478740213,1.0741704698495567,0.024000541855767367
1772796815576967000,0.983966796875,-4.424935918867588,0.3341264484092593,0.22429785407707095
1772796815586958800,0.993958740234375,-6.035058747154474,-1.1724532955557108,0.35519743961915373
1772796815596951000,1.003950927734375,-6.428157901275157,-3.519164890262484,0.8688043299313634
1772796815606943000,1.01394287109375,-6.4495484798282385,-5.767301544448733,2.558506379432976
1772796815616936000,1.02393603515625,-8.414076866704224,-5.743157283273339,3.771156076298654
1772796815626927900,1.033927978515625,-13.266127606540918,-3.854713772690296,2.8911653856381774
1772796815636920000,1.043920166015625,-16.70894400113821,-3.0837954511672256,1.0751174683760851
1772796815646911700,1.053911865234375,-16.66972725851536,-2.798030590344965,1.2992694111764431
1772796815656904000,1.063904052734375,-16.697239534819126,-2.2597626484416424,1.8077736445873975
1772796815666897200,1.073897216796875,-20.384228258395193,-1.0903158412255347,1.2531987110055982
1772796815676888800,1.083888916015625,-28.565612806034085,0.677045567344129,2.064419962953031
1772796815686881000,1.093881103515625,-37.07027770615816,2.1844367738224566,4.499722572043538
1772796815696873000,1.103873046875,-39.35609731752872,1.501020794663578,6.556805323976278
1772796815706865200,1.113865234375,-35.444369279718394,-0.46209655637070535,7.281178167423605
1772796815716857900,1.12385791015625,-28.08600090510845,-1.6771252573274076,4.9805993783384555
1772796815726850000,1.13385009765625,-17.05593022338152,-2.737938525214791,1.6902610716238617
1772796815736842000,1.143842041015625,-7.677953964230418,-2.7762209095969794,0.5073799055561423
1772796815746834000,1.153833984375,-3.021984599420428,-2.323534132736921,-0.1263319853655994
1772796815756825900,1.163825927734375,0.8192921840697527,-2.4541975714355706,-1.757803452759981
1772796815766819000,1.173819091796875,3.307528218707442,-1.1585619867168366,-1.997345929981023
1772796815776811000,1.18381103515625,4.286099110585451,-0.27644626672640443,-1.4747829222097992
1772796815786803000,1.193802978515625,4.563936393278837,0.40657048398181794,-1.0751364653375
1772796815796795000,1.203794921875,4.677935112902522,1.6398929665200412,-0.743279861556366
1772796815806787000,1.213787109375,5.020065711808204,2.5305676944106814,-0.31222273270227013
1772796815816779800,1.22377978515625,6.69882193133831,3.1786890728265047,-0.6798572637639939
1772796815826772000,1.23377197265625,9.710576228645444,3.6710020498931404,-1.1640906870104373
1772796815836764000,1.243763916015625,13.158651566684245,3.150184862875938,-1.4626716286554933
1772796815846756000,1.253756103515625,15.99746161892414,2.6515833070591093,-1.1441256112158298
1772796815856747800,1.263747802734375,17.395455608224868,2.3162302394643426,-0.6366418068937957
1772796815866741000,1.273740966796875,18.186150058841704,1.579167718052864,-0.17314970451146364
1772796815876733200,1.283733154296875,19.080743275350333,0.7337453596875071,0.23573877408914268
1772796815886724900,1.293724853515625,19.879781191420555,1.0731854043349622,-0.09268453077506274
1772796815896717000,1.303717041015625,19.916199243235585,1.7720193173781036,-0.5098708455890417
1772796815906709000,1.313708984375,18.81308251875639,2.251399747635424,-0.6181885969668627
1772796815916702000,1.323701904296875,17.213378208631276,2.831289301346242,-0.21052863724790513
1772796815926694000,1.33369384765625,15.511929680299758,3.610877251537144,0.40794228379167613
1772796815936686000,1.34368603515625,13.438129017800092,4.4058369583830235,1.2773901723235845
1772796815946678000,1.353677978515625,11.25012446849346,4.880848379775881,1.3552123938031493
1772796815956670000,1.363669921875,10.560809494423866,4.9556367865175,0.372568041941151
1772796815966663000,1.373662841796875,10.851251407146453,5.0353451140046115,-0.28779815674815323
1772796815976655000,1.383655029296875,10.909384447163342,5.064121126633882,-0.5005305511180311
1772796815986646800,1.393646728515625,10.364032538348436,4.888752284768223,-0.37383696589842436
1772796815996639000,1.403638916015625,9.607145080265402,4.5754666720747945,-0.23135058560017496
1772796816006631000,1.413630859375,8.776552919024228,3.9614270114809274,-0.05315291351675987
1772796816016623900,1.423623779296875,8.188367246133089,3.1402216872662305,0.23676691156048327
1772796816026615800,1.43361572265625,7.733174331670999,2.5296990948826075,0.05457315557822585
1772796816036608000,1.44360791015625,6.7092585696786635,2.544024557355046,-0.6634587944097816
1772796816046600000,1.453599853515625,5.145689402773976,2.8243425509482623,-1.027249728720635
1772796816056592000,1.463591796875,2.9878111116617916,2.8451871860563753,-1.2775541307136415
1772796816066585000,1.473585205078125,0.6894587664544582,1.5535636134579778,-1.4387455402754246
1772796816076577000,1.483576904296875,-0.5011228909879922,-0.6720218939632177,-0.902059095409885
1772796816086569000,1.49356884765625,-0.7844067486494779,-2.3680722165130077,-0.6422184379823506
1772796816096561000,1.503560791015625,-0.2525584645301103,-2.474450670391321,-0.2180537355231121
1772796816106552800,1.513552734375,-0.42505028965473174,-1.7244364590786396,1.1095102979738265
1772796816116545800,1.5235458984375,-3.8391058691918847,-2.108621654381603,3.4791178342953324
1772796816126538000,1.5335380859375,-9.95060838907957,-3.690172029787302,5.125274975776672
1772796816136530000,1.543530029296875,-16.144382364940643,-2.855229272121191,3.5982039401859045
1772796816146522000,1.553522216796875,-21.648460258460045,-0.45822629080861804,1.0466378814101218
1772796816156514000,1.56351416015625,-25.802933222794532,0.9347522814828902,0.7853460022609681
1772796816166506800,1.5735068359375,-28.26185080848932,0.5282764169819653,1.6256147041901945
1772796816176499000,1.5834990234375,-30.045180332171917,1.2570986410535872,2.3248238802865147
1772796816186491000,1.593490966796875,-34.0311613546729,2.7409441367715597,2.523939800703525
1772796816196482800,1.60348291015625,-38.700934788429734,3.4608792900323864,3.3516642975538966
1772796816206474800,1.613474853515625,-39.01809402768612,2.605957574176788,4.149280948649347
1772796816216467000,1.623467041015625,-31.282348968744277,-0.11426434828992932,3.095464846172929
1772796816226459600,1.633459716796875,-21.422135720860958,-2.1834132759936153,1.1313595070146023
1772796816236451800,1.643451904296875,-14.442144732058047,-3.1827824796199797,-0.36274909710772335
1772796816246443800,1.65344384765625,-9.282492270383239,-3.5324215544596314,-0.400279201817885
1772796816256436000,1.66343603515625,-4.788429623797535,-2.839057304999232,-0.41120698467604816
1772796816266427600,1.673427734375,-1.1714303822487593,-1.5565994740225373,-0.485052630674839
1772796816276420900,1.6834208984375,0.9372329193174839,-0.17038301627710462,-0.37847609694115814
1772796816286412800,1.693412841796875,1.8399615114867687,0.8053361394315958,-0.407096261421591
1772796816296404700,1.70340478515625,2.5624486873179673,0.8656896319769323,0.17204050116054712
1772796816306396700,1.713396728515625,4.042832790535688,0.6757378457464277,0.3336551776356995
1772796816316388900,1.723388916015625,5.661930367916822,0.4467530028969049,-0.05324877510666847
1772796816326381800,1.7333818359375,7.581904158273339,0.5645737650267779,-0.39981384932845826
1772796816336373800,1.743373779296875,9.914058235317468,0.8881107226215302,-0.35292408785969015
1772796816346366000,1.753365966796875,12.030261284738778,1.1957885784357785,-0.24477562863416968
1772796816356358000,1.76335791015625,13.720181872361898,1.151084490443021,-0.9207409264609218
1772796816366349800,1.773349853515625,15.157721105587482,1.0169973609060048,-1.3011153313040733
1772796816376342800,1.7833427734375,15.940109500151872,0.9850492941118776,-1.607032753317058
1772796816386335000,1.7933349609375,16.249395229554175,0.7169491231873631,-1.8752268861353396
1772796816396326700,1.80332666015625,16.75090799664259,0.6090908060148358,-1.6615565167956052
1772796816406318800,1.81331884765625,17.733005309081076,0.9658350366845726,-1.318724930013716
1772796816416310800,1.823310791015625,18.390092084240912,1.4743755104526877,-1.0940878340449183
1772796816426303700,1.8333037109375,17.97921294327974,2.1782576467961072,-0.9193418733179569
1772796816436295700,1.843295654296875,16.278438953208923,2.9813901387035844,-0.2528686995230615
1772796816446288000,1.853287841796875,13.701518088424205,3.4320471633017062,0.034366453047469256
1772796816456279800,1.86327978515625,11.455883187925815,3.5905192309021947,-0.3410385658852756
1772796816466272000,1.87327197265625,10.44653312690258,3.7035783315882083,-0.6116760002024472
1772796816476264700,1.8832646484375,10.39541318051815,3.6972710481375453,-0.478134704512544
1772796816486257000,1.8932568359375,10.189179829311371,3.696725689214468,-0.40886973736751825
1772796816496248800,1.903248779296875,9.421959193262458,3.4344688374906776,-0.544482688232325
1772796816506240800,1.91324072265625,8.985081103169918,3.170163236543536,-0.6177297472834586
1772796816516232700,1.923232666015625,8.887341444429754,2.9151436425969,-0.6671463238161057
1772796816526226000,1.933225830078125,8.777793274474144,2.409604104210436,-0.8064708425499498
1772796816536217900,1.9432177734375,8.634217747232318,2.276537257631868,-0.5495618181275204
1772796816546209800,1.953209716796875,8.303215276062488,2.402257102448493,-0.23616258899178355
1772796816556202000,1.963201904296875,7.597552978304028,2.3017259132936596,0.06495280303433537
1772796816566194000,1.97319384765625,6.876329538798331,2.0891656971529127,0.24971754201576113
1772796816576185900,1.983185791015625,5.8303545052111145,1.9210364511519669,0.11999145723246037
1772796816586178800,1.9931787109375,4.067486754798889,1.3718185145586728,0.041741840653680265
1772796816596171000,2.0031708984375,2.0556851600944994,0.07631437419988214,0.16078169624973088
1772796816606162700,2.01316259765625,0.5771206735193729,-1.4107403658881783,0.31739790685046465
1772796816616155000,2.02315478515625,-0.13657704665660858,-2.8239672878950834,1.1512344203077256
1772796816626146800,2.033146728515625,-1.8589310003727673,-3.043574499937892,1.2843693636864424
1772796816636139800,2.043139892578125,-5.886279806050658,-2.360081363889575,0.7408073339629918
1772796816646131700,2.053131591796875,-12.404064202237128,-1.6106876225627957,0.12966668274626136
1772796816656124000,2.0631240234375,-19.456421339070797,0.9583059563539922,-0.5879800673164427
1772796816666115800,2.07311572265625,-23.63900746821165,3.3841359498307106,-0.2622059983193874
1772796816676107800,2.083107666015625,-23.894749823474882,2.7668939860641957,1.6024498094409703
1772796816686100700,2.093100830078125,-22.462498175263402,1.4006974030405281,3.848221195800602
1772796816696093000,2.103093017578125,-23.090531874418257,0.7011232660893351,3.4074729862764475
1772796816706084600,2.113084716796875,-26.427887660634518,-0.3364683353602886,2.4333713487669826
1772796816716076800,2.123076904296875,-29.790258645641803,-0.13167977613434195,2.7838936361819506
1772796816726068700,2.13306884765625,-32.176054881024356,0.5536401369497179,3.8308985973387952
1772796816736061700,2.143061767578125,-31.63249160919189,-0.1916300216410309,4.1529175515860315
1772796816746054000,2.153053955078125,-27.513167115128038,-1.1261733365483582,2.605478850749135
1772796816756045800,2.1630458984375,-21.479157000243664,-2.0528543205827474,0.9191123023457825
1772796816766038000,2.1730380859375,-15.29868089737296,-2.337247600790858,-0.6004705694466829
1772796816776030000,2.183030029296875,-9.69368822220862,-2.9321202041000127,-1.126427676635608
1772796816786023000,2.19302294921875,-3.815910871565342,-3.0028812550216912,-0.8201607105325907
1772796816796014800,2.203014892578125,0.3106587713211775,-1.9641338346004484,-1.0570601258989423
1772796816806006800,2.2130068359375,2.0406752224892375,-1.0963786483958362,-1.4012027222141623
1772796816815998700,2.222998779296875,2.938803627386689,-0.7529933732539414,-1.4088751565381883
1772796816825991000,2.232990966796875,3.705905020970106,-0.046090866176038976,-1.18896231261231
1772796816835984000,2.24298388671875,4.395203043904901,0.04398702576458454,-1.5210812936566769
1772796816845975800,2.252975830078125,5.79757627120316,0.26322847323492166,-2.0693675023578106
1772796816855967700,2.2629677734375,7.2420455959528685,0.5604150379121303,-1.7529817316919565
1772796816865960000,2.2729599609375,8.484767190477251,0.8411794600985943,-1.0948724816165865
1772796816875951900,2.282951904296875,9.612125791287422,1.2750643597245215,-0.06756850195806473
1772796816885944800,2.29294482421875,10.492948841118812,1.5125306151933968,0.1394214032370597
1772796816895936800,2.302936767578125,11.459040775173902,1.4118952350117264,-0.5241739135665818
1772796816905929000,2.312928955078125,12.998192124658821,1.1462708065509795,-1.628141738449782
1772796816915920600,2.322920654296875,15.265301190340518,1.271160338023305,-2.2848984048724175
1772796816925912800,2.332912841796875,17.341617635053396,1.3651350912719964,-2.26832764769122
1772796816935904800,2.34290478515625,18.4446092718482,1.3649223253041505,-2.100771817664057
1772796816945897700,2.352897705078125,18.48495063458681,1.5916586585745214,-1.7187535911366343
1772796816955890000,2.362889892578125,17.668121041238308,1.8679381904318928,-1.216165011510253
1772796816965881900,2.3728818359375,16.49728161062002,2.1877160877540707,-0.7601517205759882
1772796816975874000,2.3828740234375,15.26482889665365,2.6036954744637013,-0.5133844797331839
1772796816985865700,2.39286572265625,13.938932175314426,2.847656791040301,-0.14210465097166597
1772796816995859000,2.40285888671875,12.598960166871548,3.0816523016586896,0.5026987620025873
1772796817005851000,2.412850830078125,11.17427457000017,3.1076293312191963,0.8238964629948139
1772796817015842800,2.4228427734375,9.763964119961857,3.071957713857293,0.7500203487925231
1772796817025834800,2.432834716796875,8.472253161340952,3.0476068241938945,0.3343274508740753
1772796817035827000,2.442826904296875,7.700195606654882,2.679627790543437,-0.07115940258949995
1772796817045819600,2.452819580078125,7.965968357545137,2.679454479803145,-0.14880531765408814
1772796817055811800,2.462811767578125,8.459877663892508,2.967610619676113,-0.26591120951287445
1772796817065803800,2.4728037109375,8.554899880367516,2.597615862289071,-0.5493271691214293
1772796817075796000,2.4827958984375,7.920673756313324,2.242197911787033,-1.0382008924543857
1772796817085787600,2.49278759765625,6.534826131880283,1.8587626580685377,-1.1423636430446058
1772796817095780900,2.50278076171875,5.110557299116254,1.6520435691714286,-0.7286899759940803
1772796817105772800,2.512772705078125,4.199468290358782,1.5943709862731397,-0.418953141823411
1772796817115764700,2.5227646484375,3.939998439005017,1.4995836014673114,-0.3797569305319339
1772796817125756700,2.532756591796875,3.881918590480089,0.6434348280347884,-0.65603675465025
1772796817135748900,2.542748779296875,3.4014474423766132,-1.0392470405064522,-1.2572088234297931
1772796817145741800,2.552741943359375,2.374751109755039,-2.4183964824751016,-1.710717584197223
1772796817155744500,2.56274462890625,0.5889058038592339,-3.0620646808743475,-1.6170134645834564
1772796817165736400,2.572736328125,-2.788782577267289,-3.1600948469936845,-0.3108318628657609
1772796817175728600,2.582728759765625,-6.989579485881328,-3.1852962160065768,1.9259337216742336
1772796817185720300,2.59272021484375,-11.619698954641818,-2.537821903322637,3.25962022010684
1772796817195713500,2.602713623046875,-16.217613605368136,-0.01877637746669352,3.6402497687548396
1772796817205705500,2.61270556640625,-20.739178006863593,2.351364096687734,3.65346317833215
1772796817215697400,2.622697509765625,-24.7535130171895,1.5547946165576576,3.4775153675347563
1772796817225689300,2.632689453125,-25.58061149109602,0.9957393957566469,4.031831211788952
1772796817235681500,2.642681640625,-24.786854145777223,2.1772575298428536,3.2871529546767473
1772796817245673500,2.652673583984375,-27.665991532230375,2.9112825832545757,1.8353575248226521
1772796817255666400,2.66266650390625,-33.59148632733822,3.413318497434258,2.5166940673589706
1772796817265658400,2.672658447265625,-38.14222304730415,2.7541245208621024,4.99506454154253
1772796817275650600,2.682650634765625,-37.77812670030594,-0.007499379312060773,6.030618134358525
1772796817285642500,2.692642578125,-31.705818711209297,-1.7474501087889074,4.066252536828816
1772796817295634400,2.702634521484375,-23.463183283793924,-2.115200594380498,2.161376070100069
1772796817305627400,2.71262744140625,-15.234063171511888,-1.8432590917274354,1.2065048374351113
1772796817315619600,2.72261962890625,-7.758748333388566,-1.2665560590982436,0.8989018734879791
1772796817325611300,2.732611328125,-1.6779601007163523,-0.3253277865342796,0.7804645868949591
1772796817335603500,2.742603515625,2.6926158669322726,0.0014805939465761184,0.6373558003820479
1772796817345595400,2.752595458984375,5.340050529879331,-0.40977322554588314,-0.09876637143939733
1772796817355588400,2.76258837890625,7.094497073426842,-0.5051553613744676,-1.2373901703685521
1772796817365580500,2.77258056640625,8.931332561847567,-0.7648454313501715,-2.6782150011360644
1772796817375572500,2.782572509765625,10.501001214671135,-0.9678227033704518,-4.158975244189799
1772796817385564700,2.792564697265625,12.140856333398819,-1.0493844036392868,-4.331716952422261
1772796817395556400,2.802556396484375,12.95408994808197,-0.5251347579553723,-3.1806220867156982
1772796817405549600,2.812549560546875,12.219511936962604,-0.111750210044533,-1.4707190337717533
1772796817415541500,2.82254150390625,11.240196948719024,-0.39403029749095436,-0.043703240387141705
1772796817425533400,2.832533447265625,11.466121673345565,-0.4300754243403673,0.6311144948396832
1772796817435525400,2.842525390625,12.640234426546096,-0.36691461928933855,0.28776640990301966
1772796817445517600,2.852517578125,14.526689978182315,-0.03044190001487732,-0.5757558879721909
1772796817455509500,2.862509521484375,16.427024417567253,0.5354784573152661,-0.9580907061681151
1772796817465502500,2.87250244140625,17.79200461053848,1.1256959282949566,-0.9226975404214114
1772796817475494400,2.882494384765625,18.114779936110974,1.8259271409153937,-0.35224764990285035
1772796817485486600,2.892486572265625,17.416089230930805,2.723660116754472,0.3964950801692903
1772796817495478300,2.902478271484375,15.519980884808302,3.572006838133931,0.6148450586926192
1772796817505470500,2.912470458984375,12.887104908567666,4.003208928416669,0.5179838632874191
1772796817515463400,2.92246337890625,10.509466260677575,4.338776223284006,0.16591814582273362
1772796817525455400,2.932455322265625,9.094083914202452,4.629483801205456,-0.3790793235313147
1772796817535447300,2.942447265625,9.118048142635821,4.73390659097135,-1.1476134533315896
1772796817545439500,2.952439453125,9.826282921230792,4.286616996979713,-1.7867723576128482
1772796817555431400,2.962431396484375,10.428450357723236,3.9458068330228326,-2.1354010863661763
1772796817565424400,2.97242431640625,10.345663353443145,3.8569437236994504,-2.3956530280083417
1772796817575416600,2.98241650390625,9.336827087160945,3.7194811263799665,-2.3159105059906837
1772796817585408500,2.992408447265625,7.735513588273525,3.448812127880752,-1.8427357985056936
1772796817595400400,3.002400390625,6.468546610286832,3.0821131971687077,-1.5972069403514264
1772796817605392400,3.012392333984375,6.239665373942255,2.799929409703612,-1.6039365408673882
1772796817615385600,3.022385498046875,6.303899068921804,2.5281360833495854,-1.653188793683797
1772796817625377500,3.03237744140625,5.787307390645146,2.0723140772037207,-1.6773147885501383
1772796817635369500,3.042369384765625,4.294349637058377,1.7340286094188688,-1.1128867156043647
1772796817645361400,3.052361328125,2.46410171033442,0.8485441436477005,-0.5468883976671844
1772796817655353600,3.062353515625,1.462849031049013,-0.9288907690383493,-0.6142068338543176
1772796817665346300,3.07234619140625,0.7447463539123534,-3.5641362508893013,-0.023391543111950158
1772796817675338500,3.08233837890625,-0.1327981126397848,-6.2167129528999325,0.5974660538684576
1772796817685330400,3.092330322265625,-2.2924673788219687,-6.639911477208137,-0.09992219041101634
1772796817695322600,3.102322509765625,-6.851804169350862,-5.624952928653359,-0.09130136932097375
1772796817705314300,3.112314208984375,-13.337823892486094,-3.5060406202733514,1.1955616378121077
1772796817715307500,3.1223076171875,-20.798556078505516,-1.3976264711625874,1.9378876327097414
1772796817725299500,3.132299560546875,-26.700333313417435,-2.271108218320459,0.5784635394956916
1772796817735291400,3.14229150390625,-28.333253664445877,-3.871556186419725,0.23326317775584757
1772796817745283300,3.152283447265625,-26.772559176194665,-4.893326168555021,0.9125459295675158
1772796817755275500,3.162275634765625,-26.624125687527656,-5.46088640204668,1.5564733634248376
1772796817765267500,3.172267333984375,-28.59261304116249,-4.372464557874203,3.0443185963034627
1772796817775260400,3.182260498046875,-30.151708277523515,-1.5767477974295616,5.356756165486574
1772796817785252600,3.192252685546875,-30.08819412899017,-0.5209257619582116,6.860418852961063
1772796817795244500,3.20224462890625,-26.295030511283873,-1.524550869463384,6.83379095827639
1772796817805236200,3.212236328125,-18.93874303460121,-2.6606746682703495,5.353890839183331
1772796817815228400,3.222228515625,-10.9276647847414,-3.230126999118924,2.7737410754799843
1772796817825221600,3.2322216796875,-2.8364059137076136,-3.248137579844892,-0.04582563936859369
1772796817835213300,3.24221337890625,4.0117824032336475,-1.659489793524146,-1.4903826424017548
1772796817845205500,3.25220556640625,6.4886529942482705,0.28198300419598815,-2.2382028508014975
1772796817855197400,3.262197509765625,6.043132748016714,1.885722561186552,-2.213367684752494
1772796817865189600,3.272189697265625,4.270860040399432,3.069073975114524,-1.434183346926421
1772796817875182300,3.282182373046875,4.045736110761761,3.0456264640316366,-1.2388497215270995
1772796817885174500,3.292174560546875,6.205088566079735,2.7487714693963525,-1.7948098258569836
1772796817895166500,3.30216650390625,9.509531678253412,1.6651812831640243,-2.309827825076133
1772796817905158400,3.312158447265625,13.714257158488035,0.6005532792940735,-2.377368306516111
1772796817915150300,3.322150390625,16.971335877418518,0.2757604764193296,-1.841331630796194
1772796817925143600,3.3321435546875,18.610122490131854,-0.0582493598729372,-1.134561737122014
1772796817935135500,3.342135498046875,18.87449940274954,-0.3773129714459181,-0.8110498409032821
1772796817945127400,3.35212744140625,18.398423859256503,-0.540383472752571,-0.9036251026175915
1772796817955119400,3.362119384765625,17.986776656532285,-0.3199669901534915,-1.2630560881532729
1772796817965111600,3.372111572265625,18.51973202511072,0.35405689128190276,-1.676932072842866
1772796817975104500,3.3821044921875,18.942575160109996,1.5779434369549155,-1.752507099917531
1772796817985096400,3.392096435546875,18.388981492650508,2.5376643746733665,-1.5410881627663968
1772796817995088600,3.402088623046875,16.91077707155943,3.292192117887735,-1.0693829433120787
1772796818005080600,3.41208056640625,14.62373347135186,4.067760603304207,-0.2505046738054603
1772796818015072300,3.422072265625,12.363208460235596,4.649413367295265,0.030746947376057505
1772796818025064400,3.432064453125,10.710832882630825,5.0443303844928735,-0.3729137866389006
1772796818035057700,3.4420576171875,9.75586556918025,5.250249847444891,-1.1620732097081838
1772796818045049300,3.45204931640625,9.551252512651681,5.35489913944304,-1.8990061133906244
1772796818055041500,3.46204150390625,9.583578326717019,5.3177130258649585,-1.9928261144690214
1772796818065033500,3.472033447265625,8.959002074539661,5.288448937457799,-1.500022577406466
1772796818075025700,3.482025634765625,7.831521308654546,5.215280825394392,-1.017631640221551
1772796818085018400,3.492018310546875,6.897145532333851,4.708714866569638,-0.9942686656169593
1772796818095010600,3.502010498046875,6.3142152957528825,3.9863115696296094,-1.3547393694639205
1772796818105002500,3.51200244140625,5.876321891137957,3.32516587446779,-1.9732322100743651
1772796818114994400,3.521994384765625,5.0525528539150955,3.49676513466686,-1.9023615612983702
1772796818124986400,3.531986328125,2.828928709694743,3.802145088802278,-1.40356623647511
1772796818134979600,3.5419794921875,-0.48456163228750226,2.8182638155564663,-0.9068113314382731
1772796818144971300,3.55197119140625,-3.4446108767986297,0.06067695234604179,-0.6762786746248602
1772796818154963500,3.56196337890625,-5.53501955974996,-2.5886551417201757,-0.9038239861905574
1772796818164945200,3.571945068359375,-5.815866545653343,-4.331413001039624,-0.9653292060542851
1772796818174937000,3.58193701171875,-5.925415884652733,-3.300735489827394,0.9610347237307578
1772796818184930000,3.591929931640625,-9.345256477332114,-0.05236198233477771,4.856378247646987
1772796818194922000,3.601921875,-17.688842342227698,1.7817191658765077,7.545094476792216
1772796818204914200,3.6119140625,-27.197918093407154,3.9191456205904482,7.321849785029888
1772796818214905900,3.62190576171875,-32.1875068338871,6.88293522067368,3.9765930164307353
1772796818224898000,3.63189794921875,-33.582800332057474,4.859812313748896,1.0687098663561045
1772796818234891300,3.641891357421875,-33.19103973306417,1.9125442248776554,0.3174058344285935
1772796818244883000,3.651883056640625,-32.30001560721397,0.87957392655313,0.11329451687708496
1772796818254875100,3.661875244140625,-32.13429897531271,1.5692530577600001,0.6574388765331357
1772796818264867000,3.6718671875,-32.04406282407045,3.189598589375615,1.8497059297792613
1772796818274859300,3.681859375,-30.18924393519163,2.8431895824983715,2.988120031480491
1772796818284851200,3.691851318359375,-24.223674319326875,1.433449041302502,2.93347658714503
1772796818294844200,3.70184423828125,-14.997776042824983,0.7940323628678917,1.6263459410741925
1772796818304836000,3.711836181640625,-8.386243687883018,0.4961970519583672,0.5041683961637318
1772796818314828000,3.721828125,-4.839905544012785,0.8781944548934698,-0.466073351047188
1772796818324820000,3.731820068359375,-2.3440783235937355,2.021248199094087,-0.2597236799843609
1772796818334812200,3.741812255859375,-0.7155325343877077,2.6908003419429063,0.008573913208395243
1772796818344805000,3.75180517578125,1.441347393336892,3.1707500965207815,-0.3709295540191233
1772796818354797000,3.761797119140625,4.026358041074872,3.721548288042843,-0.743401149848476
1772796818364789000,3.7717890625,6.108823656067252,3.786889359742403,-1.1135800316307694
1772796818374781200,3.78178125,8.279979946425557,3.5471360162496564,-1.3169523673832415
1772796818384773000,3.791773193359375,10.430428379797934,3.484385253304243,-1.1248602811884134
1772796818394766000,3.80176611328125,12.274884864616393,3.3101158971130844,-1.00672811502181
1772796818404758000,3.811758056640625,13.704078294301032,3.0503008855834604,-0.9043618924595415
1772796818414750200,3.821750244140625,14.696293680649996,2.6098779624909163,-0.6452922924697398
1772796818424742000,3.831741943359375,15.325051017904281,1.6426096781328319,-0.5899984944667667
1772796818434734000,3.841734130859375,15.965357338654995,0.6498638381689786,-1.2083107178132981
1772796818444726000,3.85172607421875,17.20190404393673,0.4131184443205595,-1.9076133443467318
1772796818454719000,3.861718994140625,18.317031524205206,0.9148886933013797,-2.252165032919496
1772796818464711200,3.871711181640625,18.587223260581492,1.6845403558894991,-2.3307395340710877
1772796818474703000,3.881703125,17.79503243392706,2.467823945727944,-1.6257114425629375
1772796818484695300,3.8916953125,16.30130778762102,3.1277061968252062,-0.8122196153350174
1772796818494687000,3.90168701171875,14.638537072730063,3.7616286617577073,-0.33852095704115925
1772796818504680200,3.91168017578125,12.964315574020146,4.070933972643315,-0.1229668197814375
1772796818514672000,3.921672119140625,11.363594195806979,4.150535917146503,0.09291552651934325
1772796818524664000,3.9316640625,10.213852498275042,4.181552109917998,0.2547103818669915
1772796818534656000,3.941656005859375,9.443924356833099,4.1436891199916595,0.28877434483654796
1772796818544648200,3.951648193359375,8.93500043670535,3.773235220660269,0.2930257917359471
1772796818554641000,3.961640869140625,8.739819225388764,3.486076567392051,0.1313735597293824
1772796818564633000,3.971633056640625,8.576313839796185,3.2059716320276257,0.007282192897424101
1772796818574625000,3.981625,8.078928381770849,2.627709387257695,-0.032763036438822744
1772796818584617200,3.9916171875,7.29140905405879,2.0978331338636576,-0.1707198470160365
1772796818594609000,4.00160888671875,6.518726645472645,1.7192878441438078,-0.19002353629246352
1772796818604602000,4.01160205078125,5.826607135376334,1.2855644186899065,-0.1138408987134695
1772796818614594000,4.021593994140625,4.89233832656145,0.41523865134492516,-0.16813414137177168
1772796818624586000,4.0315859375,3.827050105217099,-0.12351546664014458,-0.43653103022053835
1772796818634578000,4.041577880859375,2.3682319371193645,-0.5164993238180875,-1.0410295400090515
1772796818644570000,4.051570068359375,-0.0270616099268198,-1.3726653406463563,-1.4517472067981958
1772796818654563000,4.06156298828125,-3.151289024725556,-2.4311548417612907,-0.9351572820872068
1772796818664555000,4.071554931640625,-6.243855226847529,-3.3861545961767434,0.4889763069245964
1772796818674547200,4.081547119140625,-8.896716591018437,-4.161064033162593,1.787371200288832
1772796818684539100,4.0915390625,-10.843886431336403,-4.347138977959752,2.339217439559102
1772796818694531300,4.10153125,-12.354707173871994,-2.644922972387075,1.9895188896171747
1772796818704523000,4.11152294921875,-14.238990642166137,-2.755268430200219,1.6426590702325106
1772796818714516200,4.12151611328125,-15.880607509869336,-4.864076985456049,1.9634283166795967
1772796818724508200,4.131508056640625,-16.176358050394057,-4.323676853829622,2.264141448047757
1772796818734500000,4.1415,-16.481518224298952,-2.464934069505334,1.796986439243704
1772796818744492000,4.151491943359375,-19.160330606806276,0.3572084871806204,1.2408622303932904
1772796818754484200,4.161484130859375,-23.776292955398556,3.9629499832645054,1.682927075473964
1772796818764477000,4.171476806640625,-28.040003708565234,5.628637170124054,3.093595545169711
1772796818774469000,4.18146923828125,-30.58745765584707,3.9204438437074423,4.017049529981613
1772796818784461000,4.1914609375,-29.130085594904422,1.9813969579599797,5.368823619899153
1772796818794453200,4.201453369140625,-23.48622513668537,0.4767861029151827,5.159122884842753
1772796818804445000,4.21144482421875,-15.673692606139182,-0.989948902721703,2.7673353000909087
1772796818814438100,4.221438232421875,-9.410982456696033,-1.0818196694284676,1.5973229679465293
1772796818824430000,4.23143017578125,-4.89140659866929,-0.7300180097274482,1.0869384737469254
1772796818834422000,4.241422119140625,-1.3986930774807929,-0.4011963897280395,0.37235768712610007
1772796818844414000,4.2514140625,1.2680664636611938,0.18550503595471382,-0.938612317911908
1772796818854406100,4.26140625,3.6897120110601183,0.8025030348975211,-1.97519065066576
1772796818864399000,4.271399169921875,5.878913076674938,1.3552365053310989,-2.1120365773916245
1772796818874391000,4.28139111328125,7.696325487223267,1.8857491569325326,-1.947470869091153
1772796818884383200,4.29138330078125,9.234643893015384,2.1161143482245506,-1.9924694099858402
1772796818894375200,4.301375244140625,10.72452939954996,1.7746813761942088,-1.9482433147683738
1772796818904366800,4.311366943359375,12.337529244577883,1.4461793435379862,-1.67718575534299
1772796818914360000,4.321360107421875,14.067184461218117,1.176037291522324,-1.4543508134253322
1772796818924352300,4.331352294921875,15.92954017534256,0.8555483233213425,-1.164828792026639
1772796818934344000,4.341343994140625,17.703872738099097,0.9522042784780264,-1.2235717806354165
1772796818944336100,4.351336181640625,18.80934625483751,1.4372308979287742,-1.5410083755284547
1772796818954328000,4.361328125,19.34440473317504,2.2800749302387238,-1.9161717677250503
1772796818964320300,4.3713203125,18.767550601637364,3.143981916582584,-2.1534762567609547
1772796818974313000,4.38131298828125,17.0033302675724,4.01230876519531,-1.7267295384518802
1772796818984305200,4.39130517578125,14.429804305922984,4.961253457355499,-1.0842344024199992
1772796818994297000,4.401297119140625,12.132408823049067,5.269247977903485,-0.8181313966620714
1772796819004289000,4.4112890625,10.879434714579581,5.413112258958816,-0.5896862867124378
1772796819014281000,4.421281005859375,10.354816966235637,5.840766009110212,0.05989172025248408
1772796819024274200,4.431274169921875,10.236406859910488,5.819920789480209,0.33525165304690596
1772796819034266000,4.44126611328125,10.020374583745003,5.37062102470994,0.1286084058649838
1772796819044258000,4.451258056640625,9.425846263828873,4.864994392561912,0.15369593923985958
1772796819054250000,4.46125,8.445372168678045,4.179286795334518,0.4717418982028961
1772796819064242200,4.4712421875,7.14646048489809,3.5618633375212547,0.8185014720834791
1772796819074235100,4.481235107421875,5.396081629180908,2.950172870402038,0.5954243919730187
1772796819084227000,4.49122705078125,2.9450732091754674,2.0478896839126945,0.06423705598041415
1772796819094219000,4.501218994140625,0.0378846172362566,0.7894435737729072,-0.4270663056522608
1772796819104211200,4.511211181640625,-2.741028892445564,-0.18357932858914136,-0.7593334629956633
1772796819114203000,4.521202880859375,-5.461977704414725,-1.5200710937008262,-0.9967645010206848
1772796819124196000,4.531196044921875,-8.18737648153007,-4.593006712679565,-1.4377951076827942
1772796819134188300,4.541188232421875,-10.261164869070052,-8.54355314144492,-1.6189251434236764
1772796819144180000,4.551179931640625,-11.369780775487422,-11.18155186752677,-0.009289952523261308
1772796819154172200,4.561172119140625,-10.873797585475444,-11.006488730609416,3.035067952877283
1772796819164164000,4.5711640625,-9.599683073821664,-9.58355553036332,4.007290352511406
1772796819174156300,4.58115625,-8.839559118035435,-11.125813029170036,2.8330659556299445
1772796819184149000,4.59114892578125,-8.098204744648934,-11.72061315176487,2.91754105912745
1772796819194141200,4.60114111328125,-7.119816223600506,-9.580309095788001,2.7171590642973777
1772796819204133000,4.611133056640625,-9.665349431952833,-6.021403146767616,0.5684750102490186
1772796819214125000,4.621125,-17.404270198321342,-0.9867280409790575,0.08537380590289831
1772796819224117000,4.631116943359375,-27.42088046109676,4.016019602411985,2.312124996102601
1772796819234110200,4.641110107421875,-33.490242459869386,4.811060850061476,4.143158958637714
1772796819244102000,4.651101806640625,-30.96148152261972,2.6277543954432008,5.523266578114033
1772796819254094000,4.661093994140625,-23.13177573895454,0.1310826870240271,5.214010659328102
1772796819264086000,4.6710859375,-14.386584757399557,-1.788716915809363,3.415482397469878
1772796819274078200,4.681078125,-6.138758191081881,-3.627218437746167,1.6208444210484623
1772796819284071000,4.69107080078125,1.376256789267063,-3.5869071778848767,0.5931378884710371
1772796819294063000,4.70106298828125,4.7093227693349125,-2.135859059266746,0.11829407873004674
1772796819304055000,4.711054931640625,4.576052363008261,-0.7514405908539891,-0.2922190784629434
1772796819314047000,4.721046875,3.03684489942193,0.9466976438857615,-0.37906653711497784
1772796819324039000,4.731038818359375,2.066822640180588,2.3253625172078607,-0.28329474438168106
1772796819334032100,4.7410322265625,3.2257880931317806,2.9594606309682128,0.45111419378109274
1772796819344024000,4.751024169921875,6.404275505906343,3.0774864141508935,0.5846599099177867
1772796819354016000,4.76101611328125,10.329953743135928,2.9082947996154425,-0.06470028957799076
1772796819364008200,4.77100830078125,14.248184002447127,2.5620965128794313,-0.8389655834414065
1772796819374000000,4.781000244140625,17.70338290875554,2.3707369056776164,-1.570524977391958
1772796819383993000,4.7909931640625,20.14779383019209,2.7348583871170877,-2.1026893417231736
1772796819393985000,4.800985107421875,21.836021642422676,3.347251449547708,-2.5158272213965653
1772796819403977200,4.810977294921875,22.514674937224388,4.00426136007905,-2.935020309455693
1772796819413969200,4.82096923828125,21.64578081011772,4.664245025724172,-2.7042539900168774
1772796819423961000,4.830961181640625,19.987564689791203,5.1665995043337345,-1.8225068110778926
1772796819433953000,4.840953125,17.65146216738224,5.5669414691895245,-0.9070260701674967
1772796819443946200,4.8509462890625,14.58016905491352,5.647989520847797,-0.36075017837546763
1772796819453938000,4.86093798828125,12.191217570370435,5.471219580012559,0.05974683188907802
1772796819463930000,4.87093017578125,10.875207452273369,5.374173748755455,0.3740277392301708
1772796819473922000,4.880922119140625,10.376336724126338,5.14993361621499,0.3884842076711356
1772796819483914200,4.890914306640625,10.26965680308342,4.965286658394336,0.18281769656687974
1772796819493907000,4.900906982421875,9.658055183291435,4.612771735857427,-0.06554696953520178
1772796819503899100,4.910899169921875,8.212725442320108,4.282813220782578,-0.17251469454355536
1772796819513891000,4.92089111328125,6.300282631990314,4.077946774014831,-0.6429145304877311
1772796819523883000,4.930883056640625,3.820813256654143,3.69629197397232,-1.2794332224585114
1772796819533875000,4.940875,0.8779021939486265,3.330418972690403,-1.8311038129009305
1772796819543868200,4.9508681640625,-2.396841945531964,2.8478222107350826,-2.2413073926880953
1772796819553860000,4.960860107421875,-5.477118574923277,1.4200507766775785,-1.9516892174385487
1772796819563852000,4.97085205078125,-7.1119754469722505,-0.8458569503903388,-1.2072170042924582
1772796819573844200,4.98084423828125,-7.544046429044008,-3.2019588892549273,-0.5760798226969316
1772796819583836200,4.990836181640625,-7.332959208065271,-4.784845920091867,-0.19897956241993234
1772796819593828000,5.000828125,-8.341253622555731,-4.880765669928491,0.4456843142194673
1772796819603821000,5.010821044921875,-11.428256345331668,-4.080734943428635,0.49325354585237796
1772796819613813200,5.020813232421875,-15.045137513458728,-2.248351319850236,0.15656553985942154
1772796819623805000,5.030804931640625,-17.899138120567798,-1.7207412578225134,-0.05728621392920613
1772796819633797000,5.040797119140625,-17.65246403790116,-4.063567243267595,0.042494704847596584
1772796819643789000,5.0507890625,-15.054419721066951,-4.796313947306573,0.842268570509553
1772796819653782000,5.060781982421875,-13.425887960386275,-3.2938252720475196,1.4683669176876544
1772796819663774000,5.07077392578125,-17.192708345568178,-1.3967393130645156,2.1810069455042482
1772796819673766100,5.08076611328125,-26.31214063603878,1.105021023730561,3.225038736069202
1772796819683758000,5.090758056640625,-35.34926055400371,2.479239365972578,3.97540029951483
1772796819693750000,5.10075,-36.373798831808564,1.7646607713088391,4.440931068117917
1772796819703743000,5.110742919921875,-29.94132482089996,-0.22619353163056075,3.9656805772721766
1772796819713735200,5.120735107421875,-20.536781457340716,-1.8585460927084088,1.9907571992404758
1772796819723727000,5.13072705078125,-10.13764954856038,-2.8232731681510805,-0.20636410144697873
1772796819733719000,5.140718994140625,-2.2414953164756297,-3.337476782247424,-1.884240652065724
1772796819743711000,5.1507109375,2.1412124029934403,-2.7168185802966356,-2.977366290014982
1772796819753704200,5.1607041015625,4.165792815250158,-1.1997633272856474,-2.932943503181636
1772796819763696000,5.170696044921875,4.590203637957573,0.20335385024771094,-2.6045617359042166
1772796819773688000,5.18068798828125,4.84248796172142,1.2388961910173297,-2.032109200326353
1772796819783680300,5.19068017578125,6.377327877748012,2.0367033962488175,-1.3431374867364763
1772796819793672200,5.200672119140625,9.04000161088109,2.7486396597102285,-1.10758736708723
1772796819803664000,5.210663818359375,12.09633563914895,2.9111668479204176,-1.2431018260136246
1772796819813657000,5.220656982421875,14.756749610656499,2.615145381499827,-1.020887281016633
1772796819823649300,5.230649169921875,16.43618504462242,2.03283313068673,-1.2327177946433425
1772796819833641000,5.240640869140625,17.279535565149782,1.2398368328683078,-1.5737898244068025
1772796819843633200,5.250633056640625,17.34272471951246,0.7481006327763199,-1.5816683026969431
1772796819853625000,5.260625,17.048834127640724,0.7038184234574437,-1.4518060973785816
1772796819863618000,5.2706181640625,17.06663048109412,0.9249728649422526,-1.24339963991642
1772796819873610000,5.28060986328125,17.377428953146932,1.6479589302062987,-0.8829333930488675
1772796819883602200,5.290602294921875,16.87789654622078,2.423433015337586,-0.6597622779794037
1772796819893594000,5.300593994140625,15.458871459329128,2.970068534222245,-0.43722040072418744
1772796819903586000,5.3105859375,13.267981709975004,3.4753389002785084,-0.09177242089882492
1772796819913579000,5.3205791015625,10.637108305728434,3.8071699312269685,0.2750339887756854
1772796819923571200,5.3305712890625,8.605306710046529,3.9264135657668113,0.535300616530329
1772796819933563000,5.34056298828125,7.481130246403813,3.976744992122054,0.7440410551872104
1772796819943555000,5.35055517578125,6.950547452175617,3.870219092597067,1.1349529283966868
1772796819953547000,5.360547119140625,6.743153825017809,3.8032010275959967,1.089815855814144
1772796819963540000,5.3705400390625,6.2388464587748045,3.643115971840918,0.6651889792032539
1772796819973532200,5.3805322265625,5.389802110520005,3.130130501362681,0.3537297051541507
1772796819983524000,5.390524169921875,4.978108730566501,2.2941062320701775,0.06186360484734177
1772796819993516000,5.40051611328125,4.590437446713447,1.7354310235626995,0.033002032826468346
1772796820003508000,5.410508056640625,3.595024141106009,1.5783147544853389,-0.27379882095754143
1772796820013500000,5.4205,1.7328420299828051,1.0849841248087584,-1.547756242353469
1772796820023493000,5.4304931640625,-0.48335517910718917,-0.5629739286147057,-2.842121661005914
1772796820033485000,5.440485107421875,-2.076454391878843,-2.4260811917588114,-3.3658892222613095
1772796820043477000,5.45047705078125,-2.7524790917426345,-3.617119653058052,-2.5925480575054882
1772796820053469200,5.46046923828125,-3.708119189888239,-4.008169473433495,-0.09837013866342603
1772796820063461000,5.470461181640625,-6.515884115523099,-4.1283161942929025,1.009176311891526
1772796820073454000,5.4804541015625,-11.202888085544108,-4.285836075735092,-0.4473035494517535
1772796820083446000,5.490446044921875,-15.497143614578246,-3.257383839356899,-2.1846720438830554
1772796820093438200,5.500438232421875,-16.463447145557403,-2.0304637712068856,-3.0696476833492516
1772796820103430100,5.51043017578125,-13.186055121916532,-3.0697716019898653,-1.3001878411956131
1772796820113422000,5.520422119140625,-7.809578356915712,-4.206324147602915,2.9473624891564247
1772796820123415000,5.5304150390625,-4.990304779794812,-3.3450349425420165,6.037345396786928
1772796820133407200,5.5404072265625,-11.686266645526885,-1.1181821916639805,6.375757851952314
1772796820143399000,5.55039892578125,-26.016503492760656,1.8174309691183268,4.800974924854934
1772796820153391000,5.56039111328125,-39.579782154273985,4.402937729810178,4.591700013995171
1772796820163383000,5.570383056640625,-43.82024997901916,3.5520576905608174,5.02458640410304
1772796820173376000,5.5803759765625,-38.177149399256706,0.8105855113271624,5.3607332524240014
1772796820183368200,5.5903681640625,-26.557155845582482,-1.4008929256126283,4.21937067618072
1772796820193360100,5.600360107421875,-12.938918097913264,-2.5553514225333926,2.5106015957027674
1772796820203352300,5.610352294921875,-4.415249806633591,-2.49358733253777,1.1111743587285279
1772796820213344000,5.620343994140625,0.14446750764548777,-2.033910989051312,-0.4658880576081574
1772796820223336200,5.630336181640625,3.325206498739123,-1.2970005894616246,-1.9348677003666757
1772796820233329200,5.6403291015625,6.041380351391434,-0.4281624303258955,-3.1822832979261872
1772796820243321000,5.650321044921875,8.58639684239328,0.43806846892088647,-3.587691898521781
1772796820253313000,5.66031298828125,10.65826566004753,0.9731121880806982,-3.511019577729702
1772796820263305200,5.67030517578125,12.093093880748748,1.3543871950253843,-3.3879449867248534
1772796820273297200,5.680297119140625,13.723524168527126,1.5469883267208933,-3.4050442978247997
1772796820283290000,5.6902900390625,15.601921501392125,1.8378487571164965,-3.1289088506132363
1772796820293282000,5.700281982421875,16.927499073779583,2.181792250663042,-2.532292618507147
1772796820303274200,5.710274169921875,17.917417289102076,2.4262433965831995,-2.094997325915843
1772796820313266000,5.720265869140625,18.365481374597547,2.9748136829227207,-1.651096205318719
1772796820323258000,5.730258056640625,18.08809066662788,3.5858091535151004,-1.3765833908729255
1772796820333251300,5.740251220703125,17.25411821529865,4.158696427248418,-0.9964655180741101
1772796820343243000,5.750242919921875,16.04347635112405,4.662830775012075,-0.7129047431673854
1772796820353235000,5.76023486328125,14.119170669043063,4.897509883980453,-0.43488618562296033
1772796820363227100,5.77022705078125,11.833472638225555,4.712583816957474,-0.025517083898559213
1772796820373219000,5.780218994140625,9.861155497169493,4.680319962212443,0.25646657788455485
1772796820383211000,5.7902109375,8.154354501894115,4.726993450582027,-0.07576638492830097
1772796820393204200,5.800204345703125,6.514584723362327,4.262329527941346,-0.46656551847830413
1772796820403196200,5.810196044921875,5.828261332324147,3.7294843417391177,-0.34774266663379966
1772796820413188000,5.82018798828125,5.936960776495933,3.436240231077373,0.16011238215342163
1772796820423180000,5.830179931640625,5.807076505476236,3.1654388383701444,0.6609124709278345
1772796820433172200,5.840172119140625,5.077309109508991,2.8164284168228506,0.28085692277550695
1772796820443165200,5.850165283203125,3.8465737208545208,2.4461948822438715,-0.4900537999629974
1772796820453157000,5.8601572265625,2.7052894705444572,2.1279285585284233,-0.9063723554991185
1772796820463149000,5.870149169921875,2.39474234290421,1.9673601031705736,-1.1416276569202541
1772796820473141200,5.880141357421875,2.997527619034052,1.6922142515182494,-1.0397183112800121
1772796820483133200,5.89013330078125,3.7325101193010806,0.7724401242628693,-0.951366147153452
1772796820493126100,5.900126220703125,3.862452842509746,-0.7670552163541317,-1.0736707036338746
1772796820503118000,5.9101181640625,3.3595009825289246,-2.2420734086245298,-1.6008140249326823
1772796820513110300,5.9201103515625,2.5216315237611533,-2.792461850301921,-1.8851487068213522
1772796820523102000,5.93010205078125,0.9268214154183864,-3.1209687052637336,-1.2494028258539736
1772796820533094100,5.94009423828125,-1.7223767500698566,-4.171959228925407,0.053365679484605785
1772796820543087000,5.950087158203125,-3.634174248233437,-5.02604186360836,1.2212351543813944
1772796820553079000,5.9600791015625,-4.701895834204555,-3.99284740113914,1.5667350835897027
1772796820563071000,5.970071044921875,-6.788710292056202,-3.1994539206966754,0.7862279727272689
1772796820573063200,5.980063232421875,-8.231319668152928,-4.363862149223685,0.5392733195535838
1772796820583055000,5.99005517578125,-8.818329283002019,-3.528535652936995,2.0236027993962167
1772796820593047000,6.000047119140625,-10.860696111840008,-2.4883643371924755,5.069559518295526
1772796820603040300,6.010040283203125,-16.037226643079517,-0.9621487493872642,5.746516530573368
1772796820613032200,6.0200322265625,-24.846826091659068,1.420736128593236,5.26825019903779
1772796820623024000,6.030024169921875,-34.66223222956657,2.606666014707088,5.694287161642313
1772796820633016000,6.04001611328125,-39.71432506475448,1.929359750600159,6.361062387123703
1772796820643008300,6.05000830078125,-38.08892634140253,0.7414496504545212,7.405141816222668
1772796820653001000,6.0600009765625,-32.10188840557337,-0.8914498039163649,5.707654592737555
