time,seconds_elapsed,z,y,x
1772796814657683500,0.064683349609375,0.16825073957443237,0.6638005375862122,1.504079818725586
1772796814667676400,0.074676513671875,0.1445198506116867,0.07768010348081589,0.7858745455741882
1772796814677668600,0.084668701171875,0.019834835082292557,-0.6047168970108032,-0.1450069099664688
1772796814687660500,0.09466064453125,-0.20428934693336487,-0.7903655767440796,-1.7990986108779907
1772796814697652200,0.10465234375,-0.48252639174461365,-0.6634838581085205,-3.9064245223999023
1772796814707644400,0.11464453125,-0.6594537496566772,-0.13956332206726074,-4.857960224151611
1772796814717637600,0.1246376953125,-0.6365540623664856,-0.22234250605106354,-3.860982894897461
1772796814727629300,0.13462939453125,-0.49477219581604004,-0.8758436441421509,-1.5756828784942627
1772796814737621500,0.14462158203125,-0.18867361545562744,-0.9619578719139099,0.29659292101860046
1772796814747613400,0.154613525390625,0.0970793142914772,-0.6207842826843262,1.0856034755706787
1772796814757605600,0.164605712890625,0.21228516101837158,-0.0964333787560463,1.2745060920715332
1772796814767598300,0.174598388671875,0.19922208786010742,0.27137047052383423,1.1291859149932861
1772796814777590500,0.184590576171875,0.19090299308300018,0.439931720495224,0.8784543871879578
1772796814787582500,0.19458251953125,0.20633867383003235,0.4678429961204529,0.5562210083007812
1772796814797574400,0.204574462890625,0.17232075333595276,0.3307980000972748,0.2909461259841919
1772796814807566300,0.21456640625,0.04904969036579132,0.017497606575489044,0.3444437086582184
1772796814817559600,0.2245595703125,-0.0002749611157923937,-0.18810102343559265,0.6486888527870178
1772796814827551500,0.234551513671875,-0.043903931975364685,-0.23279525339603424,0.9277071952819824
1772796814837543400,0.24454345703125,-0.08694962412118912,-0.23718275129795074,1.0864111185073853
1772796814847535400,0.254535400390625,-0.13931429386138916,-0.22268237173557281,1.0988715887069702
1772796814857527600,0.264527587890625,-0.18956111371517181,-0.1818474978208542,0.9538994431495667
1772796814867520500,0.2745205078125,-0.23357197642326355,-0.0913439691066742,0.6778990030288696
1772796814877512400,0.284512451171875,-0.2789556086063385,0.013430161401629448,0.3686864674091339
1772796814887504400,0.29450439453125,-0.3390918970108032,0.042959026992321014,0.06447171419858932
1772796814897496600,0.30449658203125,-0.3666970431804657,-0.03993505984544754,-0.205160453915596
1772796814907488300,0.31448828125,-0.30604836344718933,-0.13292652368545532,-0.4262497127056122
1772796814917481500,0.3244814453125,-0.18571333587169647,-0.15529082715511322,-0.5792075991630554
1772796814927473700,0.3344736328125,-0.0973653644323349,-0.15997613966464996,-0.6555317044258118
1772796814937465300,0.34446533203125,-0.05178150534629822,-0.14731216430664062,-0.6616588830947876
1772796814947457500,0.35445751953125,-0.03326055407524109,-0.16120587289333344,-0.6345276236534119
1772796814957449500,0.364449462890625,-0.03848133608698845,-0.16020165383815765,-0.6442654132843018
1772796814967442400,0.3744423828125,-0.06436140090227127,-0.15920484066009521,-0.668156087398529
1772796814977434400,0.384434326171875,-0.09603270143270493,-0.16412854194641113,-0.7050145268440247
1772796814987426600,0.394426513671875,-0.09792327880859375,-0.16783326864242554,-0.7684712409973145
1772796814997418500,0.40441845703125,-0.10685794055461884,-0.18988342583179474,-0.8176193833351135
1772796815007410400,0.414410400390625,-0.14839206635951996,-0.2564406096935272,-0.8565617203712463
1772796815017403400,0.4244033203125,-0.1789974570274353,-0.25608158111572266,-0.8800293207168579
1772796815027395600,0.4343955078125,-0.16107411682605743,-0.21322278678417206,-0.8571237325668335
1772796815037387300,0.44438720703125,-0.11776109784841537,-0.22095610201358795,-0.7211993336677551
1772796815047379500,0.45437939453125,-0.052700597792863846,-0.2116139978170395,-0.48178890347480774
1772796815057371400,0.464371337890625,-0.004078809171915054,-0.10922454297542572,-0.20989373326301575
1772796815067364400,0.4743642578125,0.03618738800287247,0.1285821497440338,-0.03127285838127136
1772796815077356500,0.4843564453125,0.11539490520954132,0.5385806560516357,0.08986537158489227
1772796815087348500,0.494348388671875,0.22575071454048157,0.951005756855011,0.2844327390193939
1772796815097340400,0.50434033203125,0.3079797923564911,1.1168735027313232,0.6455557346343994
1772796815107332400,0.514332275390625,0.35087162256240845,0.9820235967636108,1.080143690109253
1772796815117325600,0.52432568359375,0.4482004642486572,0.5717704892158508,1.3969584703445435
1772796815127317500,0.5343173828125,0.5221700668334961,0.010945012792944908,1.710343360900879
1772796815137309400,0.544309326171875,0.6389904022216797,-0.29954779148101807,2.001286506652832
1772796815147301400,0.55430126953125,0.8878614902496338,-0.4942786693572998,1.89872407913208
1772796815157294000,0.564294189453125,0.926867663860321,-0.46819114685058594,0.6398791670799255
1772796815167286800,0.574286865234375,0.7003887295722961,0.24283847212791443,-1.5704220533370972
1772796815177279000,0.584279052734375,0.41555529832839966,1.080759882926941,-3.5273237228393555
1772796815187271000,0.59427099609375,0.2123664915561676,1.3447020053863525,-4.025426387786865
1772796815197263000,0.60426318359375,0.09271964430809021,0.9269468784332275,-2.93176007270813
1772796815207254800,0.6142548828125,0.04224183037877083,0.23964492976665497,-1.0133980512619019
1772796815217248000,0.624248046875,0.08830387145280838,-0.07920266687870026,0.7060054540634155
1772796815227240000,0.634239990234375,0.016435809433460236,-0.48462605476379395,1.136988878250122
1772796815237231900,0.64423193359375,-0.018852252513170242,-0.7138333320617676,0.9165472984313965
1772796815247223800,0.654223876953125,-0.024157002568244934,-0.7282732725143433,0.4206734001636505
1772796815257216000,0.664216064453125,0.06516965478658676,-0.4087711572647095,-0.1048000231385231
1772796815267209000,0.674208984375,0.16491329669952393,0.06086798757314682,-0.4575823247432709
1772796815277201000,0.684200927734375,0.23024964332580566,0.24355189502239227,-0.5131299495697021
1772796815287193000,0.694193115234375,0.24660970270633698,0.03547433018684387,-0.23289139568805695
1772796815297185000,0.70418505859375,0.19999410212039948,-0.3939948081970215,0.23162841796875
1772796815307177000,0.714177001953125,0.07255305349826813,-0.7324170470237732,0.6577551960945129
1772796815317170000,0.724169921875,-0.0542641282081604,-0.8318803906440735,0.9259249567985535
1772796815327162000,0.734162109375,-0.1615208089351654,-0.6883756518363953,1.0082733631134033
1772796815337153800,0.74415380859375,-0.26102113723754883,-0.41719621419906616,0.9248030185699463
1772796815347146000,0.75414599609375,-0.36103641986846924,-0.124483123421669,0.7251181602478027
1772796815357138000,0.764137939453125,-0.4502904415130615,0.04591865465044975,0.47850874066352844
1772796815367131000,0.774130859375,-0.5229231119155884,0.048643600195646286,0.25703176856040955
1772796815377122800,0.784122802734375,-0.5170118808746338,-0.04637670889496803,0.09494408220052719
1772796815387115000,0.794114990234375,-0.4157928228378296,-0.14382363855838776,-0.05339718237519264
1772796815397107000,0.80410693359375,-0.23974788188934326,-0.17434953153133392,-0.2407817840576172
1772796815407099100,0.81409912109375,-0.03960387036204338,-0.00402253121137619,-0.4734019637107849
1772796815417091800,0.824091796875,0.08382263034582138,0.3790076673030853,-0.7291411757469177
1772796815427084000,0.834083984375,0.10547519475221634,0.7570620179176331,-0.9096630215644836
1772796815437076000,0.844075927734375,0.03776729851961136,0.8851257562637329,-0.9827799797058105
1772796815447068000,0.85406787109375,-0.03363524749875069,0.7627090215682983,-0.9871369004249573
1772796815457059800,0.864059814453125,-0.07324587553739548,0.519903838634491,-1.0019686222076416
1772796815467053000,0.874052978515625,-0.11280606687068939,0.2643093764781952,-1.076809048652649
1772796815477045000,0.884044921875,-0.14430838823318481,0.045776065438985825,-1.1504638195037842
1772796815487037000,0.894036865234375,-0.1536257266998291,-0.048584260046482086,-1.2047635316848755
1772796815497029000,0.904029052734375,-0.15019424259662628,0.0008575934916734695,-1.2345951795578003
1772796815507021000,0.91402099609375,-0.13915197551250458,0.10256131738424301,-1.1699550151824951
1772796815517014000,0.924013916015625,-0.09992247074842453,0.1990545094013214,-0.9972686767578125
1772796815527006000,0.934005859375,-0.03967830538749695,0.16354285180568695,-0.776358425617218
1772796815536998100,0.943998046875,0.03801550343632698,-0.08070261776447296,-0.4783218801021576
1772796815546989800,0.95398974609375,0.06255652755498886,-0.3662334382534027,-0.11095878481864929
1772796815556982000,0.96398193359375,0.04238634929060936,-0.6288663148880005,0.3523775637149811
1772796815566975000,0.97397509765625,0.053254179656505585,-0.6384222507476807,0.8977426290512085
1772796815576967000,0.983966796875,0.0102155189961195,-0.6081547737121582,1.2213314771652222
1772796815586958800,0.993958740234375,-0.03288614749908447,-0.5558897256851196,1.1093947887420654
1772796815596951000,1.003950927734375,0.04361775889992714,-0.2681021988391876,0.5253816843032837
1772796815606943000,1.01394287109375,0.2189786583185196,0.12789468467235565,-0.10865601897239685
1772796815616936000,1.02393603515625,0.28915032744407654,0.45645344257354736,-0.23663653433322906
1772796815626927900,1.033927978515625,0.3039758801460266,0.5870500802993774,-0.13034124672412872
1772796815636920000,1.043920166015625,0.3204103112220764,0.8705702424049377,-0.6310340166091919
1772796815646911700,1.053911865234375,0.20345547795295715,1.0051134824752808,-1.823801040649414
1772796815656904000,1.063904052734375,-0.09843097627162933,0.9078924059867859,-3.1951332092285156
1772796815666897200,1.073897216796875,-0.3167872726917267,0.5569788217544556,-3.9129629135131836
1772796815676888800,1.083888916015625,-0.323803573846817,-0.04145817458629608,-3.284224510192871
1772796815686881000,1.093881103515625,-0.13947954773902893,-0.5149016380310059,-1.6857740879058838
1772796815696873000,1.103873046875,0.1389348804950714,-0.6114762425422668,0.052953895181417465
1772796815706865200,1.113865234375,0.29371726512908936,-0.6858554482460022,1.6013996601104736
1772796815716857900,1.12385791015625,0.20071905851364136,-0.6128119826316833,2.115854501724243
1772796815726850000,1.13385009765625,0.15283596515655518,-0.35282936692237854,1.8022496700286865
1772796815736842000,1.143842041015625,0.12287875264883041,-0.09963230043649673,1.507432460784912
1772796815746834000,1.153833984375,0.05471354350447655,-0.06459708511829376,1.2746213674545288
1772796815756825900,1.163825927734375,0.08387485891580582,-0.11745493859052658,1.169223666191101
1772796815766819000,1.173819091796875,0.09554775804281235,-0.18561427295207977,1.2762789726257324
1772796815776811000,1.18381103515625,0.06988246738910675,-0.2501216530799866,1.5454330444335938
1772796815786803000,1.193802978515625,0.060925986617803574,-0.3788745701313019,1.949169635772705
1772796815796795000,1.203794921875,0.024657152593135834,-0.5402626991271973,2.385831356048584
1772796815806787000,1.213787109375,-0.08115635812282562,-0.7266125679016113,2.737116575241089
1772796815816779800,1.22377978515625,-0.22828127443790436,-0.8327116370201111,2.824439525604248
1772796815826772000,1.23377197265625,-0.37984418869018555,-0.761289119720459,2.5861587524414062
1772796815836764000,1.243763916015625,-0.4362432360649109,-0.47383004426956177,2.1295177936553955
1772796815846756000,1.253756103515625,-0.4338091015815735,-0.08932684361934662,1.6956580877304077
1772796815856747800,1.263747802734375,-0.44597145915031433,0.15108129382133484,1.3667283058166504
1772796815866741000,1.273740966796875,-0.43853163719177246,0.12746571004390717,1.0214353799819946
1772796815876733200,1.283733154296875,-0.4620995819568634,-0.12238449603319168,0.5902719497680664
1772796815886724900,1.293724853515625,-0.4843132793903351,-0.5342591404914856,0.12205366790294647
1772796815896717000,1.303717041015625,-0.4661951959133148,-0.8041881918907166,-0.3441709876060486
1772796815906709000,1.313708984375,-0.4298723340034485,-0.8119643330574036,-0.8240859508514404
1772796815916702000,1.323701904296875,-0.3632449209690094,-0.6095456480979919,-1.2200857400894165
1772796815926694000,1.33369384765625,-0.14721408486366272,-0.22491221129894257,-1.3510528802871704
1772796815936686000,1.34368603515625,0.07238095253705978,0.2249600887298584,-1.2593052387237549
1772796815946678000,1.353677978515625,0.1627659797668457,0.4799993336200714,-1.18092679977417
1772796815956670000,1.363669921875,0.17205257713794708,0.5133745074272156,-1.161289930343628
1772796815966663000,1.373662841796875,0.11359672248363495,0.44926151633262634,-1.1758776903152466
1772796815976655000,1.383655029296875,0.05517154186964035,0.33806902170181274,-1.181869387626648
1772796815986646800,1.393646728515625,0.05531056225299835,0.21652235090732574,-1.1682015657424927
1772796815996639000,1.403638916015625,0.08730962872505188,0.10353587567806244,-1.165513515472412
1772796816006631000,1.413630859375,0.12424074113368988,-0.04501631110906601,-1.1745152473449707
1772796816016623900,1.423623779296875,0.15294264256954193,-0.16979575157165527,-1.1759488582611084
1772796816026615800,1.43361572265625,0.13622306287288666,-0.1862599402666092,-1.136544108390808
1772796816036608000,1.44360791015625,0.12965483963489532,-0.12206369638442993,-1.0091341733932495
1772796816046600000,1.453599853515625,0.11062201857566833,0.07217129319906235,-0.7257509827613831
1772796816056592000,1.463591796875,0.0314599871635437,0.14384020864963531,-0.3876754939556122
1772796816066585000,1.473585205078125,-0.05533642694354057,-0.03217822313308716,-0.11713028699159622
1772796816076577000,1.483576904296875,-0.12078537046909332,-0.21773774921894073,0.02006465569138527
1772796816086569000,1.49356884765625,-0.08506572246551514,-0.08907485008239746,-0.1478697657585144
1772796816096561000,1.503560791015625,0.026460224762558937,0.3201757073402405,-0.6619187593460083
1772796816106552800,1.513552734375,0.17540788650512695,0.8878751397132874,-1.230600118637085
1772796816116545800,1.5235458984375,0.318301260471344,1.1003079414367676,-1.5628398656845093
1772796816126538000,1.5335380859375,0.317846417427063,0.642492949962616,-1.5534542798995972
1772796816136530000,1.543530029296875,0.18327558040618896,0.023174092173576355,-1.245490550994873
1772796816146522000,1.553522216796875,0.113486647605896,-0.07801670581102371,-1.0532931089401245
1772796816156514000,1.56351416015625,0.07411956042051315,0.20592419803142548,-1.2821789979934692
1772796816166506800,1.5735068359375,0.01933407038450241,0.5217239260673523,-1.760324478149414
1772796816176499000,1.5834990234375,0.013026119209825993,0.6887407898902893,-1.827430248260498
1772796816186491000,1.593490966796875,0.1309245228767395,0.5067206621170044,-0.9634572863578796
1772796816196482800,1.60348291015625,0.31561341881752014,0.108090840280056,0.5170015096664429
1772796816206474800,1.613474853515625,0.3202262818813324,0.019061893224716187,1.2748546600341797
1772796816216467000,1.623467041015625,0.2763664722442627,0.1147199347615242,1.3313181400299072
1772796816226459600,1.633459716796875,0.21369801461696625,0.1431925892829895,1.2014687061309814
1772796816236451800,1.643451904296875,0.19536232948303223,0.06871334463357925,1.1171637773513794
1772796816246443800,1.65344384765625,0.1812228113412857,0.05538182705640793,0.9767022132873535
1772796816256436000,1.66343603515625,0.1980823129415512,0.1333819478750229,0.8105011582374573
1772796816266427600,1.673427734375,0.23463259637355804,0.3318718671798706,0.7232552170753479
1772796816276420900,1.6834208984375,0.2013034075498581,0.29989442229270935,0.7983826994895935
1772796816286412800,1.693412841796875,0.1809006631374359,0.0654587373137474,1.0190354585647583
1772796816296404700,1.70340478515625,0.12021058797836304,-0.26996076107025146,1.2428957223892212
1772796816306396700,1.713396728515625,0.0699215829372406,-0.5517787933349609,1.490822196006775
1772796816316388900,1.723388916015625,0.02977031283080578,-0.6852743029594421,1.6381903886795044
1772796816326381800,1.7333818359375,0.04676634073257446,-0.602120041847229,1.5689657926559448
1772796816336373800,1.743373779296875,0.07342217862606049,-0.43713927268981934,1.4018300771713257
1772796816346366000,1.753365966796875,0.030427834019064903,-0.2634894549846649,1.2740225791931152
1772796816356358000,1.76335791015625,-0.037958744913339615,-0.19321665167808533,1.1395450830459595
1772796816366349800,1.773349853515625,-0.14733768999576569,-0.23177842795848846,1.0421067476272583
1772796816376342800,1.7833427734375,-0.263259619474411,-0.3731788098812103,0.9634642004966736
1772796816386335000,1.7933349609375,-0.34320610761642456,-0.500338077545166,0.8191056847572327
1772796816396326700,1.80332666015625,-0.39098018407821655,-0.49932703375816345,0.4964602589607239
1772796816406318800,1.81331884765625,-0.43122798204421997,-0.36375880241394043,-0.005447867326438427
1772796816416310800,1.823310791015625,-0.4345165193080902,-0.19164197146892548,-0.5588664412498474
1772796816426303700,1.8333037109375,-0.37187498807907104,-0.05146808922290802,-0.9953007102012634
1772796816436295700,1.843295654296875,-0.2728884518146515,0.032034046947956085,-1.164865255355835
1772796816446288000,1.853287841796875,-0.19275523722171783,0.07367390394210815,-1.1104739904403687
1772796816456279800,1.86327978515625,-0.14327678084373474,0.04295886680483818,-1.0209678411483765
1772796816466272000,1.87327197265625,-0.12417047470808029,0.02466721460223198,-0.9952877759933472
1772796816476264700,1.8832646484375,-0.0996554046869278,0.02604752779006958,-0.9883037805557251
1772796816486257000,1.8932568359375,-0.09539540857076645,0.06974227726459503,-0.9062224626541138
1772796816496248800,1.903248779296875,-0.10768046230077744,0.06979644298553467,-0.8372581005096436
1772796816506240800,1.91324072265625,-0.12357953190803528,-0.02176196686923504,-0.8449040651321411
1772796816516232700,1.923232666015625,-0.1525920033454895,-0.1203676387667656,-0.8703031539916992
1772796816526226000,1.933225830078125,-0.14966146647930145,-0.15671391785144806,-0.8863401412963867
1772796816536217900,1.9432177734375,-0.11752130091190338,-0.07592049241065979,-0.8764317035675049
1772796816546209800,1.953209716796875,-0.058517105877399445,0.07534199953079224,-0.827994167804718
1772796816556202000,1.963201904296875,-0.023142481222748756,0.12082692980766296,-0.7554588317871094
1772796816566194000,1.97319384765625,-0.01830405183136463,0.03510190173983574,-0.6579770445823669
1772796816576185900,1.983185791015625,-0.08017774671316147,-0.287602961063385,-0.46108478307724
1772796816586178800,1.9931787109375,-0.1742589771747589,-0.7838284373283386,-0.15939895808696747
1772796816596171000,2.0031708984375,-0.20882324874401093,-0.9862147569656372,0.037232525646686554
1772796816606162700,2.01316259765625,-0.13493144512176514,-0.7208510041236877,-0.07543808966875076
1772796816616155000,2.02315478515625,-0.038454849272966385,-0.08500570058822632,-0.3823900520801544
1772796816626146800,2.033146728515625,0.01801801472902298,0.6988555192947388,-0.6654444336891174
1772796816636139800,2.043139892578125,0.009234610013663769,0.9090611338615417,-0.5932499766349792
1772796816646131700,2.053131591796875,-0.06400498002767563,0.4197499752044678,-0.08845104277133942
1772796816656124000,2.0631240234375,-0.1431296020746231,-0.18033158779144287,0.5093187093734741
1772796816666115800,2.07311572265625,-0.02118292823433876,-0.2884005308151245,0.5995936989784241
1772796816676107800,2.083107666015625,0.2657072842121124,0.3601798713207245,0.05564083158969879
1772796816686100700,2.093100830078125,0.47161170840263367,1.080586552619934,-0.6563392877578735
1772796816696093000,2.103093017578125,0.602453351020813,1.3356261253356934,-1.0546386241912842
1772796816706084600,2.113084716796875,0.6433424949645996,1.0664809942245483,-0.937795102596283
1772796816716076800,2.123076904296875,0.6099795699119568,0.6426412463188171,-0.41292479634284973
1772796816726068700,2.13306884765625,0.5036760568618774,0.2378634214401245,0.39147236943244934
1772796816736061700,2.143061767578125,0.36010217666625977,0.0007094163447618484,1.1180164813995361
1772796816746054000,2.153053955078125,0.28524845838546753,-0.1129060909152031,1.53522789478302
1772796816756045800,2.1630458984375,0.2679412066936493,-0.11381152272224426,1.7577972412109375
1772796816766038000,2.1730380859375,0.34602484107017517,-0.01534540019929409,1.7421197891235352
1772796816776030000,2.183030029296875,0.43738433718681335,0.04959583654999733,1.295472264289856
1772796816786023000,2.19302294921875,0.48794764280319214,0.030928142368793488,0.7543789148330688
1772796816796014800,2.203014892578125,0.4455910921096802,-0.04981117695569992,0.4294319748878479
1772796816806006800,2.2130068359375,0.36183789372444153,-0.2807096540927887,0.3751157224178314
1772796816815998700,2.222998779296875,0.25744980573654175,-0.645351767539978,0.5375939607620239
1772796816825991000,2.232990966796875,0.12036413699388504,-0.9251509308815002,0.7981283664703369
1772796816835984000,2.24298388671875,-0.0083472253754735,-1.006841778755188,0.9047215580940247
1772796816845975800,2.252975830078125,-0.07546421140432358,-0.7988991737365723,0.9162580966949463
1772796816855967700,2.2629677734375,-0.0699024647474289,-0.40995514392852783,0.8875660300254822
1772796816865960000,2.2729599609375,0.02247992902994156,-0.055847927927970886,0.8706091046333313
1772796816875951900,2.282951904296875,0.1260593980550766,0.1806992143392563,0.9251998662948608
1772796816885944800,2.29294482421875,0.17057228088378906,0.26380184292793274,1.0591282844543457
1772796816895936800,2.302936767578125,0.11581294983625412,0.247042715549469,1.1379549503326416
1772796816905929000,2.312928955078125,0.013326521962881088,0.21040533483028412,0.9935551881790161
1772796816915920600,2.322920654296875,-0.11826028674840927,0.1674991399049759,0.6558314561843872
1772796816925912800,2.332912841796875,-0.29782313108444214,0.09876401722431183,0.21705643832683563
1772796816935904800,2.34290478515625,-0.46685490012168884,-0.09095142036676407,-0.21745453774929047
1772796816945897700,2.352897705078125,-0.5388707518577576,-0.2602842450141907,-0.5758976340293884
1772796816955890000,2.362889892578125,-0.5067076086997986,-0.25879326462745667,-0.8678495287895203
1772796816965881900,2.3728818359375,-0.41598036885261536,-0.13488490879535675,-1.093300223350525
1772796816975874000,2.3828740234375,-0.2746938169002533,0.13455520570278168,-1.2619349956512451
1772796816985865700,2.39286572265625,-0.10778259485960007,0.5149829387664795,-1.4086098670959473
1772796816995859000,2.40285888671875,0.004097271710634232,0.7842651009559631,-1.4763132333755493
1772796817005851000,2.412850830078125,0.037035517394542694,0.8385094404220581,-1.4120733737945557
1772796817015842800,2.4228427734375,-0.0043510738760232925,0.6806196570396423,-1.2308545112609863
1772796817025834800,2.432834716796875,-0.05396336689591408,0.36011406779289246,-0.9913449883460999
1772796817035827000,2.442826904296875,-0.03983713686466217,0.1219649463891983,-0.8785731196403503
1772796817045819600,2.452819580078125,0.008185779675841331,0.09806014597415924,-0.904744565486908
1772796817055811800,2.462811767578125,0.03257288783788681,0.1501738578081131,-0.9717385768890381
1772796817065803800,2.4728037109375,-0.003165401052683592,0.21989302337169647,-0.9458052515983582
1772796817075796000,2.4827958984375,-0.07288804650306702,0.26438108086586,-0.7747664451599121
1772796817085787600,2.49278759765625,-0.11073076725006104,0.20938917994499207,-0.4990278482437134
1772796817095780900,2.50278076171875,-0.08853913843631744,0.1320199817419052,-0.20677340030670166
1772796817105772800,2.512772705078125,-0.04742978885769844,0.07221736013889313,0.015214131213724613
1772796817115764700,2.5227646484375,-0.06100534275174141,-0.00804801844060421,0.15244080126285553
1772796817125756700,2.532756591796875,-0.1811160445213318,-0.16118884086608887,0.1959208995103836
1772796817135748900,2.542748779296875,-0.3633241057395935,-0.42791375517845154,0.08935508877038956
1772796817145741800,2.552741943359375,-0.5201067924499512,-0.6167172193527222,-0.22124406695365906
1772796817155744500,2.56274462890625,-0.5542615056037903,-0.6790373921394348,-0.540614902973175
1772796817165736400,2.572736328125,-0.4115334153175354,-0.5629643201828003,-0.6662548780441284
1772796817175728600,2.582728759765625,-0.1612301617860794,-0.2548631727695465,-0.6161656379699707
1772796817185720300,2.59272021484375,0.06723124533891678,0.040766339749097824,-0.5060500502586365
1772796817195713500,2.602713623046875,0.19911231100559235,-0.0006087981164455414,-0.2954648435115814
1772796817205705500,2.61270556640625,0.25859534740448,-0.24159663915634155,-0.07067807763814926
1772796817215697400,2.622697509765625,0.2957764267921448,-0.24883203208446503,-0.3315697908401489
1772796817225689300,2.632689453125,0.298560231924057,0.16018237173557281,-1.1672813892364502
1772796817235681500,2.642681640625,0.19947555661201477,0.6891017556190491,-1.8774770498275757
1772796817245673500,2.652673583984375,0.08449865132570267,0.8183473348617554,-1.7594940662384033
1772796817255666400,2.66266650390625,0.1426815390586853,0.7912876605987549,-0.7158803939819336
1772796817265658400,2.672658447265625,0.28265541791915894,0.7990031242370605,0.5609703660011292
1772796817275650600,2.682650634765625,0.3934122920036316,0.8048624396324158,1.509355068206787
1772796817285642500,2.692642578125,0.46486303210258484,0.7766517996788025,2.0480434894561768
1772796817295634400,2.702634521484375,0.48060983419418335,0.6643054485321045,2.2710931301116943
1772796817305627400,2.71262744140625,0.5116692185401917,0.4968123137950897,2.201606512069702
1772796817315619600,2.72261962890625,0.5539883971214294,0.41961485147476196,1.8883265256881714
1772796817325611300,2.732611328125,0.5922449827194214,0.39724454283714294,1.4554115533828735
1772796817335603500,2.742603515625,0.5660378336906433,0.15081678330898285,1.1202950477600098
1772796817345595400,2.752595458984375,0.4951969385147095,-0.41328495740890503,0.996758759021759
1772796817355588400,2.76258837890625,0.4466950297355652,-1.1908777952194214,0.9990202784538269
1772796817365580500,2.77258056640625,0.3028699457645416,-1.6908529996871948,0.9132127165794373
1772796817375572500,2.782572509765625,0.10249810665845871,-1.6280639171600342,0.6891443133354187
1772796817385564700,2.792564697265625,-0.08936719596385956,-1.206679105758667,0.46665158867836
1772796817395556400,2.802556396484375,-0.22729350626468658,-0.5005864500999451,0.4701596200466156
1772796817405549600,2.812549560546875,-0.26141396164894104,0.053159307688474655,0.7277597188949585
1772796817415541500,2.82254150390625,-0.2550412714481354,0.2361563891172409,1.0914925336837769
1772796817425533400,2.832533447265625,-0.25670281052589417,0.14589360356330872,1.4336833953857422
1772796817435525400,2.842525390625,-0.2786176800727844,0.05767016485333443,1.579695463180542
1772796817445517600,2.852517578125,-0.3072618246078491,0.02791387215256691,1.3861802816390991
1772796817455509500,2.862509521484375,-0.3126843273639679,0.006595798302441835,0.9000207185745239
1772796817465502500,2.87250244140625,-0.2615545690059662,0.013105630874633789,0.28245842456817627
1772796817475494400,2.882494384765625,-0.1455344259738922,0.07217619568109512,-0.28287890553474426
1772796817485486600,2.892486572265625,0.007802661508321762,0.1337870955467224,-0.6685323715209961
1772796817495478300,2.902478271484375,0.17470720410346985,0.2659943699836731,-0.7965385317802429
1772796817505470500,2.912470458984375,0.28470826148986816,0.3839266002178192,-0.6620457172393799
1772796817515463400,2.92246337890625,0.3066336512565613,0.28347906470298767,-0.43410006165504456
1772796817525455400,2.932455322265625,0.20107315480709076,0.008260274305939674,-0.3107762634754181
1772796817535447300,2.942447265625,0.04856862500309944,-0.22946764528751373,-0.3307718336582184
1772796817545439500,2.952439453125,-0.06397097557783127,-0.37664324045181274,-0.47727978229522705
1772796817555431400,2.962431396484375,-0.1090104803442955,-0.41008394956588745,-0.6696635484695435
1772796817565424400,2.97242431640625,-0.08699945360422134,-0.28309962153434753,-0.7936712503433228
1772796817575416600,2.98241650390625,-0.027631884440779686,-0.06240265816450119,-0.7649979591369629
1772796817585408500,2.992408447265625,0.00016113161109387875,0.05040884390473366,-0.6024143695831299
1772796817595400400,3.002400390625,-0.0030689830891788006,0.023651959374547005,-0.4396156966686249
1772796817605392400,3.012392333984375,-0.04846895486116409,0.04028553143143654,-0.32944896817207336
1772796817615385600,3.022385498046875,-0.11048547178506851,0.05490335822105408,-0.200515016913414
1772796817625377500,3.03237744140625,-0.12856248021125793,0.019496101886034012,0.05584140121936798
1772796817635369500,3.042369384765625,-0.17809975147247314,-0.08681324124336243,0.4352973699569702
1772796817645361400,3.052361328125,-0.3076247274875641,-0.2629390060901642,0.7176910042762756
1772796817655353600,3.062353515625,-0.4275079369544983,-0.468021959066391,0.6925216317176819
1772796817665346300,3.07234619140625,-0.5536717176437378,-0.5181325078010559,0.38880088925361633
1772796817675338500,3.08233837890625,-0.6272516846656799,0.03742923587560654,-0.05575072392821312
1772796817685330400,3.092330322265625,-0.48949095606803894,1.0001888275146484,-0.4714723229408264
1772796817695322600,3.102322509765625,-0.13772283494472504,1.6730518341064453,-0.5813305974006653
1772796817705314300,3.112314208984375,0.13850955665111542,1.41231369972229,-0.23414970934391022
1772796817715307500,3.1223076171875,0.11540938168764114,0.5796872973442078,0.28297391533851624
1772796817725299500,3.132299560546875,0.036042653024196625,0.0983307808637619,0.3900236487388611
1772796817735291400,3.14229150390625,-0.06795834749937057,0.1773974746465683,-0.16449220478534698
1772796817745283300,3.152283447265625,-0.19494105875492096,0.5715301632881165,-0.8857148289680481
1772796817755275500,3.162275634765625,-0.28388863801956177,0.804267168045044,-1.2041386365890503
1772796817765267500,3.172267333984375,-0.2702239453792572,0.6176610589027405,-0.9570310711860657
1772796817775260400,3.182260498046875,-0.144487664103508,0.2603202760219574,-0.10959191620349884
1772796817785252600,3.192252685546875,0.04369262978434563,0.018096977844834328,0.8352236151695251
1772796817795244500,3.20224462890625,0.1979847252368927,-0.09324339777231216,1.464203119277954
1772796817805236200,3.212236328125,0.2881236970424652,-0.16851072013378143,1.8010679483413696
1772796817815228400,3.222228515625,0.2060740739107132,-0.08035891503095627,1.4952609539031982
1772796817825221600,3.2322216796875,0.13802498579025269,0.06718260794878006,0.7545669674873352
1772796817835213300,3.24221337890625,0.05722992122173309,0.13747386634349823,0.1425139158964157
1772796817845205500,3.25220556640625,0.051892947405576706,0.13083994388580322,-0.03010712005198002
1772796817855197400,3.262197509765625,0.1363968849182129,0.07930297404527664,0.2561781406402588
1772796817865189600,3.272189697265625,0.2002917230129242,-0.2447054535150528,0.7679651975631714
1772796817875182300,3.282182373046875,0.2044902890920639,-0.6883570551872253,1.243577241897583
1772796817885174500,3.292174560546875,0.1632501780986786,-1.0401051044464111,1.4956380128860474
1772796817895166500,3.30216650390625,0.10363743454217911,-1.217682957649231,1.3516645431518555
1772796817905158400,3.312158447265625,0.04830307140946388,-1.060099720954895,0.9536431431770325
1772796817915150300,3.322150390625,-0.023554816842079163,-0.629757821559906,0.4988503158092499
1772796817925143600,3.3321435546875,-0.105606809258461,-0.10723069310188293,0.1273220181465149
1772796817935135500,3.342135498046875,-0.19468867778778076,0.16174478828907013,-0.0660540759563446
1772796817945127400,3.35212744140625,-0.3114815950393677,0.12720972299575806,-0.169194296002388
1772796817955119400,3.362119384765625,-0.4372209310531616,-0.07502848654985428,-0.3776736855506897
1772796817965111600,3.372111572265625,-0.4911174476146698,-0.2334117442369461,-0.7378113269805908
1772796817975104500,3.3821044921875,-0.4544999897480011,-0.18256278336048126,-1.1892664432525635
1772796817985096400,3.392096435546875,-0.37290820479393005,0.05112374573945999,-1.5991389751434326
1772796817995088600,3.402088623046875,-0.27395132184028625,0.17262642085552216,-1.851189136505127
1772796818005080600,3.41208056640625,-0.17607375979423523,0.11095640063285828,-1.9255530834197998
1772796818015072300,3.422072265625,-0.0892939642071724,0.03457656502723694,-1.9128090143203735
1772796818025064400,3.432064453125,-0.07702744007110596,0.018424494192004204,-1.8605047464370728
1772796818035057700,3.4420576171875,-0.11812037974596024,-0.003849863074719906,-1.84691321849823
1772796818045049300,3.45204931640625,-0.1599368005990982,-0.026854781433939934,-1.8386590480804443
1772796818055041500,3.46204150390625,-0.16887982189655304,0.03935779258608818,-1.7863112688064575
1772796818065033500,3.472033447265625,-0.16644543409347534,0.049372874200344086,-1.6536821126937866
1772796818075025700,3.482025634765625,-0.17718720436096191,-0.01745920442044735,-1.4827988147735596
1772796818085018400,3.492018310546875,-0.21438650786876678,-0.11043468117713928,-1.3313770294189453
1772796818095010600,3.502010498046875,-0.2851664125919342,-0.2155941277742386,-1.2339229583740234
1772796818105002500,3.51200244140625,-0.3238251209259033,-0.23369430005550385,-1.1716738939285278
1772796818114994400,3.521994384765625,-0.32294073700904846,-0.2384915053844452,-1.0239611864089966
1772796818124986400,3.531986328125,-0.340608149766922,-0.3872860372066498,-0.7023538947105408
1772796818134979600,3.5419794921875,-0.38202574849128723,-0.5248497724533081,-0.23260249197483063
1772796818144971300,3.55197119140625,-0.4640471339225769,-0.491538941860199,0.17663908004760742
1772796818154963500,3.56196337890625,-0.5332639813423157,-0.39058780670166016,0.1679793894290924
1772796818164945200,3.571945068359375,-0.42193904519081116,0.22515952587127686,-0.4674234092235565
1772796818174937000,3.58193701171875,-0.10123469680547714,1.0849964618682861,-1.3582710027694702
1772796818184930000,3.591929931640625,0.22437456250190735,1.0670993328094482,-1.6532176733016968
1772796818194922000,3.601921875,0.4311310648918152,0.08032695949077606,-1.0043953657150269
1772796818204914200,3.6119140625,0.26849421858787537,-0.824189305305481,-0.15532341599464417
1772796818214905900,3.62190576171875,0.018767008557915688,-0.9054895639419556,0.19708499312400818
1772796818224898000,3.63189794921875,-0.14714287221431732,-0.5592395067214966,0.2068750411272049
1772796818234891300,3.641891357421875,-0.29357245564460754,-0.10082072764635086,-0.01883118785917759
1772796818244883000,3.651883056640625,-0.24894826114177704,0.3452922999858856,-0.08150362968444824
1772796818254875100,3.661875244140625,-0.07166678458452225,0.804739773273468,0.30297207832336426
1772796818264867000,3.6718671875,0.17129844427108765,1.1265158653259277,1.0720252990722656
1772796818274859300,3.681859375,0.25775787234306335,1.2538331747055054,1.5691012144088745
1772796818284851200,3.691851318359375,0.20938794314861298,1.1942830085754395,1.392744779586792
1772796818294844200,3.70184423828125,0.11964282393455505,0.9900457262992859,1.075175404548645
1772796818304836000,3.711836181640625,-0.03360585495829582,0.6257401704788208,0.9151871204376221
1772796818314828000,3.721828125,-0.17595574259757996,-0.02088908851146698,0.9650591611862183
1772796818324820000,3.731820068359375,-0.27240291237831116,-0.5194016695022583,1.1781890392303467
1772796818334812200,3.741812255859375,-0.3533472716808319,-0.8251989483833313,1.3609917163848877
1772796818344805000,3.75180517578125,-0.35941582918167114,-0.9967981576919556,1.4998213052749634
1772796818354797000,3.761797119140625,-0.3060702681541443,-1.040529727935791,1.6336097717285156
1772796818364789000,3.7717890625,-0.22093594074249268,-0.9946481585502625,1.7231329679489136
1772796818374781200,3.78178125,-0.12547165155410767,-0.9352970123291016,1.7647079229354858
1772796818384773000,3.791773193359375,-0.08997545391321182,-0.8714791536331177,1.7543481588363647
1772796818394766000,3.80176611328125,-0.10775620490312576,-0.7730799913406372,1.7195323705673218
1772796818404758000,3.811758056640625,-0.16613827645778656,-0.5955299735069275,1.6624560356140137
1772796818414750200,3.821750244140625,-0.21859583258628845,-0.40886369347572327,1.638800859451294
1772796818424742000,3.831741943359375,-0.2945385277271271,-0.32586759328842163,1.608996868133545
1772796818434734000,3.841734130859375,-0.40509364008903503,-0.3703615069389343,1.4235516786575317
1772796818444726000,3.85172607421875,-0.5000742077827454,-0.39565035700798035,1.0852526426315308
1772796818454719000,3.861718994140625,-0.5425516366958618,-0.32284605503082275,0.6302046179771423
1772796818464711200,3.871711181640625,-0.49583712220191956,-0.13497363030910492,0.13930678367614746
1772796818474703000,3.881703125,-0.40494370460510254,0.08990021795034409,-0.2506873309612274
1772796818484695300,3.8916953125,-0.319620281457901,0.213348388671875,-0.5070953965187073
1772796818494687000,3.90168701171875,-0.24342696368694305,0.22787901759147644,-0.6361549496650696
1772796818504680200,3.91168017578125,-0.16442827880382538,0.26411905884742737,-0.6439409852027893
1772796818514672000,3.921672119140625,-0.0887070968747139,0.3496941030025482,-0.5986267924308777
1772796818524664000,3.9316640625,-0.04539930820465088,0.4160909652709961,-0.5413959622383118
1772796818534656000,3.941656005859375,-0.019001265987753868,0.41996249556541443,-0.49790799617767334
1772796818544648200,3.951648193359375,-0.017017478123307228,0.32103431224823,-0.49138832092285156
1772796818554641000,3.961640869140625,-0.033358536660671234,0.14350953698158264,-0.529045581817627
1772796818564633000,3.971633056640625,-0.052804406732320786,-0.0513124018907547,-0.5345679521560669
1772796818574625000,3.981625,-0.06281855702400208,-0.19065123796463013,-0.4744686782360077
1772796818584617200,3.9916171875,-0.05271585285663605,-0.21489372849464417,-0.36758244037628174
1772796818594609000,4.00160888671875,-0.02526409924030304,-0.17605029046535492,-0.2447320967912674
1772796818604602000,4.01160205078125,0.005311119835823774,-0.1386893391609192,-0.1097327321767807
1772796818614594000,4.021593994140625,0.027992431074380875,-0.07067608088254929,-0.01332650426775217
1772796818624586000,4.0315859375,-0.024831902235746384,-0.012813050299882889,0.0216599740087986
1772796818634578000,4.041577880859375,-0.11961625516414642,-0.008994560688734055,0.04476452246308327
1772796818644570000,4.051570068359375,-0.1994389295578003,0.08322964608669281,0.13808195292949677
1772796818654563000,4.06156298828125,-0.21634337306022644,0.25716638565063477,0.2789139747619629
1772796818664555000,4.071554931640625,-0.16715770959854126,0.2762037217617035,0.31580835580825806
1772796818674547200,4.081547119140625,-0.028107237070798874,0.1284077763557434,0.22933585941791534
1772796818684539100,4.0915390625,0.13150452077388763,0.07163770496845245,0.014582544565200806
1772796818694531300,4.10153125,0.23317471146583557,0.1839204579591751,-0.32773205637931824
1772796818704523000,4.11152294921875,0.44508084654808044,0.49050942063331604,-0.8055739402770996
1772796818714516200,4.12151611328125,0.6425431966781616,0.8153762221336365,-1.6730122566223145
1772796818724508200,4.131508056640625,0.6069713234901428,1.0784357786178589,-3.1026816368103027
1772796818734500000,4.1415,0.3510899841785431,1.4590650796890259,-4.474257469177246
1772796818744492000,4.151491943359375,0.06643560528755188,1.8855684995651245,-5.122595310211182
1772796818754484200,4.161484130859375,-0.14639872312545776,1.7508156299591064,-4.778658866882324
1772796818764477000,4.171476806640625,-0.306052029132843,0.9873741865158081,-3.4103000164031982
1772796818774469000,4.18146923828125,-0.10525286197662354,-0.058688826858997345,-1.395182728767395
1772796818784461000,4.1914609375,0.0003228303976356983,-0.9421078562736511,0.09987484663724899
1772796818794453200,4.201453369140625,-0.09935470670461655,-1.4283500909805298,0.797641932964325
1772796818804445000,4.21144482421875,-0.11158926784992218,-1.568578839302063,1.1420022249221802
1772796818814438100,4.221438232421875,0.00866098701953888,-1.4558547735214233,1.4299944639205933
1772796818824430000,4.23143017578125,0.24125587940216064,-1.166517972946167,1.7009378671646118
1772796818834422000,4.241422119140625,0.4583514928817749,-0.5802070498466492,1.8315715789794922
1772796818844414000,4.2514140625,0.5598027110099792,-0.020740004256367683,1.9016077518463135
1772796818854406100,4.26140625,0.518127977848053,0.20555928349494934,2.0164341926574707
1772796818864399000,4.271399169921875,0.3748409152030945,0.131556436419487,2.222459077835083
1772796818874391000,4.28139111328125,0.14090046286582947,-0.008356147445738316,2.421097755432129
1772796818884383200,4.29138330078125,-0.06267502158880234,-0.15252956748008728,2.591089963912964
1772796818894375200,4.301375244140625,-0.1914495825767517,-0.2821735143661499,2.7164223194122314
1772796818904366800,4.311366943359375,-0.2720626890659332,-0.3109303414821625,2.787712574005127
1772796818914360000,4.321360107421875,-0.28912293910980225,-0.18673455715179443,2.686471939086914
1772796818924352300,4.331352294921875,-0.2680719792842865,0.03958645835518837,2.363276958465576
1772796818934344000,4.341343994140625,-0.2125311940908432,0.2534525990486145,1.8806893825531006
1772796818944336100,4.351336181640625,-0.17429059743881226,0.32621124386787415,1.2756154537200928
1772796818954328000,4.361328125,-0.18171198666095734,0.35274219512939453,0.651677668094635
1772796818964320300,4.3713203125,-0.13183283805847168,0.4972168207168579,0.1717054396867752
1772796818974313000,4.38131298828125,-0.01801644079387188,0.694580078125,-0.05015169084072113
1772796818984305200,4.39130517578125,0.07189320772886276,0.7932975888252258,-0.09157183021306992
1772796818994297000,4.401297119140625,0.14365683495998383,0.7496644258499146,-0.10963492095470428
1772796819004289000,4.4112890625,0.25577884912490845,0.6386300921440125,-0.16267390549182892
1772796819014281000,4.421281005859375,0.3259725868701935,0.5654693245887756,-0.24891291558742523
1772796819024274200,4.431274169921875,0.33045893907546997,0.4121551215648651,-0.37557685375213623
1772796819034266000,4.44126611328125,0.3095245659351349,0.1527198702096939,-0.49256056547164917
1772796819044258000,4.451258056640625,0.31713372468948364,-0.04689336568117142,-0.5606213212013245
1772796819054250000,4.46125,0.38239338994026184,-0.14449386298656464,-0.5819513201713562
1772796819064242200,4.4712421875,0.41777002811431885,-0.2556786835193634,-0.5384035706520081
1772796819074235100,4.481235107421875,0.4329463541507721,-0.477061003446579,-0.4077894687652588
1772796819084227000,4.49122705078125,0.4360968768596649,-0.8522924184799194,-0.162144273519516
1772796819094219000,4.501218994140625,0.4429675340652466,-0.995418131351471,0.22923943400382996
1772796819104211200,4.511211181640625,0.3983401358127594,-0.7097951769828796,0.6918600797653198
1772796819114203000,4.521202880859375,0.28999629616737366,0.03689569979906082,1.1902388334274292
1772796819124196000,4.531196044921875,0.19087369740009308,0.8754830360412598,1.5901260375976562
1772796819134188300,4.541188232421875,0.1744028627872467,1.4903899431228638,1.7486423254013062
1772796819144180000,4.551179931640625,0.27509963512420654,1.7048815488815308,1.619757056236267
1772796819154172200,4.561172119140625,0.071347177028656,1.55523681640625,1.248842716217041
1772796819164164000,4.5711640625,-0.25185003876686096,0.7702266573905945,0.6653400659561157
1772796819174156300,4.58115625,-0.39131832122802734,-0.14944593608379364,-0.38416334986686707
1772796819184149000,4.59114892578125,-0.5511958599090576,-0.6257608532905579,-2.1509249210357666
1772796819194141200,4.60114111328125,-0.8431581258773804,-0.5983525514602661,-4.1575093269348145
1772796819204133000,4.611133056640625,-0.9884114265441895,-0.11844611167907715,-5.252354145050049
1772796819214125000,4.621125,-0.8379130363464355,0.13762986660003662,-4.741281986236572
1772796819224117000,4.631116943359375,-0.662596583366394,-0.3622763454914093,-2.937154769897461
1772796819234110200,4.641110107421875,-0.4261927306652069,-0.7380040287971497,-1.0475773811340332
1772796819244102000,4.651101806640625,-0.13412970304489136,-0.8007150888442993,0.27292653918266296
1772796819254094000,4.661093994140625,0.23162560164928436,-0.7816852331161499,1.158515214920044
1772796819264086000,4.6710859375,0.4105258584022522,-0.6448615789413452,1.283495545387268
1772796819274078200,4.681078125,0.43836304545402527,-0.5470572710037231,0.696121096611023
1772796819284071000,4.69107080078125,0.4294417202472687,-0.3569200932979584,0.11158362776041031
1772796819294063000,4.70106298828125,0.37330594658851624,-0.11342882364988327,-0.02643711119890213
1772796819304055000,4.711054931640625,0.2598710060119629,-0.025366608053445816,0.40615689754486084
1772796819314047000,4.721046875,0.09460777789354324,-0.21267348527908325,1.248956322669983
1772796819324039000,4.731038818359375,0.002770263934507966,-0.47124937176704407,2.1286442279815674
1772796819334032100,4.7410322265625,-0.050973083823919296,-0.5914652943611145,2.7264981269836426
1772796819344024000,4.751024169921875,-0.09272133558988571,-0.574531614780426,2.9841699600219727
1772796819354016000,4.76101611328125,-0.14976763725280762,-0.4796721637248993,2.905695676803589
1772796819364008200,4.77100830078125,-0.15978671610355377,-0.2841535210609436,2.5344486236572266
1772796819374000000,4.781000244140625,-0.09652362018823624,-0.04272114858031273,1.95928955078125
1772796819383993000,4.7909931640625,-0.03138350322842598,0.051404017955064774,1.207947850227356
1772796819393985000,4.800985107421875,-0.07266439497470856,0.0004043220542371273,0.36384063959121704
1772796819403977200,4.810977294921875,-0.1420847475528717,-0.1467110961675644,-0.3887889087200165
1772796819413969200,4.82096923828125,-0.21282845735549927,-0.2594589591026306,-0.9943883419036865
1772796819423961000,4.830961181640625,-0.20324081182479858,-0.21003971993923187,-1.3572946786880493
1772796819433953000,4.840953125,-0.158871129155159,-0.03200320526957512,-1.4519716501235962
1772796819443946200,4.8509462890625,-0.07546784728765488,0.06894897669553757,-1.3982537984848022
1772796819453938000,4.86093798828125,0.02994658797979355,0.10024628788232803,-1.3316712379455566
1772796819463930000,4.87093017578125,0.09033403545618057,0.07876762747764587,-1.3514734506607056
1772796819473922000,4.880922119140625,0.10019014030694962,-0.025603896006941795,-1.500974416732788
1772796819483914200,4.890914306640625,0.061305854469537735,-0.23862774670124054,-1.7289484739303589
1772796819493907000,4.900906982421875,0.029240915551781654,-0.4984695613384247,-1.9168778657913208
1772796819503899100,4.910899169921875,-0.015559578314423561,-0.7365561723709106,-1.9967617988586426
1772796819513891000,4.92089111328125,-0.05657745152711868,-0.9246942400932312,-1.923201084136963
1772796819523883000,4.930883056640625,-0.09232932329177856,-1.0486476421356201,-1.6510896682739258
1772796819533875000,4.940875,-0.12708227336406708,-0.987655758857727,-1.132596492767334
1772796819543868200,4.9508681640625,-0.07656396925449371,-0.8123819828033447,-0.47749409079551697
1772796819553860000,4.960860107421875,0.04894127696752548,-0.6416698694229126,0.08644860237836838
1772796819563852000,4.97085205078125,0.113739974796772,-0.3677060008049011,0.3851117193698883
1772796819573844200,4.98084423828125,0.09800920635461807,-0.04148464277386665,0.3184710443019867
1772796819583836200,4.990836181640625,0.09913305938243866,0.2695414125919342,0.09755995869636536
1772796819593828000,5.000828125,0.10779274255037308,0.4883731007575989,0.051670655608177185
1772796819603821000,5.010821044921875,0.17728394269943237,0.6161954998970032,0.2414965182542801
1772796819613813200,5.020813232421875,0.24630455672740936,0.5191935896873474,0.47325649857521057
1772796819623805000,5.030804931640625,0.28377386927604675,0.24925796687602997,0.31952551007270813
1772796819633797000,5.040797119140625,0.30268755555152893,0.2405213713645935,-0.47721683979034424
1772796819643789000,5.0507890625,0.2851296067237854,0.466396301984787,-2.0548524856567383
1772796819653782000,5.060781982421875,0.306167870759964,0.5334883332252502,-3.462980031967163
1772796819663774000,5.07077392578125,0.32983672618865967,0.5959791541099548,-3.6937777996063232
1772796819673766100,5.08076611328125,0.32289373874664307,0.37165695428848267,-2.506756067276001
1772796819683758000,5.090758056640625,0.3384074568748474,0.025977859273552895,-0.8037031292915344
1772796819693750000,5.10075,0.3889150321483612,-0.24250659346580505,0.6061132550239563
1772796819703743000,5.110742919921875,0.4732874631881714,-0.37763354182243347,1.4457831382751465
1772796819713735200,5.120735107421875,0.4849386215209961,-0.48995479941368103,1.4993559122085571
1772796819723727000,5.13072705078125,0.47767192125320435,-0.5129711627960205,1.1065212488174438
1772796819733719000,5.140718994140625,0.4727127254009247,-0.29253122210502625,0.65322345495224
1772796819743711000,5.1507109375,0.5287041068077087,0.12870098650455475,0.415985107421875
1772796819753704200,5.1607041015625,0.5863538384437561,0.5869092345237732,0.5492382049560547
1772796819763696000,5.170696044921875,0.625880777835846,0.7878404855728149,0.9764928817749023
1772796819773688000,5.18068798828125,0.6057025194168091,0.631593644618988,1.4624406099319458
1772796819783680300,5.19068017578125,0.4558514952659607,0.36083003878593445,1.811640977859497
1772796819793672200,5.200672119140625,0.2466253936290741,0.14680851995944977,1.9150131940841675
1772796819803664000,5.210663818359375,0.10582193732261658,0.022457532584667206,1.7821918725967407
1772796819813657000,5.220656982421875,-0.006295891012996435,-0.02066138945519924,1.4776206016540527
1772796819823649300,5.230649169921875,-0.061603620648384094,-0.025326447561383247,1.126574993133545
1772796819833641000,5.240640869140625,-0.06768764555454254,-0.03367779403924942,0.8623027205467224
1772796819843633200,5.250633056640625,-0.04463239759206772,-0.0391460619866848,0.6910699605941772
1772796819853625000,5.260625,-0.005313573405146599,-0.0026182071305811405,0.4611761271953583
1772796819863618000,5.2706181640625,0.05303841456770897,0.13852399587631226,0.09827596694231033
1772796819873610000,5.28060986328125,0.10660632699728012,0.4311465620994568,-0.3345387876033783
1772796819883602200,5.290602294921875,0.12569905817508698,0.7805482149124146,-0.7434394359588623
1772796819893594000,5.300593994140625,0.10149494558572769,0.9951497912406921,-0.9901996850967407
1772796819903586000,5.3105859375,0.0864318385720253,1.011623740196228,-1.0331664085388184
1772796819913579000,5.3205791015625,0.08594173192977905,0.8335630893707275,-0.95857173204422
1772796819923571200,5.3305712890625,0.11294432729482651,0.5537775158882141,-0.892364501953125
1772796819933563000,5.34056298828125,0.196415513753891,0.27676624059677124,-0.8302911520004272
1772796819943555000,5.35055517578125,0.28609079122543335,0.09780821204185486,-0.785487174987793
1772796819953547000,5.360547119140625,0.3575350344181061,0.06587547063827515,-0.7118281126022339
1772796819963540000,5.3705400390625,0.4025219678878784,0.07932949811220169,-0.557220995426178
1772796819973532200,5.3805322265625,0.4017673432826996,-0.08269578963518143,-0.44965672492980957
1772796819983524000,5.390524169921875,0.3824833929538727,-0.3439074158668518,-0.3820483982563019
1772796819993516000,5.40051611328125,0.3345373868942261,-0.47551900148391724,-0.2772061824798584
1772796820003508000,5.410508056640625,0.18710319697856903,-0.5710606575012207,-0.060073040425777435
1772796820013500000,5.4205,0.0349377878010273,-0.6441125273704529,0.25444668531417847
1772796820023493000,5.4304931640625,-0.07581855356693268,-0.6311528086662292,0.5433017015457153
1772796820033485000,5.440485107421875,-0.18434739112854004,-0.558678925037384,0.6208248734474182
1772796820043477000,5.45047705078125,-0.24660225212574005,-0.3229774832725525,0.4857192635536194
1772796820053469200,5.46046923828125,-0.3457511365413666,0.06083347275853157,0.38014623522758484
1772796820063461000,5.470461181640625,-0.43441978096961975,0.4027562141418457,0.5461631417274475
1772796820073454000,5.4804541015625,-0.39852669835090637,0.6661447286605835,0.9514752626419067
1772796820083446000,5.490446044921875,-0.3759225904941559,0.8296287059783936,1.2327492237091064
1772796820093438200,5.500438232421875,-0.35683831572532654,0.6013731360435486,0.9881962537765503
1772796820103430100,5.51043017578125,-0.3362851142883301,0.2805919349193573,-0.1975647360086441
1772796820113422000,5.520422119140625,-0.320121705532074,0.3418697714805603,-2.3759584426879883
1772796820123415000,5.5304150390625,-0.18620413541793823,0.8609353303909302,-4.332727909088135
1772796820133407200,5.5404072265625,-0.04538388177752495,1.393189787864685,-4.892516136169434
1772796820143399000,5.55039892578125,0.08110561221837997,1.16152024269104,-3.6268973350524902
1772796820153391000,5.56039111328125,0.10321379452943802,0.1926794946193695,-1.2818940877914429
1772796820163383000,5.570383056640625,0.170956090092659,-0.5850237607955933,0.8775572776794434
1772796820173376000,5.5803759765625,0.2684795558452606,-0.8656842112541199,2.1769111156463623
1772796820183368200,5.5903681640625,0.331551194190979,-0.7408405542373657,2.187251091003418
1772796820193360100,5.600360107421875,0.4524739384651184,-0.31790077686309814,1.8474879264831543
1772796820203352300,5.610352294921875,0.5275559425354004,0.011553004384040833,1.7005168199539185
1772796820213344000,5.620343994140625,0.5449388027191162,0.19984771311283112,1.7614930868148804
1772796820223336200,5.630336181640625,0.5134552121162415,0.36481136083602905,1.8326448202133179
1772796820233329200,5.6403291015625,0.4313376843929291,0.33318766951560974,1.8600852489471436
1772796820243321000,5.650321044921875,0.2972424626350403,0.13074544072151184,1.9083937406539917
1772796820253313000,5.66031298828125,0.15746237337589264,-0.017369508743286133,1.9730031490325928
1772796820263305200,5.67030517578125,0.029637828469276428,-0.12670505046844482,1.9429795742034912
1772796820273297200,5.680297119140625,-0.092056043446064,-0.20808428525924683,1.7710880041122437
1772796820283290000,5.6902900390625,-0.20671206712722778,-0.24252881109714508,1.4834296703338623
1772796820293282000,5.700281982421875,-0.3063820004463196,-0.2805166244506836,1.1144899129867554
1772796820303274200,5.710274169921875,-0.36578911542892456,-0.3018064796924591,0.7498824000358582
1772796820313266000,5.720265869140625,-0.37851712107658386,-0.19598980247974396,0.35582539439201355
1772796820323258000,5.730258056640625,-0.3059782087802887,-0.00745717016980052,-0.012750254943966866
1772796820333251300,5.740251220703125,-0.19810768961906433,0.15353433787822723,-0.35463443398475647
1772796820343243000,5.750242919921875,-0.08394064009189606,0.27598994970321655,-0.6298838257789612
1772796820353235000,5.76023486328125,-0.0003334095235913992,0.29239416122436523,-0.8080896139144897
1772796820363227100,5.77022705078125,0.04830975830554962,0.16297651827335358,-0.8873098492622375
1772796820373219000,5.780218994140625,0.028565771877765656,-0.06641097366809845,-0.8288116455078125
1772796820383211000,5.7902109375,-0.0035562110133469105,-0.30909767746925354,-0.6425834894180298
1772796820393204200,5.800204345703125,-0.0068962243385612965,-0.48703837394714355,-0.4598793089389801
1772796820403196200,5.810196044921875,0.04056556895375252,-0.5031384825706482,-0.3764533996582031
1772796820413188000,5.82018798828125,0.13772134482860565,-0.3670899569988251,-0.3663382828235626
1772796820423180000,5.830179931640625,0.2053011804819107,-0.24796995520591736,-0.32860103249549866
1772796820433172200,5.840172119140625,0.2315705269575119,-0.2139333188533783,-0.15702718496322632
1772796820443165200,5.850165283203125,0.2433033436536789,-0.19116489589214325,0.17675717175006866
1772796820453157000,5.8601572265625,0.24349069595336914,-0.10296259820461273,0.5379719734191895
1772796820463149000,5.870149169921875,0.251601904630661,-0.00409114733338356,0.8042539954185486
1772796820473141200,5.880141357421875,0.23172588646411896,0.05693087354302406,0.959723711013794
1772796820483133200,5.89013330078125,0.1474834382534027,0.08574787527322769,1.0736675262451172
1772796820493126100,5.900126220703125,0.0014746105298399925,0.18817055225372314,1.1335574388504028
1772796820503118000,5.9101181640625,-0.10309893637895584,0.5192859172821045,1.0104589462280273
1772796820513110300,5.9201103515625,-0.09853847324848175,1.1600723266601562,0.7287363409996033
1772796820523102000,5.93010205078125,0.07439975440502167,1.930646538734436,0.5092021226882935
1772796820533094100,5.94009423828125,0.2787224352359772,2.3739354610443115,0.30582159757614136
1772796820543087000,5.950087158203125,0.3808908760547638,2.038937568664551,-0.10005132853984833
1772796820553079000,5.9600791015625,0.2127484381198883,1.1000325679779053,-0.33867141604423523
1772796820563071000,5.970071044921875,0.04632217809557915,-0.028970343992114067,-1.038140058517456
1772796820573063200,5.980063232421875,-0.08949290215969086,-0.43630146980285645,-1.991833209991455
1772796820583055000,5.99005517578125,-0.10031705349683762,-0.10133572667837143,-3.2359237670898438
1772796820593047000,6.000047119140625,-0.22366870939731598,0.7419140934944153,-4.4427595138549805
1772796820603040300,6.010040283203125,-0.42771875858306885,1.2101439237594604,-4.870573043823242
1772796820613032200,6.0200322265625,-0.5535730123519897,0.8714258670806885,-4.1921772956848145
1772796820623024000,6.030024169921875,-0.43294215202331543,0.03722183778882027,-2.7797844409942627
1772796820633016000,6.04001611328125,-0.0044985562562942505,-0.8015922904014587,-1.0793696641921997
1772796820643008300,6.05000830078125,0.2914939522743225,-1.4063420295715332,0.3437274396419525
1772796820653001000,6.0600009765625,0.3257668614387512,-1.6252546310424805,0.996370792388916
