time,seconds_elapsed,z,y,x
1772796628255657500,0.069657470703125,-0.18476620028614996,0.6776403183668851,1.3018886537641285
1772796628265649400,0.0796494140625,-0.19764146395027637,0.7603418363206088,1.3706009554624556
1772796628275641300,0.089641357421875,-0.18998305815160274,0.8420385611459612,1.3882400725275277
1772796628285633300,0.09963330078125,-0.21870938642024992,0.9071329646080731,1.3488136326767504
1772796628295626500,0.10962646484375,-0.2333580894976854,0.9945565426476299,1.2988247361488638
1772796628305618200,0.1196181640625,-0.3138146050035953,1.0466377352796494,1.2744829065747558
1772796628315610400,0.1296103515625,-0.3829617909878492,1.089703262285143,1.2913009165152907
1772796628325602300,0.139602294921875,-0.317472542989254,1.1229651881568132,1.3289549398660658
1772796628335594500,0.149594482421875,-0.1922983493566513,1.2276542276434599,1.219173618741706
1772796628345586200,0.159586181640625,-0.035437224084138866,1.370780257552117,1.0715454551082104
1772796628355578400,0.169578369140625,0.03920505218505859,1.5403798683665693,0.963474664228782
1772796628365570300,0.1795703125,0.04214928894340992,1.6706221590436994,0.9078684392757713
1772796628375562500,0.1895625,-0.020607903742790222,1.7370231150597333,0.8539530900191515
1772796628385554400,0.199554443359375,-0.07082885546088219,1.7902249822847545,0.8725902051456272
1772796628395546400,0.20954638671875,-0.05852700777053833,1.8505097935080528,0.8776894279807805
1772796628405539300,0.219539306640625,0.08403145138323306,1.9223682842776177,0.9533258298538625
1772796628415531500,0.229531494140625,0.2082487826824188,1.9276466630719602,1.0322097622808069
1772796628425523200,0.239523193359375,0.2360772853285074,1.8431699521392584,1.013166696701944
1772796628435515400,0.249515380859375,0.21538111878037453,1.753299419339001,0.9684487263143062
1772796628445507300,0.25950732421875,0.1548591378003359,1.6064323032058774,0.9267468888774514
1772796628455499500,0.26949951171875,0.2009650554150343,1.5042108228765427,0.8810468486499041
1772796628465491200,0.2794912109375,0.3094599169254303,1.4586621007531881,0.7732979832012206
1772796628475483400,0.2894833984375,0.45856852837502954,1.459480723659694,0.7171663461346178
1772796628485475300,0.299475341796875,0.570648847156763,1.4809589804962278,0.7211095308024436
1772796628495467500,0.309467529296875,0.5740139396756887,1.4747139486268162,0.7673524457350372
1772796628505459200,0.319459228515625,0.44283729075789446,1.4278195109829306,0.7231919630996883
1772796628515452400,0.329452392578125,0.291414557147026,1.3961726190924644,0.7243076692566275
1772796628525444400,0.3394443359375,0.14389935236871243,1.4210747128978372,0.8092785934470593
1772796628535436300,0.349436279296875,0.03393617187142372,1.482305134408176,0.8692071385785937
1772796628545428200,0.35942822265625,-0.10951719029545784,1.4853105998344718,0.9319318902999162
1772796628555420400,0.36942041015625,-0.2961538606286049,1.478652310989052,0.9872326295003294
1772796628565412400,0.379412353515625,-0.5032189864844083,1.414605224622786,1.002500341258943
1772796628575404300,0.389404296875,-0.8296773844838142,1.399297180853784,1.06956918659918
1772796628585396200,0.399396240234375,-1.1416232730060816,1.4585145089760423,1.0674320284400134
1772796628595388400,0.409388427734375,-1.330565882194042,1.4542137430422006,1.066268829879537
1772796628605380400,0.41938037109375,-1.4533230778127908,1.5363884606428444,1.1169355526037514
1772796628615372500,0.42937255859375,-1.5544196457654236,1.6147674392223357,1.0731384233880787
1772796628625365500,0.439365478515625,-1.6620236959159373,1.6283314158029853,0.985417835163325
1772796628635357400,0.449357421875,-1.7549667680293322,1.582781086244434,0.8751371862147003
1772796628645349400,0.459349365234375,-1.7516069362074136,1.5156490394748747,0.7846526862345635
1772796628655341300,0.46934130859375,-1.7339438537448644,1.4469436059087515,0.6570146597716957
1772796628665333200,0.479333251953125,-1.6786814007282256,1.409528652010858,0.5545793905612081
1772796628675325400,0.489325439453125,-1.6244050361394882,1.4508938048392532,0.5073810745999217
1772796628685317400,0.4993173828125,-1.468324832111597,1.4565790108688175,0.5227870257854461
1772796628695309300,0.509309326171875,-1.348537007692456,1.4740911405533552,0.5320368654940277
1772796628705301200,0.51930126953125,-1.2972300143033266,1.3967591868087648,0.53784686694704
1772796628715293400,0.52929345703125,-1.2219716519623993,1.3083210248991846,0.5419260260194539
1772796628725285400,0.539285400390625,-1.1696370690912008,1.2836065626204014,0.5593043001912534
1772796628735278300,0.5492783203125,-1.0956903738707304,1.3162994564324617,0.5088971782512962
1772796628745270500,0.5592705078125,-0.9767284788817167,1.3803592561498284,0.4931563690882176
1772796628755262500,0.569262451171875,-0.7444359727889299,1.543389717707038,0.6508810523875057
1772796628765254400,0.57925439453125,-0.5213333198457956,1.4935969282731414,0.8361264875579625
1772796628775246300,0.589246337890625,-0.4786205518007278,1.1253338169842957,0.7981460087317973
1772796628785238300,0.59923828125,-0.43340135389268397,0.7507587460696696,0.5958526273224503
1772796628795230500,0.60923046875,-0.33569442837834357,0.6939893956214189,0.3780145438440144
1772796628805222400,0.619222412109375,-0.21760230196118355,0.7230969782926142,0.1975060010023415
1772796628815214300,0.62921435546875,-0.20124679496586323,0.6283005333974957,0.16749525894634423
1772796628825206300,0.639206298828125,-0.23523031311035156,0.5325494181260466,0.23604254280868917
1772796628835198500,0.649198486328125,-0.3252192115932703,0.5168270944677293,0.2628651928804815
1772796628845191400,0.65919140625,-0.3914332667350769,0.560559122557938,0.32941863604448735
1772796628855183400,0.669183349609375,-0.3857061212599277,0.6271845349796116,0.45057826027348635
1772796628865175600,0.679175537109375,-0.30785481981635093,0.694276395869255,0.5527831182615831
1772796628875167500,0.68916748046875,-0.20533669462800025,0.7763627045340835,0.6610288638491183
1772796628885159400,0.699159423828125,-0.12914601987302302,0.8479692663691938,0.7384297911766916
1772796628895151400,0.7091513671875,-0.09096154290735721,0.8381447685778141,0.7704027732163667
1772796628905143300,0.719143310546875,-0.0357364992916584,0.8071338365033268,0.7663214221868664
1772796628915135500,0.729135498046875,0.021574118426442145,0.7889078594610095,0.7732445725135505
1772796628925127200,0.739127197265625,0.08678396496176718,0.7462507671259343,0.7413792155668139
1772796628935119400,0.749119384765625,0.11799860291481018,0.6984342462010681,0.7007847548499703
1772796628945111300,0.759111328125,0.11680208660662174,0.6212441851451993,0.6522855123579502
1772796628955104300,0.769104248046875,0.09083645522296428,0.5733433469377458,0.5950300588931888
1772796628965096400,0.779096435546875,0.0518184500426054,0.5050605226978659,0.5744379372414201
1772796628975088400,0.78908837890625,0.01092880577147007,0.4357473324969411,0.5725787557734177
1772796628985080300,0.799080322265625,0.011260814204812048,0.3920949455142021,0.584966382051073
1772796628995072300,0.809072265625,0.059739306169748305,0.373352689512819,0.5481797161193565
1772796629005064200,0.819064208984375,0.02937339400053024,0.36723040724024175,0.48374056169558316
1772796629015056400,0.829056396484375,-0.07917875065505504,0.36947906294986604,0.413230234131962
1772796629025048300,0.83904833984375,-0.16851123105585575,0.366158540225029,0.39672771988138555
1772796629035040300,0.849040283203125,-0.19505203197896478,0.35962490067258474,0.45517702277321365
1772796629045032200,0.8590322265625,-0.16988018132150173,0.4093307424753904,0.5342707254933193
1772796629055025400,0.869025390625,-0.07455225989818573,0.4341469115629792,0.6129808722559362
1772796629065017300,0.879017333984375,0.06536708292365073,0.4191498334392905,0.6871181946776806
1772796629075009300,0.88900927734375,0.19851707774102686,0.3837124632246792,0.7750820901390164
1772796629085001200,0.899001220703125,0.3168623021364212,0.32188407582119105,0.869591607851535
1772796629094993400,0.908993408203125,0.3652168754607439,0.21019582509696483,0.9133918058071285
1772796629104985300,0.9189853515625,0.3021861265301704,0.05939005434066057,0.9468348603993654
1772796629114977300,0.928977294921875,0.19635083961784838,-0.11353665506988764,0.9637829264603555
1772796629124969200,0.93896923828125,0.08840776677131652,-0.22180881374031303,0.8737788304083048
1772796629134961400,0.94896142578125,-0.030488661766052243,-0.2875394692793488,0.6853638252910226
1772796629144953300,0.958953369140625,-0.15809797359108924,-0.20974325902387497,0.39085875478275117
1772796629154945300,0.9689453125,-0.31445524099469185,-0.046355070070177314,0.13826251552551985
1772796629164938200,0.978938232421875,-0.45015433577299113,0.04904679337218403,0.06240501824766397
1772796629174930400,0.988930419921875,-0.4812701895266771,0.09890841025859116,0.16432641965188086
1772796629184922000,0.998922119140625,-0.7386550512999296,0.29382117989733814,0.24642229986265302
1772796629194914300,1.008914306640625,-0.626270781135559,0.5606855254165828,0.3048759501360357
1772796629204906200,1.01890625,-0.585125116276741,0.7098777234964072,0.3360214683756232
1772796629214898400,1.0288984375,-0.6136304952710867,0.8260375666767358,0.32470578217841684
1772796629224890000,1.03889013671875,-0.5630167448431254,0.9356234382942319,0.2881393348686397
1772796629234882300,1.04888232421875,-0.5376841506659984,0.942483533322066,0.32155184819214044
1772796629244874200,1.058874267578125,-0.4930664257824421,0.9391830304719507,0.39025150960460303
1772796629254866400,1.068866455078125,-0.47858372692167755,0.9906697643421589,0.48191813204139466
1772796629264858400,1.0788583984375,-0.41259354366362094,1.1220447123110293,0.47972383686751124
1772796629274851300,1.088851318359375,-0.33096447724699973,1.3044089660219846,0.5006020089190453
1772796629284843300,1.09884326171875,-0.2724555896550417,1.4940857347033918,0.4454595290202647
1772796629294835500,1.10883544921875,-0.2767249375373125,1.5869021116971969,0.35516507171951234
1772796629304827100,1.1188271484375,-0.33087504539787765,1.6027975999653339,0.2638051406117156
1772796629314819300,1.1288193359375,-0.37135435530245303,1.5245440013311802,0.15920991688836364
1772796629324811300,1.138811279296875,-0.38886896920502184,1.4377878011591732,0.0104618458468467
1772796629334803500,1.148803466796875,-0.3398141386568546,1.3218915773510933,-0.13901516052372753
1772796629344795100,1.158795166015625,-0.24128712893128393,1.236840135270357,-0.22570417721103875
1772796629354787300,1.168787353515625,-0.07486322554349899,1.173648350559175,-0.2380437996285036
1772796629364779300,1.178779296875,0.06039689329564571,1.1009043091267348,-0.2348455698427744
1772796629374771500,1.188771484375,0.1953916391968727,1.0266749975726008,-0.1441806900607422
1772796629384764200,1.19876416015625,0.28771336454153057,0.9619809916049241,-0.08678933525662869
1772796629394756400,1.20875634765625,0.2077472629010677,0.9446424649216234,-0.031025161529239266
1772796629404748300,1.218748291015625,0.08958616290092468,0.9170083158038556,-0.04430614731688984
1772796629414740200,1.228740234375,-0.06833762316703795,0.9114306618019938,-0.12206831830544397
1772796629424732200,1.238732177734375,-0.26249124500155446,0.8312216913163661,-0.157937778060697
1772796629434724400,1.248724365234375,-0.44650633465945716,0.7446431857988238,-0.20730032285116612
1772796629444716300,1.25871630859375,-0.6015250469356775,0.7101543484807014,-0.3168442550230771
1772796629454708200,1.268708251953125,-0.7161562192440033,0.7105310728386044,-0.4624784683603793
1772796629464700200,1.2787001953125,-0.7560872476160526,0.7123728282477706,-0.5875888029765337
1772796629474692400,1.2886923828125,-0.7176397358000278,0.6801303816169499,-0.6494288808178156
1772796629484684300,1.298684326171875,-0.6660317136377096,0.6192366447150707,-0.699971246509999
1772796629494676200,1.30867626953125,-0.6310358035802841,0.5643541309267283,-0.7217406683128327
1772796629504669200,1.318669189453125,-0.7012520801007748,0.47046172219924626,-0.6571279839530587
1772796629514661400,1.328661376953125,-0.7415478501319884,0.4143252628270536,-0.6280096606921404
1772796629524653300,1.3386533203125,-0.7837585138738155,0.3917938436757773,-0.6226737795569002
1772796629534645200,1.348645263671875,-0.8354360941410064,0.44357970662303264,-0.6709359984226524
1772796629544637200,1.35863720703125,-0.8356739945501088,0.5384648527149111,-0.7878269323565066
1772796629554629400,1.36862939453125,-0.8244377302646636,0.5639744108941406,-0.9419219539165496
1772796629564621300,1.378621337890625,-0.7558025854557752,0.5037709943439811,-1.1542837979409843
1772796629574613200,1.38861328125,-0.6438730733215808,0.40853301622644067,-1.3092933770626782
1772796629584605200,1.398605224609375,-0.4913391635984182,0.3242344383396208,-1.4918606059998274
1772796629594597400,1.408597412109375,-0.2623258253067732,0.21069719874784348,-1.5943848686680198
1772796629604590000,1.418590087890625,-0.014921090278029441,0.09410144836828112,-1.6491038624577223
1772796629614582300,1.428582275390625,0.2288105091959238,-0.033253742565214635,-1.6239819884218274
1772796629624574200,1.43857421875,0.40363048500716686,-0.13273103875294326,-1.5357893257059156
1772796629634566400,1.44856640625,0.5674778159052133,-0.17526012079417705,-1.4635491421423852
1772796629644558000,1.45855810546875,0.7146341242432593,-0.19085063476637004,-1.4460491412870584
1772796629654550300,1.46855029296875,0.8331903610408306,-0.1613604825183749,-1.4599262754701077
1772796629664542200,1.478542236328125,0.9205436503231524,-0.15975421636551618,-1.4897199407093227
1772796629674534400,1.488534423828125,0.9295037863701582,-0.15351210710555313,-1.450925222890824
1772796629684526000,1.498526123046875,0.9113473674327135,-0.18369798653274774,-1.374044958436489
1772796629694518300,1.508518310546875,0.9370750984072684,-0.19757161358445882,-1.2139395905457437
1772796629704510200,1.51851025390625,0.9902969855070114,-0.16216741498708723,-1.0949231888905167
1772796629714502400,1.52850244140625,1.0288292529970406,-0.08922478224262595,-0.9702933312676847
1772796629724495000,1.5384951171875,1.0763070434868336,-0.03212532305717468,-0.8649912744492292
1772796629734487300,1.5484873046875,1.10675069706738,-0.023803923305124042,-0.7941957367360591
1772796629744479200,1.558479248046875,1.1745996599346398,-0.025724662234634158,-0.6777918556667863
1772796629754471400,1.568471435546875,1.2526450226455925,-0.08314896946027875,-0.5126455709993839
1772796629764463000,1.578463134765625,1.2891267873466015,-0.1544338981255889,-0.3083086279984563
1772796629774455300,1.588455322265625,1.306257370367646,-0.22155440058782697,-0.14140943524912
1772796629784447200,1.598447265625,1.3012246368974447,-0.27648616034537554,0.018593892472679726
1772796629794439400,1.608439453125,1.2457049942493439,-0.37054639992043376,0.11998494529328309
1772796629804431000,1.61843115234375,1.1466332101225851,-0.4788919160880148,0.19757585136815906
1772796629814423300,1.62842333984375,0.9749421799868345,-0.5837389226153492,0.2720825185589492
1772796629824415200,1.638415283203125,0.8311258297264575,-0.6625767508782446,0.2687828559590503
1772796629834408200,1.648408203125,0.6851794817000627,-0.7193273966260254,0.21571318201264364
1772796629844400000,1.658400146484375,0.528837411865592,-0.8142755249515176,0.0945283137445338
1772796629854392300,1.668392333984375,0.36187691738307476,-0.9373323611039668,-0.0017033729913047864
1772796629864384300,1.67838427734375,0.21526129179298875,-1.0724725798904895,-0.0671467009159969
1772796629874376200,1.688376220703125,0.06381283921897411,-1.187400323992595,-0.08516570697701535
1772796629884368100,1.6983681640625,-0.12977321186065674,-1.2988634607240557,-0.12237433378100394
1772796629894360300,1.7083603515625,-0.33981238509118555,-1.4178990054711698,-0.14163622060916387
1772796629904352300,1.718352294921875,-0.5428144992917776,-1.5242454567760229,-0.09548747763289138
1772796629914344200,1.72834423828125,-0.731024702551961,-1.5377981813102959,-0.08023767599030397
1772796629924336000,1.738336181640625,-0.895935863289237,-1.4808379844650625,-0.12621580250686965
1772796629934328300,1.748328369140625,-0.9921949280828237,-1.3842396047145127,-0.19838618137035519
1772796629944321300,1.7583212890625,-1.0850713647007941,-1.3105851704388856,-0.2835472030390985
1772796629954313200,1.768313232421875,-1.173538168182969,-1.2399446771569549,-0.3267680850030854
1772796629964305200,1.77830517578125,-1.3036936573594808,-1.2031368953719734,-0.3712543289940804
1772796629974297300,1.78829736328125,-1.470833015540242,-1.1761029771696776,-0.3724147876081988
1772796629984288800,1.798288818359375,-1.6059002421557902,-1.1790230293348432,-0.3322332916064188
1772796629994280700,1.80828076171875,-1.689510837778449,-1.2080850192986428,-0.31497177568208423
1772796630004272600,1.818272705078125,-1.6770611060500145,-1.2547183217883109,-0.21833061623573302
1772796630014264800,1.828264892578125,-1.6301573160558938,-1.3782077772043644,-0.05087868497446179
1772796630024256800,1.8382568359375,-1.4996294864356516,-1.421424403118342,-0.01015036874487996
1772796630034248700,1.848248779296875,-1.4457260468125341,-1.3202074236564338,-0.310316899080947
1772796630044240600,1.85824072265625,-1.7046721665531397,-1.0728935817815364,-0.7450430718366057
1772796630054233900,1.86823388671875,-2.2715146071642636,-0.8388356734514236,-0.9321978477597236
1772796630064225800,1.878225830078125,-2.9274124648004767,-0.5778584862746298,-0.8655240661516785
1772796630074217700,1.8882177734375,-3.4717040509074923,-0.03579305178448557,-0.7308803256452083
1772796630084209700,1.898209716796875,-3.5815731233805415,0.7376021812461316,-0.7284226302947848
1772796630094201900,1.908201904296875,-3.305588775077462,1.6022935959659517,-0.6555347964774817
1772796630104193800,1.91819384765625,-2.835148607122898,2.2612612164363264,-0.48119701469261195
1772796630114185700,1.928185791015625,-2.3139660939246416,2.579460027873516,-0.16315649908967314
1772796630124177700,1.938177734375,-1.714865643787384,2.574854579904675,0.2676145428320393
1772796630134169900,1.948169921875,-1.025158455529809,2.4026313425883647,0.71244399378784
1772796630144161800,1.958161865234375,-0.308160524764657,2.1785570681340993,1.0346478030826896
1772796630154153700,1.96815380859375,0.4654167868345976,2.011542797637731,1.2174893919818102
1772796630164146700,1.978146728515625,1.2339812387078999,1.884804861819744,1.2403401062153279
1772796630174139000,1.988138916015625,1.8753484666883944,1.7670640330582856,1.142536661523953
1772796630184130600,1.998130615234375,2.2910247787982225,1.6400861510045825,0.943782121765241
1772796630194122800,2.008122802734375,2.5897090346872806,1.486263078253716,0.7231424979347735
1772796630204114700,2.01811474609375,2.680263165837526,1.297061087477207,0.4889784988816827
1772796630214107000,2.02810693359375,2.575329211679101,1.117805321175605,0.31887152306698263
1772796630224098600,2.0380986328125,2.337615265059471,1.0014094772823154,0.23697686451673505
1772796630234090800,2.0480908203125,2.055641320952773,0.9898901582717895,0.08533873458951712
1772796630244082700,2.058082763671875,1.7086860783696174,1.0955410285279155,-0.030548867520689964
1772796630254075000,2.068074951171875,1.3445377089232207,1.3274170627743005,-0.06798859053365885
1772796630264066800,2.07806689453125,1.0050327823460101,1.5878345702417194,0.029499650728702545
1772796630274059800,2.088059814453125,0.7488795081943274,1.8856560718216,0.1622198027614504
1772796630284051700,2.0980517578125,0.5462608403533696,2.2040355005227026,0.21630583240985868
1772796630294044000,2.1080439453125,0.38047698843479155,2.541566642808914,0.18891199485398827
1772796630304035600,2.11803564453125,0.2518991238385439,2.8306097946494817,0.0743508921071887
1772796630314027800,2.12802783203125,0.153551562333107,3.052348758023977,-0.0800499805316329
1772796630324019700,2.138019775390625,0.059064767909049985,3.129715490821004,-0.20411540920473634
1772796630334012000,2.148011962890625,-0.006594575959444046,3.08641703184247,-0.3131361212201416
1772796630344003600,2.158003662109375,0.02666413504183292,3.061888155263662,-0.3840012901034206
1772796630353995800,2.167995849609375,0.1000678094267845,3.089505060985684,-0.39398550850115716
1772796630363987700,2.17798779296875,0.20876199290156364,3.136875299447775,-0.3613313392642885
1772796630373980000,2.18797998046875,0.32912031068503855,3.19242416819036,-0.17803864559680221
1772796630383971600,2.1979716796875,0.3692448158025741,3.1445608855143186,0.021156696731969713
1772796630393964800,2.20796484375,0.33477555996775626,3.0527117461174726,0.1274724606376141
1772796630403956700,2.217956787109375,0.3445546111822128,2.922196191456914,0.0648754269491881
1772796630413948700,2.22794873046875,0.4252601330131292,2.744947527194023,-0.1599677129857242
1772796630423940600,2.237940673828125,0.546398202997446,2.5559318527698514,-0.507201334118843
1772796630433932800,2.247932861328125,0.6535574319899082,2.345079025068879,-0.7690755432005971
1772796630443924700,2.2579248046875,0.681012425148487,2.0490407536439594,-0.7002141153551638
1772796630453916700,2.267916748046875,0.5186158775806426,1.4454125969491898,-0.2973720773119479
1772796630463908600,2.27790869140625,0.12626023530364036,0.5550508805304766,-0.05077522459998726
1772796630473900800,2.28790087890625,-0.6011556291013955,-0.49055692717954513,-0.5784248879857361
1772796630483892700,2.297892822265625,-1.1220055493444203,-1.2949231986656784,-2.09314278409034
1772796630493885000,2.307885009765625,-0.9398124144166707,-1.3965348765335976,-3.713700204890966
1772796630503877600,2.317877685546875,-0.2662111423075199,-0.8503134914077818,-4.154330340993404
1772796630513869800,2.327869873046875,0.39042029030025005,0.006012538287788629,-3.405137529066205
1772796630523861800,2.33786181640625,0.6411918714135885,0.765261464805156,-1.709109126087278
1772796630533853700,2.347853759765625,0.49360301687717434,1.154552604945004,0.34450222340784964
1772796630543845600,2.357845703125,-0.013933248284459113,1.1265265339002013,2.0535686063319445
1772796630553837800,2.367837890625,-0.49385962198674677,0.8561835524849594,2.7249358357787132
1772796630563829800,2.377829833984375,-0.969195160767436,0.4511287337630987,2.2115885462507605
1772796630573821700,2.38782177734375,-1.3245225103765725,0.05419803865551948,0.876398949778825
1772796630583813600,2.397813720703125,-1.358608319851756,-0.23234423628002404,-0.4286010409388691
1772796630593805800,2.407805908203125,-1.120230356365442,-0.28630568970069287,-1.2688392015993595
1772796630603797800,2.4177978515625,-0.7151479189842939,-0.3609362755320966,-1.5997398198299109
1772796630613790700,2.427790771484375,-0.2660182500839233,-0.4727940376043319,-1.4428148355409502
1772796630623783000,2.437782958984375,0.09733809220194815,-0.48559389794468877,-1.0892311147287488
1772796630633774800,2.44777490234375,0.4239934740781784,-0.377076240080595,-0.763049341713637
1772796630643766500,2.4577666015625,0.6320470264494419,-0.23254019724354147,-0.5914805131854489
1772796630653758700,2.4677587890625,0.5482698420882225,-0.22030147791728377,-0.5370499078830704
1772796630663750700,2.477750732421875,0.26611002002060413,-0.2575613873839378,-0.3862073122477159
1772796630673742800,2.487742919921875,0.061522682455182075,-0.23620441883951424,-0.053020300113037225
1772796630683734500,2.497734619140625,-0.034010406151413916,-0.149291859062016,0.2598327298494056
1772796630693726700,2.507726806640625,-0.018697101685404775,-0.0785229170948267,0.388947002877295
1772796630703718700,2.51771875,0.058734513041377064,-0.04618088254705071,0.350546216279827
1772796630713710800,2.5277109375,0.2063707138508558,-0.11185849272459744,0.2840333608545363
1772796630723703800,2.537703857421875,0.43880408971905704,-0.21336028047725558,0.3473742351802066
1772796630733695700,2.54769580078125,0.6995774248868226,-0.31213176648318763,0.49893955559954045
1772796630743688000,2.55768798828125,0.9162006526827812,-0.40309871621802446,0.7207151977226137
1772796630753680000,2.567679931640625,1.1121493412405252,-0.4108806022658944,1.0129529808860271
1772796630763671600,2.577671630859375,1.2703016753673553,-0.34407924875542517,1.2669941582545636
1772796630773663700,2.587663818359375,1.3645786264330149,-0.20956907150074838,1.4983835780277848
1772796630783655700,2.59765576171875,1.3484949221163987,-0.11554404936954378,1.609695104394108
1772796630793647900,2.60764794921875,1.2286568288147448,-0.08673698401488364,1.7176602429419754
1772796630803639600,2.6176396484375,1.05255324293375,-0.13442132992744446,1.749799010002613
1772796630813631700,2.6276318359375,0.8036328426450491,-0.24754100169427692,1.720107197702676
1772796630823623700,2.637623779296875,0.5188882647812366,-0.4337620038986206,1.5887570919141172
1772796630833616600,2.64761669921875,0.1737508852750063,-0.6715460200797766,1.4099801951706408
1772796630843608800,2.65760888671875,-0.1500122822910547,-0.9030956719160079,1.1158680695027112
1772796630853600800,2.667600830078125,-0.471826069355011,-1.0747159018378705,0.85631061293073
1772796630863593000,2.677593017578125,-0.6643044514536858,-1.2308939402170478,0.6191872526153922
1772796630873584600,2.687584716796875,-0.7862047379821538,-1.38395581933707,0.4159809210795909
1772796630883576800,2.697576904296875,-0.8996960926055908,-1.634374056968093,0.2664034134766087
1772796630893568800,2.70756884765625,-0.9953817414253949,-1.9865764064244924,0.30431358527923
1772796630903560700,2.717560791015625,-0.9767331550568341,-2.310716152217984,0.5824826389439404
1772796630913552600,2.727552734375,-0.846192465955019,-2.573545543132722,0.9836699685826897
1772796630923544600,2.737544677734375,-0.6926525940597057,-2.689450973160565,1.4249021622315048
1772796630933536800,2.747536865234375,-0.5266577297389508,-2.6698762118577957,1.6982685831211506
1772796630943528700,2.75752880859375,-0.4461965380579233,-2.531957102942467,1.7718913070842623
1772796630953521700,2.767521728515625,-0.49021278991699213,-2.369893148329854,1.781888092702627
1772796630963513900,2.777513916015625,-0.6872276464015245,-2.229742919361591,1.6767307050518692
1772796630973505800,2.787505859375,-0.913966610020399,-2.087881502561271,1.4845257330670951
1772796630983498200,2.797498291015625,-1.1238538075596094,-1.949362089665234,1.280094316715747
1772796630993490400,2.807490478515625,-1.1896171963244675,-1.7811032259352504,1.083934908016771
1772796631003482400,2.817482421875,-1.1514794811099767,-1.6495952992364764,1.005623295585066
1772796631013474600,2.827474609375,-1.0086877977222204,-1.575635744534433,1.0073394518531857
1772796631023466200,2.83746630859375,-0.8055629339247942,-1.5176640325590967,1.0027664448492228
1772796631033458400,2.84745849609375,-0.5330453849494456,-1.4477803489938377,0.9847625861249863
1772796631043450400,2.857450439453125,-0.3236141144841909,-1.4021739053338764,0.9908210824463516
1772796631053442600,2.867442626953125,-0.14871230560839174,-1.3359370538383721,0.967945087641105
1772796631063435300,2.877435302734375,-0.008923311167955398,-1.2472487165600061,0.9300318288322538
1772796631073427500,2.887427490234375,-0.0005494505763053894,-1.1685695129249245,0.9094103349555284
1772796631083419400,2.89741943359375,-0.029734628528356552,-1.0378289904020725,0.9370168654140084
1772796631093411300,2.907411376953125,-0.09159750272333621,-1.0051246984131634,1.153276228333637
1772796631103403300,2.9174033203125,-0.1340712013155222,-1.1388846418224274,1.358523710308224
1772796631113395500,2.9273955078125,-0.13950491680204868,-1.1405511137299238,1.207008987564966
1772796631123387400,2.937387451171875,-0.14785305843055246,-0.8875118799455464,0.8339513354759663
1772796631133379600,2.947379638671875,-0.20555121416151523,-0.6601438246428966,0.4904516036415472
1772796631143371300,2.957371337890625,-0.3271650849640369,-0.6366011826224625,0.3234388675151393
1772796631153363500,2.967363525390625,-0.45592005969285965,-0.6262387785620988,0.36737905846331265
1772796631163355400,2.97735546875,-0.5425584787040949,-0.5076759658932686,0.42133488586079326
1772796631173348400,2.987348388671875,-0.5184112949192524,-0.3040586424037814,0.3908557591080665
1772796631183340300,2.99734033203125,-0.4194131605505943,-0.023693302537500856,0.344390068270266
1772796631193332500,3.00733251953125,-0.31114217092394825,0.24776290081664917,0.4003749538099393
1772796631203324400,3.017324462890625,-0.22919570912122725,0.42433015868663787,0.4981439847750589
1772796631213316400,3.02731640625,-0.18260697642564772,0.5034893278583884,0.5708971958946436
1772796631223308300,3.037308349609375,-0.16715572479367255,0.5234934204891324,0.6035858519230037
1772796631233300500,3.047300537109375,-0.14966975246369837,0.6027012511081993,0.5872909160085023
1772796631243292400,3.05729248046875,-0.19350363349318503,0.7147163956992327,0.4697998972896486
1772796631253284400,3.067284423828125,-0.21953940750360487,0.8485670861318707,0.32651703285146505
1772796631263276300,3.0772763671875,-0.2295031676352024,1.000288510428369,0.2153192142589949
1772796631273268500,3.0872685546875,-0.2878033809125423,1.1225130604751408,0.13411609990317375
1772796631283261200,3.09726123046875,-0.3515010693192482,1.2794668324671685,0.03278649037964642
1772796631293253400,3.10725341796875,-0.4011965358585119,1.4304904837578534,-0.057999595496105026
1772796631303245300,3.117245361328125,-0.4223059593826532,1.5384063763365148,-0.1955728227163665
1772796631313237500,3.127237548828125,-0.4730108952254057,1.6481754955664276,-0.3359023720405996
1772796631323229400,3.1372294921875,-0.5234183094263076,1.673080950372666,-0.5099659399939701
1772796631333221400,3.147221435546875,-0.5977262391746044,1.6617250052303074,-0.6992727428518235
1772796631343213300,3.15721337890625,-0.5879255606502294,1.6425950650855898,-0.8386443155977874
1772796631353205500,3.16720556640625,-0.49940205854475495,1.6149895575404167,-0.9839625217884779
1772796631363197400,3.177197509765625,-0.3889285904377699,1.5861683905951678,-1.0992004278182983
1772796631373189400,3.187189453125,-0.2319774487942457,1.5387223104178904,-1.2141335787478833
1772796631383181300,3.197181396484375,-0.053526423004269595,1.427785316452384,-1.2997602634333074
1772796631393173500,3.207173583984375,0.1058019691646099,1.300779815739393,-1.2619029725953936
1772796631403166200,3.217166259765625,0.2874088286370039,1.125219835215807,-1.1225880984727292
1772796631413158400,3.227158447265625,0.4649924239426851,0.9408641154266894,-0.9440819814946502
1772796631423150300,3.237150390625,0.6384668303638696,0.8070879515349865,-0.823518058136478
1772796631433142500,3.247142578125,0.7521949163526296,0.7046493213236331,-0.7146064325187355
1772796631443134200,3.25713427734375,0.7853636109828949,0.5802130865767597,-0.6772413091119378
1772796631453126400,3.26712646484375,0.7716419596225023,0.44540933320298787,-0.7059888993643224
1772796631463118300,3.277118408203125,0.7006336559414863,0.3083446491599083,-0.761952047996223
1772796631473110500,3.287110595703125,0.6086375092893839,0.15157543995454906,-0.7748516423840075
1772796631483102200,3.297102294921875,0.4875660748004913,0.007097557045519351,-0.7268324384938926
1772796631493094400,3.307094482421875,0.39348201595842835,-0.09119140614047647,-0.6051245692649856
1772796631503086300,3.31708642578125,0.3094663466662168,-0.2180268109835684,-0.40573213346153497
1772796631513079300,3.327079345703125,0.31785832743644715,-0.21991934673190117,-0.20804666597275062
1772796631523071200,3.3370712890625,0.3352250573009252,-0.19339125915989278,-0.0861473475586623
1772796631533063400,3.3470634765625,0.3553326103061437,-0.16465762436762452,0.002354399372730404
1772796631543055400,3.357055419921875,0.3491390163630247,-0.1345763743586838,0.06668863211730494
1772796631553047300,3.36704736328125,0.34684301438033577,-0.11665551774278282,0.11751571476869284
1772796631563039200,3.377039306640625,0.3439133906692266,-0.10306596832945943,0.16418304739212616
1772796631573031400,3.387031494140625,0.3433651091367006,-0.09733926124572753,0.22447973171630872
1772796631583023400,3.3970234375,0.3160299429655075,-0.11962225859388709,0.26801950690373777
1772796631593015600,3.407015625,0.308580211481452,-0.1578115578651428,0.29007457724753766
1772796631603007200,3.41700732421875,0.30251988852918144,-0.1739259495809674,0.34885570590961723
1772796631612999400,3.42699951171875,0.318265154671669,-0.1959350984238088,0.394014223138988
1772796631622991400,3.436991455078125,0.3188309718608856,-0.2594021929450333,0.4657338899597525
1772796631632984300,3.446984375,0.35730069550871846,-0.30961978366225956,0.5439596507389098
1772796631642976300,3.456976318359375,0.4061024280786514,-0.3768916772939265,0.5381337210644036
1772796631652968400,3.466968505859375,0.4435965846925974,-0.42187005218341944,0.5040491536982358
1772796631662960400,3.47696044921875,0.47816579377055163,-0.46945174143910406,0.4806120909441262
1772796631672952300,3.486952392578125,0.48814416694939133,-0.5095848682545125,0.47256592793688174
1772796631682944300,3.4969443359375,0.4759235678017139,-0.5506009153842926,0.45490145723484454
1772796631692936400,3.5069365234375,0.4370955322355032,-0.5715475495621561,0.510696482758224
1772796631702928400,3.516928466796875,0.39020986241996286,-0.5981223988853395,0.5986858049217612
1772796631712920300,3.52692041015625,0.3005798603773117,-0.6380738855235278,0.7273450641911476
1772796631722912300,3.536912353515625,0.2479378189921379,-0.6590830635435879,0.8449333327393979
1772796631732904400,3.546904541015625,0.17158289358615875,-0.6699507867775857,0.8725698199447244
1772796631742897200,3.556897216796875,0.1228951427847147,-0.7058617658533155,0.8172286756686866
1772796631752889300,3.566889404296875,0.04579729005694389,-0.7773629676178098,0.713270215478912
1772796631762881300,3.57688134765625,-0.0014841010779142378,-0.8219505896240472,0.6106769792277366
1772796631772873500,3.58687353515625,-0.02140928325355053,-0.843400497148931,0.5247539419442415
1772796631782865400,3.596865478515625,-0.017429273706674575,-0.8247706154808402,0.538367456755042
1772796631792857300,3.606857421875,-0.0012356792747974395,-0.792385180182755,0.5912824698626995
1772796631802849300,3.616849365234375,0.01973521256148815,-0.7085879759468138,0.633471140968427
1772796631812841500,3.626841552734375,0.08626257143616675,-0.6331997036159038,0.6066368369914591
1772796631822833400,3.63683349609375,0.10884031394720077,-0.6067008421383798,0.46985403862968084
1772796631832825300,3.646825439453125,0.04255027095973491,-0.5948243802532553,0.2723265564478934
1772796631842817300,3.6568173828125,-0.030040333476662635,-0.5902662785574794,0.07905790075436234
1772796631852810500,3.666810546875,-0.1403834532022476,-0.53938773971349,-0.09445289215445518
1772796631862802200,3.67680224609375,-0.24942542720139024,-0.41885859540775416,-0.18465265690907834
1772796631872794400,3.68679443359375,-0.36130583949685097,-0.2528520406492054,-0.24704043176099658
1772796631882786300,3.696786376953125,-0.4466004426836967,-0.021908903338760135,-0.27881189987920224
1772796631892778500,3.706778564453125,-0.538736874589324,0.22713673076480626,-0.2422995208442211
1772796631902770200,3.716770263671875,-0.6540285566329955,0.42630072810724373,-0.1536062151297927
1772796631912762400,3.726762451171875,-0.7574971144139766,0.5767927567392588,-0.045345746897161004
1772796631922754300,3.73675439453125,-0.8732885626733302,0.6705724258072674,0.040163375823199746
1772796631932746500,3.74674658203125,-0.9499287347614764,0.5844926635921001,0.36179866451509296
1772796631942738200,3.75673828125,-0.7697948704510926,0.27657676123827696,0.7853527973279356
1772796631952730400,3.76673046875,-0.4425742559075355,0.24165508546084163,0.6921472018208354
1772796631962723600,3.7767236328125,-0.17323709053397177,0.5516144763410091,0.1327819652225822
1772796631972715300,3.78671533203125,-0.08812310461103916,0.7749018382012843,-0.3372496949963271
1772796631982707200,3.796707275390625,-0.3972019132643938,0.5573664639964699,-0.49747927378863094
1772796631992699100,3.80669921875,-0.9747451961100101,0.24106793322265146,-0.33870902695916594
1772796632002691300,3.81669140625,-1.3903186323672532,0.2481768884450197,-0.21591814826652406
1772796632012683300,3.826683349609375,-1.469801918926835,0.6510919186592101,-0.2567722828328609
1772796632022675200,3.83667529296875,-1.2793892371863127,1.1503235890731214,-0.25067184706591067
1772796632032667100,3.846667236328125,-1.0184551584988832,1.4221189612537621,-0.07606061863452196
1772796632042659300,3.856659423828125,-0.746481799402833,1.4981372020512818,0.103260248792544
1772796632052651300,3.8666513671875,-0.43956396817564963,1.491864989914,0.32508345638439057
1772796632062643200,3.876643310546875,-0.2374281154155731,1.390302265754342,0.5707816797561943
1772796632072635100,3.88663525390625,-0.10759469780027865,1.2404784917727112,0.7205870412983
1772796632082628400,3.89662841796875,-0.005651742151379585,1.1319906445249914,0.8137211059391498
1772796632092620300,3.906620361328125,0.1391419287085533,1.1275628912106155,0.7600628732487559
1772796632102612200,3.9166123046875,0.31136136663258074,1.2166723765105008,0.5341486700162291
1772796632112604200,3.926604248046875,0.43841187553107736,1.346741356447339,0.31145313656926155
1772796632122596400,3.936596435546875,0.5553022249430418,1.4604419699072837,0.18554566022604702
1772796632132588000,3.946588134765625,0.7034516359716654,1.505195888391137,0.20486556998491287
1772796632142580200,3.956580322265625,0.7618471263170242,1.5002245297193526,0.2827730585951358
1772796632152572200,3.966572265625,0.8570055363923311,1.4981278497010468,0.37473734880425036
1772796632162564400,3.976564453125,0.9547551320046186,1.4888792521014809,0.4578060926351696
1772796632172556300,3.986556396484375,1.000773371335864,1.4743313790500163,0.5645806331589818
1772796632182548200,3.99654833984375,1.0138795211464167,1.4480889765515923,0.6530173337638377
1772796632192541400,4.00654150390625,0.9988713371068239,1.427676887641847,0.6930082025643438
1772796632202533000,4.016533203125,0.933336496400833,1.3895131612032652,0.7619790090683847
1772796632212525300,4.026525390625,0.873796512195468,1.3454200447157025,0.8512332366012036
1772796632222517200,4.036517333984375,0.7946908267766237,1.3417629835128784,0.9739714352585375
1772796632232509200,4.04650927734375,0.669800126260519,1.312346627153456,1.0346242760766298
1772796632242501400,4.05650146484375,0.5532388626724482,1.3145689793780446,1.0643780476968734
1772796632252493000,4.0664931640625,0.46802784611582754,1.3340990247562527,1.0717448501378297
1772796632262485200,4.0764853515625,0.42714638515114783,1.3371037595301867,1.0723689733855426
1772796632272477200,4.086477294921875,0.33719431154727936,1.3346034671470521,1.0883409609559922
1772796632282469400,4.096469482421875,0.20503917298614976,1.3003583754569292,1.123037157414481
1772796632292461000,4.1064609375,0.14803192212879657,1.2627066901937127,1.178662160133198
1772796632302454300,4.116454345703125,0.13114099308252333,1.2161705644682048,1.1786580684799701
1772796632312446500,4.126446533203125,0.1376034670948982,1.1788991106942295,1.0994021609354763
1772796632322438100,4.136438232421875,0.12838263428509233,1.1271847055479884,1.0886557259935885
1772796632332430300,4.146430419921875,0.06509878737628459,1.0607400565207004,1.130474175547436
1772796632342422300,4.15642236328125,0.024775544816255567,1.025926517292857,1.1958388473182915
1772796632352414500,4.16641455078125,-0.016580547922849655,1.020005310550332,1.2004299745008349
1772796632362406100,4.17640625,-0.09284253434836864,1.0737374852597712,1.2260220963969826
1772796632372398000,4.186398193359375,-0.21018238109350204,1.0735128827236593,1.3051163836389779
1772796632382390300,4.196390380859375,-0.3115384767651558,1.0730044948101043,1.354297324784845
1772796632392382200,4.20638232421875,-0.4077075251877308,1.0493599998503922,1.3305023154385387
1772796632402374100,4.2163740234375,-0.46713294310271736,1.0126103779934346,1.3331531222082673
1772796632412366000,4.226365966796875,-0.4511678967297077,1.0027310812748969,1.3770352262936532
1772796632422359300,4.236359375,-0.40549510983526704,0.9632144789226352,1.418784556134045
1772796632432351200,4.246351318359375,-0.33409400744438167,0.9318782604165374,1.3886397393696008
1772796632442343200,4.25634326171875,-0.22819909929931162,0.8372339373432099,1.3748876928709446
1772796632452335400,4.26633544921875,-0.14553133748471736,0.7373043673433363,1.3477015797816216
1772796632462327300,4.276327392578125,-0.11414192748665809,0.631150516001135,1.31780854582116
1772796632472319500,4.286319580078125,-0.0760737703770399,0.5091644508853554,1.2786711520448326
1772796632482311200,4.296311279296875,-0.0389998850017786,0.39438919393122196,1.2471519781872629
1772796632492303400,4.306303466796875,0.007197218027710914,0.34019188592806454,1.1608556506119667
1772796632502295300,4.31629541015625,0.03966565543413162,0.2963330165877938,1.066213665626198
1772796632512287200,4.326287353515625,0.022342764711380005,0.2168850936025381,1.0342110191006213
1772796632522279200,4.336279052734375,-0.03409340825974941,0.1450819862820208,1.0719226909227668
1772796632532272400,4.3462724609375,-0.10994272223114966,0.07958879276067019,1.061977197100222
1772796632542264300,4.356264404296875,-0.19823007749319074,0.049027504149824375,1.0315824241627007
1772796632552256300,4.36625634765625,-0.29533377641737457,0.07032558211386203,0.9719972856413572
1772796632562248200,4.376248291015625,-0.3781009069532156,0.10692498184517026,0.9141726539865136
1772796632572240400,4.386240478515625,-0.45608489486575127,0.1496698985941708,0.8049766584694386
1772796632582232300,4.396232421875,-0.5567401487916708,0.13983502553924917,0.6964781436972319
1772796632592224300,4.406224365234375,-0.6497422576159239,0.1266257076151669,0.6519615411005913
1772796632602216200,4.41621630859375,-0.7178279518485069,0.14814590389728546,0.6169885004620999
1772796632612208400,4.42620849609375,-0.7693377743333578,0.16409297622218727,0.5400188772238791
1772796632622200300,4.436200439453125,-0.8018646639287471,0.1894048198722303,0.46395497065372765
1772796632632192300,4.446192138671875,-0.8363035246253013,0.21365838664099573,0.3838223533399403
1772796632642185200,4.456185302734375,-0.8938269083112478,0.23120924090072512,0.28873529146779325
1772796632652177400,4.466177490234375,-0.9461866256237029,0.26079452408626674,0.1981569026591256
1772796632662169300,4.47616943359375,-1.0329793584138154,0.239073252274096,0.2018131236117333
1772796632672161300,4.486161376953125,-1.087097317570448,0.2741905967541039,0.1597307258920744
1772796632682153200,4.4961533203125,-1.0647130518049002,0.34711057927533984,0.11246687041390686
1772796632692145400,4.5061455078125,-0.9138590579926967,0.3959207874126732,0.07644669534265995
1772796632702137300,4.516137451171875,-0.7112485734581947,0.4504087489254772,0.07988583947848528
1772796632712129300,4.52612939453125,-0.44877252602577206,0.47953255207911133,0.1186286444466561
1772796632722121200,4.536121337890625,-0.20866963844299316,0.4292822281360626,0.15498177779931574
1772796632732113400,4.546113525390625,0.06524374880492687,0.3362710592225194,0.18480583817679433
1772796632742105300,4.556105224609375,0.2868073556125164,0.2588474816717207,0.21606844345740972
1772796632752097300,4.56609716796875,0.42786710064113137,0.18487477522715925,0.24092794023007152
1772796632762090200,4.57609033203125,0.5600426974684,0.09483180846944451,0.24862412075586615
1772796632772082400,4.58608251953125,0.5993336743712425,0.0009143383659422397,0.27202644099015744
1772796632782074000,4.59607421875,0.6220552092671394,-0.07661386860311031,0.25985760856233536
1772796632792066300,4.60606640625,0.6271598389297723,-0.14377981764227152,0.23944011282511055
1772796632802058200,4.616058349609375,0.6033347267061472,-0.21721987851485608,0.2037310129970312
1772796632812050400,4.626050537109375,0.5454536156237125,-0.2786791403450072,0.23346096535027025
1772796632822042000,4.6360419921875,0.4457768513411283,-0.30700375594496726,0.2700519625794142
1772796632832034300,4.646034423828125,0.32372108199000355,-0.3405518052816391,0.35358971216157076
1772796632842026200,4.656026123046875,0.2048772604227066,-0.3075083444662392,0.43067130787428465
1772796632852018400,4.666018310546875,0.094809450507164,-0.2529388421498239,0.4360337116902694
1772796632862010400,4.67601025390625,-0.022565467551350592,-0.21036124479174612,0.4301545905238017
1772796632872003300,4.68600341796875,-0.12358663218021392,-0.22963380827754734,0.48491910395566373
1772796632881995300,4.695995361328125,-0.22865853350460527,-0.24782953631207347,0.5327096136564389
1772796632891987200,4.7059873046875,-0.32372225103378294,-0.23854966679140924,0.49784503836110233
1772796632901979100,4.715979248046875,-0.47911681088507174,-0.2477469725951552,0.494527547843568
1772796632911971300,4.725971435546875,-0.6321323666453361,-0.28213147275596856,0.5193189112834632
1772796632921963300,4.73596337890625,-0.7551882529497146,-0.2849545673526823,0.5407475568246096
1772796632931955500,4.74595556640625,-0.8107640096992254,-0.27151334036886693,0.5509321201000362
1772796632941947100,4.755947021484375,-0.7549953607261181,-0.2658925778776407,0.5860081096563488
1772796632951939300,4.765939208984375,-0.6203530815243721,-0.2434166883058846,0.6587291355393826
1772796632961931300,4.77593115234375,-0.45728141117393967,-0.2625250011406839,0.7204797815315425
1772796632971923500,4.78592333984375,-0.29888708498477934,-0.29310996288806196,0.8142651496879756
1772796632981917200,4.795917236328125,-0.18781974263787268,-0.34908816295862194,0.9176702868439257
1772796632991909000,4.8059091796875,-0.10140051933526992,-0.413752504440397,1.0131760490521788
1772796633001901000,4.815901123046875,-0.045238487130403515,-0.45505803603604433,1.0685613977961241
1772796633011893000,4.82589306640625,0.0065676879525184625,-0.4491416515991091,1.1170852632727473
1772796633021885200,4.83588525390625,0.04306874187588691,-0.39156390737742186,1.1281782466299832
1772796633031877000,4.845877197265625,0.027901567882299423,-0.32313509879559277,1.1080258315697311
1772796633041869000,4.855869140625,-0.03453296872079372,-0.2846418481417,1.1544741328813135
1772796633051861000,4.865861083984375,-0.13694704901278018,-0.226427559582144,1.1922016598597167
1772796633061853200,4.875853271484375,-0.1728577358275652,-0.15359598599672317,1.1202806252479554
1772796633071845000,4.88584521484375,-0.1382709910929203,-0.0323522636808455,0.9734383512951433
1772796633081837000,4.895837158203125,-0.07875555680692195,0.07271335403323173,0.8057138867028057
1772796633091830000,4.905830078125,-0.0010655834048986434,0.14080284765809772,0.6757510705541819
1772796633101822200,4.915822265625,0.05940612869262695,0.20748437418118118,0.5216451988065615
1772796633111814100,4.925814208984375,0.08744389017522335,0.3119984954923391,0.2928397676445544
1772796633121806000,4.93580615234375,0.10751111117005348,0.48413551582992076,0.02450951429121196
1772796633131798000,4.945798095703125,0.1567927362114191,0.6949170318603515,-0.16710470699248833
1772796633141790200,4.955790283203125,0.12240882057249546,0.8982301117062568,-0.2661180937292054
1772796633151782100,4.9657822265625,0.07430792974829674,1.1024072610355913,-0.28375436125006526
1772796633161774000,4.975774169921875,0.06018412732779979,1.281868779042363,-0.2524608128419146
1772796633171766000,4.98576611328125,0.05788987891077995,1.3888088123261928,-0.19710880011199042
1772796633181758200,4.99575830078125,0.08003098357021808,1.5129374424286186,-0.19801831617234272
1772796633191750100,5.005750244140625,0.08461305066347122,1.6011396036252379,-0.1745373594775796
1772796633201742000,5.0157421875,0.03724047411382198,1.6056941981896757,-0.10521971229724586
1772796633211735300,5.0257353515625,-0.016717326045036316,1.5912715589530766,-0.05544491517776623
1772796633221727200,5.035727294921875,-0.07738836010694504,1.5206341344110668,-0.020777908281143752
1772796633231719000,5.045718994140625,-0.16770575989186762,1.4563975168220697,0.029939439518610014
1772796633241711000,5.055711181640625,-0.27512743921279903,1.3715158783502877,0.013331811792589724
1772796633251703000,5.065703125,-0.38617198520600793,1.3260093879334627,-0.023831541964411736
1772796633261695200,5.0756953125,-0.4419797971457243,1.2935817209288478,-0.08351814983254298
1772796633271687000,5.08568701171875,-0.43416415495872496,1.2592299539938567,-0.12157925614686682
1772796633281679000,5.09567919921875,-0.3710024731248617,1.2102931968674062,-0.09416516125425696
1772796633291671000,5.105671142578125,-0.30930560314655303,1.131121314344555,-0.015749102067388592
1772796633301663200,5.115663330078125,-0.23058687121868132,1.0147352611929177,0.10080712001938372
1772796633311655200,5.1256552734375,-0.16682196279466152,0.8701791984811424,0.2892215406147763
1772796633321647000,5.135647216796875,-0.11284487341344356,0.7080509464606642,0.45029516901578753
1772796633331640300,5.145640380859375,-0.04253507339060306,0.5854637005813419,0.5480564550658688
1772796633341632000,5.155632080078125,0.05667115077078342,0.46516339659541844,0.6221578659240156
1772796633351624000,5.1656240234375,0.11004442903995514,0.36433965423479675,0.6884967895545065
1772796633361616100,5.1756162109375,0.08292728953361511,0.28662074699923396,0.7829020431749523
1772796633371608000,5.185608154296875,-0.006385317122936249,0.25775793286934495,0.9828839327715336
1772796633381600300,5.195600341796875,-0.14321779984533786,0.2879607634313404,1.1443633654944598
1772796633391592000,5.205592041015625,-0.30157004045844077,0.3524024020731449,1.1785605994548647
1772796633401584000,5.215584228515625,-0.4494371274143457,0.4694856437087059,1.2063897596880793
1772796633411576000,5.225576171875,-0.6235159294694662,0.5589695152789353,1.1393313626766204
1772796633421568300,5.235568359375,-0.894853913271427,0.6491102433227002,1.0390686151996253
1772796633431560000,5.245559814453125,-1.0942600488066672,0.703258451487124,1.0079812568880617
1772796633441553200,5.25555322265625,-1.1732798095077275,0.787532187193632,1.0216283817075191
1772796633451545300,5.26554541015625,-1.1591560070872307,0.8945615061961114,1.051718034218624
1772796633461537000,5.275537109375,-1.0723217732429504,1.015769864937663,1.0007356696739793
1772796633471529200,5.285529296875,-0.9868863002806901,1.149963669719547,0.8520024674080312
1772796633481521200,5.295521240234375,-0.9233031781643628,1.2853421542413532,0.7487547858361154
1772796633491513000,5.30551318359375,-0.7740992896467447,1.3541658073596656,0.6660628394283354
1772796633501505000,5.315505126953125,-0.718527040028572,1.343985043476522,0.6266925136789679
1772796633511497000,5.3254970703125,-0.6335685369282961,1.3988849467910824,0.5437526569247245
1772796633521489200,5.3354892578125,-0.5367097526758909,1.3991836374767124,0.39386951743867243
1772796633531481000,5.345481201171875,-0.3605722645252943,1.396791773904115,0.2894930875651538
1772796633541473000,5.35547314453125,-0.21092063224017618,1.3715484654456376,0.16967021009894087
1772796633551465000,5.36546484375,-0.07646540004312992,1.3349965581178664,0.11258459677575156
1772796633561458200,5.375458251953125,0.039941549766063685,1.286749536821246,0.14510578728271648
1772796633571450000,5.3854501953125,0.14787293217480182,1.273418638344109,0.23183920936733482
1772796633581442000,5.395442138671875,0.24299159476161003,1.2614613663077354,0.21810312762279063
1772796633591434200,5.405434326171875,0.31402327931821344,1.242036242608726,0.11895836959136649
1772796633601426200,5.41542626953125,0.3665191902309656,1.1721239174708724,0.004140807865466922
1772796633611418400,5.42541845703125,0.3929781580895185,1.0362471280381083,-0.10761628857757896
1772796633621410000,5.43541015625,0.3643050213128328,0.9296665757164359,-0.1326295694061555
1772796633631402000,5.445402099609375,0.290551218315959,0.7604474886521697,-0.15603517757607624
1772796633641394200,5.455394287109375,0.17663666984438894,0.6450456242322922,-0.2074750948961824
1772796633651386000,5.46538623046875,0.10045885457098483,0.5790206619217991,-0.23719945775885135
1772796633661378000,5.4753779296875,0.05278291116058826,0.5816568556442856,-0.29054018546529115
1772796633671371300,5.485371337890625,-0.008694178587198257,0.5904968724429607,-0.3302373320162296
1772796633681363200,5.49536328125,-0.07432838801443577,0.600190583461523,-0.3324133608810603
1772796633691355100,5.505355224609375,-0.15613573360741137,0.5901981817573309,-0.3208892926301807
1772796633701347000,5.51534716796875,-0.24341595765352247,0.5900847845107317,-0.31953758576028046
1772796633711339300,5.52533935546875,-0.3062976535022259,0.5596554517164826,-0.3062894884620793
1772796633721331200,5.535331298828125,-0.35946751815378664,0.5050283739939332,-0.24783421248719095
1772796633731323100,5.5453232421875,-0.39245968717336654,0.49150019937902684,-0.1999025772826746
1772796633741315000,5.555315185546875,-0.39342064116001124,0.5011433492541313,-0.22184470703760162
1772796633751307000,5.56530712890625,-0.3724982646405697,0.4978343708366155,-0.21573954029660672
1772796633761299200,5.57529931640625,-0.3107517103016376,0.4804398761823773,-0.2134070422284305
1772796633771291100,5.585291015625,-0.18204700445532798,0.42488896161317824,-0.2297022338712588
1772796633781284000,5.5952841796875,-0.03532733396887779,0.379150123745203,-0.29245705193728205
1772796633791276300,5.6052763671875,0.08699380832016468,0.2959454785749316,-0.3290107128307223
1772796633801268200,5.615268310546875,0.17111293798685073,0.20782325074672697,-0.3265331437360495
1772796633811260200,5.62526025390625,0.23661036929190157,0.1529737624451518,-0.2814471802862361
1772796633821252000,5.635252197265625,0.2964490441828966,0.14177899921387432,-0.26358110433118415
1772796633831244300,5.645244384765625,0.31815351099073885,0.12336889777630566,-0.2331244999375194
1772796633841236200,5.655236328125,0.2918441807359457,0.10398381382673978,-0.2135189599039964
1772796633851228200,5.665228271484375,0.2847545147359371,0.13096680555939674,-0.2156334861062467
1772796633861220000,5.67522021484375,0.26916648498177526,0.15767185713350773,-0.20709672657046466
1772796633871212300,5.68521240234375,0.21630057171285152,0.14623247149139643,-0.22257654670979826
1772796633881204200,5.695204345703125,0.15023381608724592,0.10085545267313718,-0.19378703527813776
1772796633891196000,5.70519580078125,0.16773498598635195,0.08541998313218355,-0.15462527424553407
1772796633901189000,5.715189208984375,0.238002700433135,0.11500760440528392,-0.10654848581613041
1772796633911181300,5.725181396484375,0.3059469403684139,0.12452946598827838,-0.1432198548051063
1772796633921173000,5.735173095703125,0.39714989081621166,0.14301117135733366,-0.12062293266956693
1772796633931165200,5.745165283203125,0.4911404261559248,0.10782529168576001,-0.10444526645918376
1772796633941157000,5.7551572265625,0.5672089358359574,0.059472179666161536,-0.1296574491270352
1772796633951149300,5.7651494140625,0.6219926654249429,-0.009487082530558109,-0.12544080867953597
1772796633961141000,5.77514111328125,0.7041659217208623,-0.0875198780208826,-0.1222465335497167
1772796633971133200,5.78513330078125,0.7917097651392221,-0.16090221735686064,-0.13031419600271618
1772796633981125000,5.795125,0.8686135565996169,-0.2285749468743801,-0.15081744292778893
1772796633991116500,5.805116455078125,0.8855839806228876,-0.2760878086775541,-0.183477311253082
1772796634001108700,5.815108642578125,0.8769763112753629,-0.3365785177364945,-0.19969576613157985
1772796634011100400,5.825100341796875,0.8405407238036393,-0.3707511287122965,-0.22802398019442333
1772796634021093600,5.83509375,0.74098554007411,-0.3987973657622933,-0.19797305225851014
1772796634031085800,5.8450859375,0.6795663179934024,-0.42444092558473345,-0.21266057124268262
1772796634041077500,5.855077392578125,0.6094692839384078,-0.4263599109485745,-0.23310402340507133
1772796634051069700,5.865069580078125,0.5333510898977518,-0.42380116637647147,-0.21864444969156754
1772796634061061600,5.8750615234375,0.457105470085144,-0.39006723907887936,-0.1558861792931333
1772796634071053800,5.8850537109375,0.3633376375854015,-0.3950356751412153,-0.06211722341538407
1772796634081045500,5.89504541015625,0.29295769493579865,-0.44567485227137804,0.006416283083357848
1772796634091037400,5.905037353515625,0.2044984902381897,-0.4915706342667341,-0.020063028876902533
1772796634101029600,5.915029541015625,0.11861585803031921,-0.5446446373283863,-0.09441763817798346
1772796634111021600,5.925021484375,0.009640519526600838,-0.5751832757160067,-0.15821626620851456
1772796634121013800,5.935013671875,-0.13339140235781669,-0.5997577450022101,-0.16777071488685905
1772796634131005400,5.94500537109375,-0.3109749976634979,-0.6372305665671825,-0.1218240338213276
1772796634140998700,5.95499853515625,-0.4630097256928682,-0.6311433556079864,-0.06335527731035835
1772796634150990800,5.964990966796875,-0.5421224253743887,-0.5776318379119039,0.004226120661897584
1772796634160982500,5.974982421875,-0.5798129813432693,-0.5218310402348637,0.034364462019782514
1772796634170974700,5.984974609375,-0.5400713380634784,-0.47550797273814677,0.04355727431150153
1772796634180966700,5.994966552734375,-0.45647243287861344,-0.4347279263213277,0.08103082652883603
1772796634190958800,6.004958740234375,-0.3792740423858166,-0.45041824740618464,0.12770103609594516
1772796634200950500,6.014950439453125,-0.28431787688434124,-0.48495706134587524,0.13641415684563107
1772796634210942700,6.024942626953125,-0.1725660594046116,-0.5118848157599568,0.15570764438845217
1772796634220934700,6.0349345703125,-0.051752399069070816,-0.5554083156660199,0.15820534295570104
1772796634230926600,6.044926513671875,0.07513327465653419,-0.5913049739554525,0.19119643426304683
1772796634240918500,6.05491845703125,0.1778466301560402,-0.6223071382015943,0.2525825760580599
1772796634250911700,6.064911865234375,0.23333996931910514,-0.6260197289839387,0.2491554694199003
1772796634260903700,6.074903564453125,0.24709143129587172,-0.6148503924548625,0.20605956554245203
1772796634270895600,6.0848955078125,0.20810674386322497,-0.6261778421550989,0.19407986247856168
1772796634280887600,6.094887451171875,0.1487842018008232,-0.6241647487670183,0.2644234186405316
1772796634290879700,6.104879638671875,0.1289765085250139,-0.5990110182881355,0.29297742254957554
1772796634300871700,6.11487158203125,0.142732646676898,-0.49310295840054746,0.29647976811472326
1772796634310863600,6.124863525390625,0.1525695655584335,-0.4189019961580634,0.28750925680417566
1772796634320855600,6.13485546875,0.1619949810296297,-0.4184390548214316,0.37543753296285864
1772796634330847700,6.14484765625,0.06577332563698292,-0.6717685037240385,0.6819082049444317
1772796634340839700,6.154839599609375,-0.02508008072078228,-0.9932806774929165,1.029617846091464
1772796634350831900,6.164831787109375,-0.03854980314671993,-0.9995902990311384,0.9918436304271221
1772796634360824600,6.174824462890625,-0.02687982361912727,-0.7810407793477178,0.6756286862835288
1772796634370816800,6.184816650390625,-0.06962181775867939,-0.6663327424108981,0.46328741012308744
1772796634380808700,6.19480859375,-0.28197628219425674,-0.7467138545930385,0.3987648151995614
1772796634390800600,6.204800537109375,-0.5572855077147484,-0.8289417636856437,0.31168289020452644
1772796634400792600,6.21479248046875,-0.8011831114053726,-0.6536164687007665,0.06409198495391756
1772796634410784800,6.22478466796875,-0.9449562070459127,-0.31934622790664435,-0.22775310909748075
1772796634420776700,6.234776611328125,-1.054296871730685,-0.014574176536500453,-0.28820644528809936
1772796634430768600,6.2447685546875,-1.1817992160499096,0.22160247751325368,-0.2070440282688476
1772796634440760600,6.254760498046875,-1.2023194415092469,0.4161766628473997,-0.09096006333632393
1772796634450752800,6.264752685546875,-1.1636258459776638,0.6571826367497444,0.04877444270420819
1772796634460744700,6.27474462890625,-1.0532365490227937,0.8847522059738635,0.10533584949020296
1772796634470737700,6.284737548828125,-0.9255331291735172,1.0270596129760146,0.10609351772340014
1772796634480729600,6.2947294921875,-0.7478203545302152,1.0833289049476384,0.13973037785468623
1772796634490721800,6.3047216796875,-0.515144402077794,1.028769339503348,0.15810758166965097
1772796634500713500,6.31471337890625,-0.23246669361591338,0.9416276471450924,0.10095304956240579
1772796634510705700,6.32470556640625,0.015439561194181441,0.7979854844078421,0.01132576919980347
1772796634520697600,6.334697509765625,0.23796295294463632,0.6226756792530417,-0.09590276216920465
1772796634530689800,6.344689697265625,0.44909109045565127,0.42076983585655686,-0.20865878825541584
1772796634540681700,6.354681640625,0.686939477109909,0.2969020486474037,-0.2938205588428303
1772796634550673700,6.364673583984375,0.8680968392491341,0.24094050745069978,-0.3644657648324966
1772796634560665600,6.37466552734375,0.994630046275258,0.2132268633559346,-0.36896760629639025
1772796634570657800,6.38465771484375,1.0357008923321962,0.19325141229778528,-0.32537969938460737
1772796634580649700,6.394649658203125,0.9938479559868574,0.19263649526983498,-0.18371084601432083
1772796634590642700,6.404642578125,0.9041261840075254,0.20339725099802017,0.03267736744936556
1772796634600634600,6.414634521484375,0.7958902656942606,0.2628998258024454,0.22799064418040216
1772796634610626800,6.424626708984375,0.6907856311440468,0.3041033583283424,0.41518732301648703
1772796634620618500,6.434618408203125,0.5752022726774215,0.39078620100319383,0.558295634605363
1772796634630610700,6.444610595703125,0.4955471366822719,0.47862084406167266,0.688533687498793
1772796634640602600,6.4546025390625,0.41789983337819575,0.5183168946340679,0.7744814208321272
1772796634650594800,6.4645947265625,0.3457008586078882,0.5722469300031662,0.8298042987991124
1772796634660586500,6.47458642578125,0.21695815883874892,0.6375979385748505,0.8955629383236169
1772796634670578700,6.48457861328125,0.02500467739701271,0.6329185485869646,0.9048734221782535
1772796634680570600,6.494570556640625,-0.07048632563352585,0.652410892303288,0.8889565257959068
1772796634690562800,6.504562744140625,-0.1180582241475582,0.6960100877940655,0.8659966520994901
1772796634700554500,6.514554443359375,-0.15027648618519304,0.744269676311314,0.8258174941852688
1772796634710547700,6.524547607421875,-0.162091427141428,0.7762570522025227,0.7854509239401668
1772796634720539600,6.53453955078125,-0.19204642042219638,0.8022241448909044,0.8254185579955577
1772796634730531600,6.544531494140625,-0.19946283415853977,0.8108686391174793,0.8986083704341202
1772796634740523500,6.5545234375,-0.16980419347584247,0.8188950014457106,0.9488223078895359
1772796634750515700,6.564515625,-0.10571604444682597,0.8549968269184232,1.0085397675536572
1772796634760507600,6.574507568359375,-0.06353694488704204,0.9032347881257533,1.0246299016110598
1772796634770499600,6.58449951171875,-0.04382277511358261,0.9257967485457658,1.0202117929078638
1772796634780491500,6.594491455078125,-0.04705751925110817,0.9540712413936853,1.038785998865962
1772796634790483700,6.604483642578125,-0.08524316526055335,0.9648837273091078,0.9853888282645493
1772796634800475600,6.6144755859375,-0.13894903648495674,0.9505606029242276,0.9213510942485182
1772796634810467800,6.6244677734375,-0.1616986284315586,0.9664598905846477,0.8203742071527987
1772796634820460500,6.63446044921875,-0.1696019489020109,0.9689119599118828,0.72518883600533
1772796634830452700,6.64445263671875,-0.19295301387310027,0.9621204000756144,0.6048260977750644
1772796634840444700,6.654444580078125,-0.19823358462452886,0.9265952054470777,0.5279224159125239
1772796634850436600,6.6644365234375,-0.15367489645183086,0.8860612427458167,0.4998027848327532
1772796634860428500,6.674428466796875,-0.07855974197387695,0.8190408396571874,0.5389860270448029
1772796634870420700,6.684420654296875,0.009210311415791511,0.7503264921322464,0.5530915996888652
1772796634880412700,6.69441259765625,0.1350333243459463,0.7001341819867491,0.5289038281653076
1772796634890404600,6.704404541015625,0.23386779258549212,0.6416138962179422,0.502600233531557
1772796634900396500,6.714396484375,0.26018589066863057,0.5428749973073601,0.4824922056023031
1772796634910388700,6.724388671875,0.221294142216444,0.44146044944673773,0.46541583698652683
1772796634920380700,6.734380615234375,0.19223872812390327,0.37113925124704833,0.4487633928712457
1772796634930372600,6.74437255859375,0.18293138607442377,0.3029591567292809,0.42807555576004086
1772796634940365600,6.754365478515625,0.15262801774740217,0.251893278619647,0.34898536017127335
1772796634950357800,6.764357666015625,0.09251344852447509,0.20065204394310712,0.3846108003038913
1772796634960349400,6.774349365234375,0.040461774247884746,0.1870481737434864,0.3975159111170098
1772796634970341600,6.784341552734375,0.030125673672556877,0.1793123187944293,0.3466962628534063
1772796634980333600,6.79433349609375,-0.06532733543515205,0.15511457386612892,0.2981507518005557
1772796634990325200,6.8043251953125,-0.1581868209183216,0.15476795238554478,0.2683480264720507
1772796635000317200,6.814317138671875,-0.23414953213632106,0.1365609723046422,0.2255689882577397
1772796635010309000,6.82430908203125,-0.28559856434464453,0.07751870848834515,0.23047113588452336
1772796635020301000,6.834301025390625,-0.26307576689124107,0.051258770333230494,0.22297024046881123
1772796635030293200,6.844293212890625,-0.15937398487627505,0.0034556934118270873,0.20217607517261058
1772796635040285200,6.85428515625,-0.050175943532586094,-0.08007599175572395,0.2207044144286774
1772796635050277000,6.864277099609375,0.04549801484942436,-0.15989318644478917,0.2214925508653745
1772796635060270000,6.87427001953125,0.15508067159652708,-0.18088000650256872,0.2694868760425597
1772796635070262300,6.88426220703125,0.2373883679270744,-0.2158854150407016,0.3140940064668655
1772796635080254000,6.89425390625,0.3339876244604587,-0.2547596278361976,0.3339401320569217
1772796635090246100,6.90424609375,0.37536475998759267,-0.29007731719389557,0.41242154809758064
1772796635100238000,6.914238037109375,0.3925573023289442,-0.2975460456393659,0.4713301755968481
1772796635110230300,6.924230224609375,0.46534839777350423,-0.30897973219305275,0.45717170372176913
1772796635120222200,6.93422216796875,0.5245587116330862,-0.30633535516411065,0.4250345075637102
1772796635130214100,6.944214111328125,0.5461415978878736,-0.2853798070274293,0.3757974523164332
1772796635140206000,6.9542060546875,0.5516214906036854,-0.3040188949152827,0.3777477826666087
1772796635150198300,6.9641982421875,0.5370020136207342,-0.32726182333678006,0.4129476908635348
1772796635160190200,6.974190185546875,0.48252281993627544,-0.33439342878237366,0.475904534307681
1772796635170182100,6.98418212890625,0.4292074093341827,-0.3283434810936451,0.47446624513287095
1772796635180175000,6.994175048828125,0.3981161054998636,-0.29972002867758274,0.4670652116287499
1772796635190167300,7.004167236328125,0.34617724394798277,-0.290913037365675,0.45180414880663156
1772796635200159000,7.014158935546875,0.280066064658761,-0.32272593347281214,0.4788168780904263
1772796635210151200,7.024151123046875,0.2003326027303934,-0.33042014123722907,0.4887691304473206
1772796635220143000,7.03414306640625,0.14482055886685846,-0.37447701736763117,0.5133060442021117
1772796635230135300,7.04413525390625,0.08913257391452789,-0.3958054904699325,0.5275700588108971
1772796635240127000,7.054126953125,0.09328034124374389,-0.39052170484811066,0.5446924950581044
1772796635250119200,7.064119140625,0.14973112726211546,-0.44995384476482864,0.627325697015971
1772796635260111000,7.074111083984375,0.1627314786106348,-0.5144055664092302,0.6429137267701327
1772796635270103300,7.084103271484375,0.14810323379933832,-0.5263422340489924,0.6060203855935484
1772796635280095000,7.094094970703125,0.057357963991165155,-0.5658021377779543,0.5580761831684038
1772796635290088200,7.104088134765625,-0.07372691498994827,-0.5595476074278354,0.5630318328144028
1772796635300080000,7.114080078125,-0.1907335842579603,-0.515315959252417,0.6221903799541294
1772796635310072000,7.124072021484375,-0.22773615796267985,-0.44888869975134726,0.67876903013587
1772796635320064000,7.13406396484375,-0.1948778444558382,-0.3324994317293167,0.6813052706152201
1772796635330056200,7.14405615234375,-0.16067337703704834,-0.28317776693850755,0.7601589540343732
1772796635340048100,7.154048095703125,-0.2146095498859882,-0.2768665379650891,0.9113403531700373
1772796635350040300,7.164040283203125,-0.38071781145334244,-0.47166181870400903,1.3003284187100828
1772796635360032000,7.174031982421875,-0.4705483045041561,-0.7584282577842474,1.5323255951181054
1772796635370024200,7.184024169921875,-0.3834469441562891,-0.6606330694645642,1.0495957083024083
1772796635380016000,7.19401611328125,-0.18441314906477926,-0.33092283006235956,0.33571525197066365
1772796635390008300,7.20400830078125,-0.10241758742332457,-0.27748569277673957,0.16062438679616897
1772796635400001000,7.2140009765625,-0.03674889120459556,-0.4537092517755925,0.3401944066787138
1772796635409993200,7.2239931640625,-0.08844225356280803,-0.6455778314128517,0.4912395391488448
1772796635419985200,7.233985107421875,-0.11647592339217662,-0.5635151958845556,0.24339064054917542
1772796635429977000,7.24397705078125,-0.1945803228139877,-0.336519773286581,-0.13938450529277324
1772796635439969000,7.253968994140625,-0.37610125756859775,-0.18356383875906465,-0.2299939102942124
