time,seconds_elapsed,z,y,x
1772796628255657500,0.069657470703125,1.515539288520813,0.36264437437057495,-0.40201258659362793
1772796628265649400,0.0796494140625,1.6010891199111938,0.40652069449424744,-0.4096449613571167
1772796628275641300,0.089641357421875,1.6883000135421753,0.4326218068599701,-0.4089488089084625
1772796628285633300,0.09963330078125,1.7677682638168335,0.43911847472190857,-0.38624852895736694
1772796628295626500,0.10962646484375,1.8425530195236206,0.41946619749069214,-0.33708709478378296
1772796628305618200,0.1196181640625,1.9167441129684448,0.3890896141529083,-0.2705521285533905
1772796628315610400,0.1296103515625,1.988981008529663,0.37331491708755493,-0.20069874823093414
1772796628325602300,0.139602294921875,2.0619142055511475,0.34070953726768494,-0.14802350103855133
1772796628335594500,0.149594482421875,2.1287682056427,0.2728689908981323,-0.13282270729541779
1772796628345586200,0.159586181640625,2.201856851577759,0.1937071532011032,-0.13214382529258728
1772796628355578400,0.169578369140625,2.2744057178497314,0.16349519789218903,-0.13468767702579498
1772796628365570300,0.1795703125,2.3447153568267822,0.19653363525867462,-0.13067856431007385
1772796628375562500,0.1895625,2.4138193130493164,0.26975858211517334,-0.11931804567575455
1772796628385554400,0.199554443359375,2.469198703765869,0.33715730905532837,-0.08372969180345535
1772796628395546400,0.20954638671875,2.5226058959960938,0.34458112716674805,-0.04658539220690727
1772796628405539300,0.219539306640625,2.5799953937530518,0.2922400236129761,-0.013351969420909882
1772796628415531500,0.229531494140625,2.6271896362304688,0.18776743113994598,0.03153587877750397
1772796628425523200,0.239523193359375,2.65376615524292,0.06453721225261688,0.08346282690763474
1772796628435515400,0.249515380859375,2.6542961597442627,-0.04139081761240959,0.14399860799312592
1772796628445507300,0.25950732421875,2.6346373558044434,-0.11110038310289383,0.1958903670310974
1772796628455499500,0.26949951171875,2.6051149368286133,-0.1288420855998993,0.22228175401687622
1772796628465491200,0.2794912109375,2.5788462162017822,-0.12128069251775742,0.2051476091146469
1772796628475483400,0.2894833984375,2.5526328086853027,-0.10020577162504196,0.14615726470947266
1772796628485475300,0.299475341796875,2.5281240940093994,-0.06571467220783234,0.06683054566383362
1772796628495467500,0.309467529296875,2.505577325820923,-0.04545493796467781,-0.02293502166867256
1772796628505459200,0.319459228515625,2.4697763919830322,-0.036450643092393875,-0.08766624331474304
1772796628515452400,0.329452392578125,2.4283533096313477,-0.026400674134492874,-0.12522614002227783
1772796628525444400,0.3394443359375,2.3877694606781006,-0.02389136701822281,-0.1422002762556076
1772796628535436300,0.349436279296875,2.344348669052124,-0.03913024440407753,-0.14431162178516388
1772796628545428200,0.35942822265625,2.307427406311035,-0.07641910016536713,-0.13678239285945892
1772796628555420400,0.36942041015625,2.2569432258605957,-0.11698277294635773,-0.10959125310182571
1772796628565412400,0.379412353515625,2.1918022632598877,-0.15715275704860687,-0.07988284528255463
1772796628575404300,0.389404296875,2.1558690071105957,-0.19809938967227936,-0.036967065185308456
1772796628585396200,0.399396240234375,2.1259584426879883,-0.19098414480686188,0.014994117431342602
1772796628595388400,0.409388427734375,2.108222007751465,-0.1280757635831833,0.07204888015985489
1772796628605380400,0.41938037109375,2.08475923538208,-0.06366737186908722,0.11949452757835388
1772796628615372500,0.42937255859375,2.067391872406006,-0.036982499063014984,0.16535335779190063
1772796628625365500,0.439365478515625,2.039569139480591,-0.022731177508831024,0.2169463336467743
1772796628635357400,0.449357421875,2.006756067276001,-0.004573746118694544,0.27129852771759033
1772796628645349400,0.459349365234375,1.9501385688781738,0.049235470592975616,0.31322041153907776
1772796628655341300,0.46934130859375,1.8858283758163452,0.12748341262340546,0.3417476415634155
1772796628665333200,0.479333251953125,1.8086488246917725,0.21090981364250183,0.38969865441322327
1772796628675325400,0.489325439453125,1.7259925603866577,0.29260891675949097,0.42666172981262207
1772796628685317400,0.4993173828125,1.6660009622573853,0.35797062516212463,0.44623711705207825
1772796628695309300,0.509309326171875,1.6246511936187744,0.4203261733055115,0.4451129734516144
1772796628705301200,0.51930126953125,1.6099543571472168,0.457925021648407,0.4166226089000702
1772796628715293400,0.52929345703125,1.6044689416885376,0.49938562512397766,0.36691203713417053
1772796628725285400,0.539285400390625,1.6092880964279175,0.5590134859085083,0.32181039452552795
1772796628735278300,0.5492783203125,1.6362988948822021,0.6363404989242554,0.2622874081134796
1772796628745270500,0.5592705078125,1.7258261442184448,0.7257134318351746,0.16048261523246765
1772796628755262500,0.569262451171875,1.8242038488388062,0.8509864211082458,0.01862640306353569
1772796628765254400,0.57925439453125,1.890027642250061,0.9541294574737549,-0.09711161255836487
1772796628775246300,0.589246337890625,1.8918639421463013,1.0310790538787842,-0.16397106647491455
1772796628785238300,0.59923828125,1.8233650922775269,1.0630301237106323,-0.21709994971752167
1772796628795230500,0.60923046875,1.7374616861343384,1.0071663856506348,-0.27385538816452026
1772796628805222400,0.619222412109375,1.6456878185272217,0.9055702090263367,-0.3144466280937195
1772796628815214300,0.62921435546875,1.5650004148483276,0.8117862343788147,-0.3291930854320526
1772796628825206300,0.639206298828125,1.4967657327651978,0.7341790795326233,-0.31615132093429565
1772796628835198500,0.649198486328125,1.4396902322769165,0.6756258010864258,-0.28027746081352234
1772796628845191400,0.65919140625,1.3917410373687744,0.6561329960823059,-0.221428781747818
1772796628855183400,0.669183349609375,1.3635871410369873,0.646651566028595,-0.14713138341903687
1772796628865175600,0.679175537109375,1.3490562438964844,0.6385152339935303,-0.06947644054889679
1772796628875167500,0.68916748046875,1.3400741815567017,0.5896073579788208,0.0010930652497336268
1772796628885159400,0.699159423828125,1.3394343852996826,0.5253692865371704,0.05649006739258766
1772796628895151400,0.7091513671875,1.33744478225708,0.4877771735191345,0.0937599390745163
1772796628905143300,0.719143310546875,1.3459848165512085,0.46776431798934937,0.10765691101551056
1772796628915135500,0.729135498046875,1.3588083982467651,0.4721931517124176,0.09943733364343643
1772796628925127200,0.739127197265625,1.3730502128601074,0.48456841707229614,0.07497198134660721
1772796628935119400,0.749119384765625,1.38251531124115,0.5257965326309204,0.040183376520872116
1772796628945111300,0.759111328125,1.37132728099823,0.5373509526252747,-0.0016255209920927882
1772796628955104300,0.769104248046875,1.3574718236923218,0.5062710642814636,-0.04929610341787338
1772796628965096400,0.779096435546875,1.3425588607788086,0.4350169897079468,-0.09004776179790497
1772796628975088400,0.78908837890625,1.329337239265442,0.3092835545539856,-0.1136830523610115
1772796628985080300,0.799080322265625,1.3104512691497803,0.1764427274465561,-0.1206965446472168
1772796628995072300,0.809072265625,1.2791398763656616,0.07021002471446991,-0.12625935673713684
1772796629005064200,0.819064208984375,1.2291340827941895,0.001756193581968546,-0.12156910449266434
1772796629015056400,0.829056396484375,1.1868127584457397,-0.024484198540449142,-0.11710964143276215
1772796629025048300,0.83904833984375,1.1545612812042236,0.00008434848859906197,-0.112428218126297
1772796629035040300,0.849040283203125,1.1487529277801514,0.053156353533267975,-0.1011958047747612
1772796629045032200,0.8590322265625,1.1642367839813232,0.11200715601444244,-0.0884493812918663
1772796629055025400,0.869025390625,1.1882933378219604,0.17112533748149872,-0.07492798566818237
1772796629065017300,0.879017333984375,1.2159055471420288,0.20932592451572418,-0.05791296064853668
1772796629075009300,0.88900927734375,1.2506709098815918,0.2281174659729004,-0.042834676802158356
1772796629085001200,0.899001220703125,1.28108549118042,0.22503677010536194,-0.03705349937081337
1772796629094993400,0.908993408203125,1.3025401830673218,0.18655171990394592,-0.029886934906244278
1772796629104985300,0.9189853515625,1.2991230487823486,0.10170803964138031,-0.024930361658334732
1772796629114977300,0.928977294921875,1.2724562883377075,-0.017595719546079636,-0.023824350908398628
1772796629124969200,0.93896923828125,1.2179157733917236,-0.14142651855945587,-0.03766854479908943
1772796629134961400,0.94896142578125,1.1378254890441895,-0.25203025341033936,-0.0684424415230751
1772796629144953300,0.958953369140625,1.0493031740188599,-0.36169591546058655,-0.11796022206544876
1772796629154945300,0.9689453125,0.9625970721244812,-0.4159495532512665,-0.1690913289785385
1772796629164938200,0.978938232421875,0.9332923293113708,-0.3137798309326172,-0.31598320603370667
1772796629174930400,0.988930419921875,0.9026632905006409,-0.18493182957172394,-0.3525494635105133
1772796629184922000,0.998922119140625,0.8989340662956238,-0.08411715179681778,-0.34698912501335144
1772796629194914300,1.008914306640625,0.924613893032074,0.052256129682064056,-0.3690249025821686
1772796629204906200,1.01890625,0.9570780992507935,0.19797183573246002,-0.3695518374443054
1772796629214898400,1.0288984375,0.9952673316001892,0.3368775248527527,-0.3681981563568115
1772796629224890000,1.03889013671875,1.043878436088562,0.4608725309371948,-0.3598951995372772
1772796629234882300,1.04888232421875,1.09934401512146,0.558440089225769,-0.33760401606559753
1772796629244874200,1.058874267578125,1.157642126083374,0.5842586755752563,-0.30700188875198364
1772796629254866400,1.068866455078125,1.2372045516967773,0.5405575037002563,-0.26964280009269714
1772796629264858400,1.0788583984375,1.3344959020614624,0.49167484045028687,-0.22817139327526093
1772796629274851300,1.088851318359375,1.44749915599823,0.46740201115608215,-0.18003128468990326
1772796629284843300,1.09884326171875,1.5675917863845825,0.47119539976119995,-0.1203455999493599
1772796629294835500,1.10883544921875,1.6793142557144165,0.4891616106033325,-0.05348614230751991
1772796629304827100,1.1188271484375,1.7589690685272217,0.4988435208797455,0.02247394062578678
1772796629314819300,1.1288193359375,1.808531403541565,0.517505407333374,0.09934289008378983
1772796629324811300,1.138811279296875,1.8228894472122192,0.5687083601951599,0.16288258135318756
1772796629334803500,1.148803466796875,1.827523112297058,0.6426153182983398,0.20135913789272308
1772796629344795100,1.158795166015625,1.8303817510604858,0.728388786315918,0.200077086687088
1772796629354787300,1.168787353515625,1.8372350931167603,0.8021469116210938,0.15934936702251434
1772796629364779300,1.178779296875,1.8554621934890747,0.8247376680374146,0.08570205420255661
1772796629374771500,1.188771484375,1.8859713077545166,0.7829359173774719,-0.005942906253039837
1772796629384764200,1.19876416015625,1.922725796699524,0.713954508304596,-0.10458554327487946
1772796629394756400,1.20875634765625,1.9585589170455933,0.6297789216041565,-0.18408195674419403
1772796629404748300,1.218748291015625,1.9721946716308594,0.5028241872787476,-0.2590961158275604
1772796629414740200,1.228740234375,1.9648840427398682,0.37541645765304565,-0.3198622465133667
1772796629424732200,1.238732177734375,1.9442075490951538,0.2805795967578888,-0.3585420846939087
1772796629434724400,1.248724365234375,1.9239726066589355,0.22995077073574066,-0.36369743943214417
1772796629444716300,1.25871630859375,1.8953036069869995,0.2109067440032959,-0.35686737298965454
1772796629454708200,1.268708251953125,1.8610817193984985,0.19679518043994904,-0.33465927839279175
1772796629464700200,1.2787001953125,1.8246581554412842,0.1959383189678192,-0.3059179484844208
1772796629474692400,1.2886923828125,1.7881697416305542,0.2038247287273407,-0.2713940441608429
1772796629484684300,1.298684326171875,1.7536015510559082,0.1966329962015152,-0.23912875354290009
1772796629494676200,1.30867626953125,1.7175428867340088,0.15363653004169464,-0.20545920729637146
1772796629504669200,1.318669189453125,1.6821922063827515,0.07701767981052399,-0.1693548709154129
1772796629514661400,1.328661376953125,1.6576766967773438,-0.00972972996532917,-0.11799661070108414
1772796629524653300,1.3386533203125,1.6406817436218262,-0.07796764373779297,-0.05630820617079735
1772796629534645200,1.348645263671875,1.6391688585281372,-0.0929362028837204,0.013012809678912163
1772796629544637200,1.35863720703125,1.6500577926635742,-0.055719275027513504,0.0894603580236435
1772796629554629400,1.36862939453125,1.6578006744384766,0.017703810706734657,0.15257355570793152
1772796629564621300,1.378621337890625,1.6531926393508911,0.1143534779548645,0.2134878784418106
1772796629574613200,1.38861328125,1.634390950202942,0.21932490170001984,0.261442095041275
1772796629584605200,1.398605224609375,1.6030209064483643,0.3185034394264221,0.2906440496444702
1772796629594597400,1.408597412109375,1.5642931461334229,0.4049059748649597,0.2981967628002167
1772796629604590000,1.418590087890625,1.5172942876815796,0.4613072872161865,0.28914347290992737
1772796629614582300,1.428582275390625,1.462175965309143,0.46689432859420776,0.26487621665000916
1772796629624574200,1.43857421875,1.4087719917297363,0.41241854429244995,0.24249567091464996
1772796629634566400,1.44856640625,1.3493925333023071,0.3480374217033386,0.21354444324970245
1772796629644558000,1.45855810546875,1.2810896635055542,0.28811588883399963,0.18258848786354065
1772796629654550300,1.46855029296875,1.2102245092391968,0.24241524934768677,0.15079806745052338
1772796629664542200,1.478542236328125,1.1287777423858643,0.20367231965065002,0.10999712347984314
1772796629674534400,1.488534423828125,1.054436445236206,0.17427074909210205,0.0739445835351944
1772796629684526000,1.498526123046875,0.9839773178100586,0.1605169028043747,0.04299119859933853
1772796629694518300,1.508518310546875,0.9307569861412048,0.15871794521808624,0.02040785923600197
1772796629704510200,1.51851025390625,0.8872706890106201,0.16799968481063843,0.000008676026482135057
1772796629714502400,1.52850244140625,0.8526301980018616,0.18680745363235474,-0.02025904506444931
1772796629724495000,1.5384951171875,0.8233174681663513,0.2133164405822754,-0.045233871787786484
1772796629734487300,1.5484873046875,0.8018329739570618,0.24953170120716095,-0.0683482438325882
1772796629744479200,1.558479248046875,0.7875784039497375,0.28911828994750977,-0.09644053131341934
1772796629754471400,1.568471435546875,0.7855834364891052,0.3017035722732544,-0.1272333264350891
1772796629764463000,1.578463134765625,0.7973138093948364,0.289434552192688,-0.16248156130313873
1772796629774455300,1.588455322265625,0.8203533291816711,0.24881519377231598,-0.20268011093139648
1772796629784447200,1.598447265625,0.8354772925376892,0.20139865577220917,-0.239772230386734
1772796629794439400,1.608439453125,0.8495755195617676,0.1472211629152298,-0.2695341408252716
1772796629804431000,1.61843115234375,0.866096556186676,0.0730886459350586,-0.29012447595596313
1772796629814423300,1.62842333984375,0.8814268112182617,-0.002165097277611494,-0.2925325036048889
1772796629824415200,1.638415283203125,0.9017490744590759,-0.055586520582437515,-0.2806202471256256
1772796629834408200,1.648408203125,0.9151972532272339,-0.06573902815580368,-0.24643486738204956
1772796629844400000,1.658400146484375,0.9224401116371155,-0.040913283824920654,-0.19646337628364563
1772796629854392300,1.668392333984375,0.9174400568008423,-0.003202922875061631,-0.14376528561115265
1772796629864384300,1.67838427734375,0.9013504981994629,0.03758225217461586,-0.09218181669712067
1772796629874376200,1.688376220703125,0.8776022791862488,0.05886676535010338,-0.05034142732620239
1772796629884368100,1.6983681640625,0.8481700420379639,0.06447037309408188,-0.016035204753279686
1772796629894360300,1.7083603515625,0.8262905478477478,0.08269491791725159,0.01026537548750639
1772796629904352300,1.718352294921875,0.8172076940536499,0.09852028638124466,0.039098870009183884
1772796629914344200,1.72834423828125,0.8097332715988159,0.10654119402170181,0.07073908299207687
1772796629924336000,1.738336181640625,0.797872006893158,0.12508761882781982,0.10250509530305862
1772796629934328300,1.748328369140625,0.7849564552307129,0.143976628780365,0.13256286084651947
1772796629944321300,1.7583212890625,0.76923668384552,0.16840703785419464,0.16285575926303864
1772796629954313200,1.768313232421875,0.7533379197120667,0.1970357596874237,0.19273190200328827
1772796629964305200,1.77830517578125,0.7471809983253479,0.22596663236618042,0.22377705574035645
1772796629974297300,1.78829736328125,0.752701461315155,0.2984280586242676,0.2595060169696808
1772796629984288800,1.798288818359375,0.7747686505317688,0.4257500171661377,0.3182702660560608
1772796629994280700,1.80828076171875,0.7999600768089294,0.5808237195014954,0.38280850648880005
1772796630004272600,1.818272705078125,0.8158706426620483,0.7167568802833557,0.4476057291030884
1772796630014264800,1.828264892578125,0.82396000623703,0.7340126037597656,0.47276434302330017
1772796630024256800,1.8382568359375,0.7832027077674866,0.5202285647392273,0.42991670966148376
1772796630034248700,1.848248779296875,0.6540109515190125,0.0979580283164978,0.3047630488872528
1772796630044240600,1.85824072265625,0.45942243933677673,-0.35820284485816956,0.1640932261943817
1772796630054233900,1.86823388671875,0.2531483769416809,-0.7099321484565735,0.05200343206524849
1772796630064225800,1.878225830078125,0.11055448651313782,-0.8444487452507019,0.025159204378724098
1772796630074217700,1.8882177734375,0.030816247686743736,-0.8191244602203369,0.07286787033081055
1772796630084209700,1.898209716796875,-0.003560182638466358,-0.6930599808692932,0.15486152470111847
1772796630094201900,1.908201904296875,0.00397949293255806,-0.4426075518131256,0.25792476534843445
1772796630104193800,1.91819384765625,0.06071384251117706,-0.08177672326564789,0.3656948208808899
1772796630114185700,1.928185791015625,0.17256608605384827,0.33381861448287964,0.48835471272468567
1772796630124177700,1.938177734375,0.3357318043708801,0.7398548722267151,0.6063191890716553
1772796630134169900,1.948169921875,0.5238226056098938,1.0943048000335693,0.7145596146583557
1772796630144161800,1.958161865234375,0.7094215154647827,1.3508939743041992,0.7834041714668274
1772796630154153700,1.96815380859375,0.8779721856117249,1.5187567472457886,0.8064399361610413
1772796630164146700,1.978146728515625,1.0193533897399902,1.5910660028457642,0.7733494639396667
1772796630174139000,1.988138916015625,1.1247442960739136,1.5142858028411865,0.7006494402885437
1772796630184130600,1.998130615234375,1.1741304397583008,1.3189243078231812,0.5845105648040771
1772796630194122800,2.008122802734375,1.169563889503479,1.0684481859207153,0.4410053491592407
1772796630204114700,2.01811474609375,1.1178609132766724,0.8058834671974182,0.30338966846466064
1772796630214107000,2.02810693359375,1.0240193605422974,0.5805267691612244,0.1828496754169464
1772796630224098600,2.0380986328125,0.8980769515037537,0.40146923065185547,0.09582999348640442
1772796630234090800,2.0480908203125,0.7524380087852478,0.25312450528144836,0.03619862347841263
1772796630244082700,2.058082763671875,0.6077752709388733,0.12748031318187714,0.003893613815307617
1772796630254075000,2.068074951171875,0.47722843289375305,0.031391341239213943,-0.0038868109695613384
1772796630264066800,2.07806689453125,0.37647944688796997,-0.037527166306972504,0.005174160003662109
1772796630274059800,2.088059814453125,0.30810463428497314,-0.07751559466123581,0.026698093861341476
1772796630284051700,2.0980517578125,0.26487308740615845,-0.07204422354698181,0.04783690348267555
1772796630294044000,2.1080439453125,0.23640470206737518,-0.043366774916648865,0.04673941433429718
1772796630304035600,2.11803564453125,0.22863957285881042,-0.0032189323101192713,0.02566024288535118
1772796630314027800,2.12802783203125,0.24879704415798187,0.0321691520512104,-0.01023890171200037
1772796630324019700,2.138019775390625,0.27920621633529663,0.0868966355919838,-0.056540168821811676
1772796630334012000,2.148011962890625,0.3098565340042114,0.15809758007526398,-0.11820434033870697
1772796630344003600,2.158003662109375,0.3266564905643463,0.2191227227449417,-0.17528802156448364
1772796630353995800,2.167995849609375,0.34055712819099426,0.24539507925510406,-0.24132509529590607
1772796630363987700,2.17798779296875,0.3650006055831909,0.24440637230873108,-0.29973912239074707
1772796630373980000,2.18797998046875,0.42450278997421265,0.21441945433616638,-0.3438335955142975
1772796630383971600,2.1979716796875,0.5177539587020874,0.1571042388677597,-0.36581555008888245
1772796630393964800,2.20796484375,0.6293577551841736,0.10287084430456161,-0.37015780806541443
1772796630403956700,2.217956787109375,0.7367982864379883,0.08655902743339539,-0.35917553305625916
1772796630413948700,2.22794873046875,0.8045728206634521,0.09596291184425354,-0.33832404017448425
1772796630423940600,2.237940673828125,0.8249585032463074,0.1108333021402359,-0.32005253434181213
1772796630433932800,2.247932861328125,0.819832444190979,0.12573447823524475,-0.30826273560523987
1772796630443924700,2.2579248046875,0.8520346879959106,0.15461550652980804,-0.27113622426986694
1772796630453916700,2.267916748046875,0.927992045879364,0.1949232518672943,-0.21035516262054443
1772796630463908600,2.27790869140625,1.0224714279174805,0.22946526110172272,-0.13209757208824158
1772796630473900800,2.28790087890625,1.017059326171875,0.20933255553245544,-0.08282963186502457
1772796630483892700,2.297892822265625,0.7823062539100647,0.1786753237247467,-0.10033486038446426
1772796630493885000,2.307885009765625,0.28918495774269104,0.2833881676197052,-0.17334434390068054
1772796630503877600,2.317877685546875,-0.3249479830265045,0.4276255965232849,-0.25982508063316345
1772796630513869800,2.327869873046875,-0.8328626155853271,0.4113619327545166,-0.34037184715270996
1772796630523861800,2.33786181640625,-1.0332759618759155,0.13371935486793518,-0.3756314814090729
1772796630533853700,2.347853759765625,-0.8729640245437622,-0.330596387386322,-0.3525432050228119
1772796630543845600,2.357845703125,-0.4617650806903839,-0.7838866710662842,-0.2643319070339203
1772796630553837800,2.367837890625,0.0023591765202581882,-1.0342355966567993,-0.13086307048797607
1772796630563829800,2.377829833984375,0.32773035764694214,-0.9990079998970032,0.018773607909679413
1772796630573821700,2.38782177734375,0.4310338497161865,-0.7506645321846008,0.14373205602169037
1772796630583813600,2.397813720703125,0.3580724596977234,-0.4358234405517578,0.21301151812076569
1772796630593805800,2.407805908203125,0.20519877970218658,-0.20426981151103973,0.21886487305164337
1772796630603797800,2.4177978515625,0.05499971657991409,-0.11155390739440918,0.16538046300411224
1772796630613790700,2.427790771484375,-0.03871691972017288,-0.10517563670873642,0.06731861084699631
1772796630623783000,2.437782958984375,-0.06200631707906723,-0.13291406631469727,-0.0543341264128685
1772796630633774800,2.44777490234375,-0.0763666182756424,-0.14290039241313934,-0.18481303751468658
1772796630643766500,2.4577666015625,-0.1313174068927765,-0.15707272291183472,-0.3256519138813019
1772796630653758700,2.4677587890625,-0.22257274389266968,-0.20026786625385284,-0.4334856867790222
1772796630663750700,2.477750732421875,-0.2897612452507019,-0.24059200286865234,-0.4825531244277954
1772796630673742800,2.487742919921875,-0.3225889801979065,-0.22544100880622864,-0.4659683108329773
1772796630683734500,2.497734619140625,-0.3460574448108673,-0.1362549215555191,-0.41495609283447266
1772796630693726700,2.507726806640625,-0.3857281804084778,0.004891556687653065,-0.348580002784729
1772796630703718700,2.51771875,-0.44105175137519836,0.19654767215251923,-0.28646397590637207
1772796630713710800,2.5277109375,-0.5050334334373474,0.41588905453681946,-0.2477644830942154
1772796630723703800,2.537703857421875,-0.5704518556594849,0.6082018613815308,-0.24456486105918884
1772796630733695700,2.54769580078125,-0.6177706122398376,0.7097620368003845,-0.2739885449409485
1772796630743688000,2.55768798828125,-0.6326290369033813,0.711860179901123,-0.3117697536945343
1772796630753680000,2.567679931640625,-0.6259551644325256,0.6041675209999084,-0.3438355624675751
1772796630763671600,2.577671630859375,-0.6073233485221863,0.40164196491241455,-0.3700576722621918
1772796630773663700,2.587663818359375,-0.5896630883216858,0.11742702126502991,-0.37358608841896057
1772796630783655700,2.59765576171875,-0.5624202489852905,-0.198222354054451,-0.360699325799942
1772796630793647900,2.60764794921875,-0.5294575095176697,-0.4951823949813843,-0.33674687147140503
1772796630803639600,2.6176396484375,-0.4793147146701813,-0.7274559736251831,-0.30703628063201904
1772796630813631700,2.6276318359375,-0.42019280791282654,-0.8852594494819641,-0.27459579706192017
1772796630823623700,2.637623779296875,-0.37220489978790283,-0.962966799736023,-0.252945214509964
1772796630833616600,2.64761669921875,-0.34325847029685974,-0.9759928584098816,-0.23489348590373993
1772796630843608800,2.65760888671875,-0.32283827662467957,-0.9238373637199402,-0.220545694231987
1772796630853600800,2.667600830078125,-0.2998669147491455,-0.8089797496795654,-0.21081876754760742
1772796630863593000,2.677593017578125,-0.2843180298805237,-0.6248131990432739,-0.20839135348796844
1772796630873584600,2.687584716796875,-0.2736528515815735,-0.39065712690353394,-0.20954130589962006
1772796630883576800,2.697576904296875,-0.2880299389362335,-0.14074459671974182,-0.2097877562046051
1772796630893568800,2.70756884765625,-0.3132447302341461,0.09727302193641663,-0.2020139843225479
1772796630903560700,2.717560791015625,-0.34198880195617676,0.28984692692756653,-0.19096755981445312
1772796630913552600,2.727552734375,-0.35535067319869995,0.3841153681278229,-0.17929759621620178
1772796630923544600,2.737544677734375,-0.34769579768180847,0.34713974595069885,-0.1750641018152237
1772796630933536800,2.747536865234375,-0.32221201062202454,0.18743343651294708,-0.1711343377828598
1772796630943528700,2.75752880859375,-0.2975125312805176,-0.04664244130253792,-0.1637752205133438
1772796630953521700,2.767521728515625,-0.2688460052013397,-0.2855965197086334,-0.13221979141235352
1772796630963513900,2.777513916015625,-0.246918722987175,-0.4384464919567108,-0.062142264097929
1772796630973505800,2.787505859375,-0.2346799075603485,-0.473734974861145,0.03693345561623573
1772796630983498200,2.797498291015625,-0.23440054059028625,-0.4177785813808441,0.14821459352970123
1772796630993490400,2.807490478515625,-0.22903665900230408,-0.32113727927207947,0.25856563448905945
1772796631003482400,2.817482421875,-0.2198372632265091,-0.20284023880958557,0.35569456219673157
1772796631013474600,2.827474609375,-0.20471397042274475,-0.09898415207862854,0.42924973368644714
1772796631023466200,2.83746630859375,-0.18280982971191406,-0.024388175457715988,0.4642960727214813
1772796631033458400,2.84745849609375,-0.15579737722873688,0.003796858247369528,0.46764203906059265
1772796631043450400,2.857450439453125,-0.1357003003358841,-0.00847015343606472,0.44227370619773865
1772796631053442600,2.867442626953125,-0.11627068370580673,-0.038714874535799026,0.40278807282447815
1772796631063435300,2.877435302734375,-0.09778713434934616,-0.08426856249570847,0.36586156487464905
1772796631073427500,2.887427490234375,-0.07244076579809189,-0.13036814332008362,0.34776273369789124
1772796631083419400,2.89741943359375,-0.03605680167675018,-0.11760116368532181,0.35495877265930176
1772796631093411300,2.907411376953125,0.011267038993537426,-0.039542052894830704,0.39197272062301636
1772796631103403300,2.9174033203125,0.06652462482452393,-0.004828748758882284,0.43854233622550964
1772796631113395500,2.9273955078125,0.08858545124530792,-0.10235823690891266,0.4471645951271057
1772796631123387400,2.937387451171875,0.06371907144784927,-0.27336061000823975,0.40651947259902954
1772796631133379600,2.947379638671875,0.019130034372210503,-0.3723849356174469,0.3297879695892334
1772796631143371300,2.957371337890625,-0.020468520000576973,-0.33435264229774475,0.25809505581855774
1772796631153363500,2.967363525390625,-0.02574557438492775,-0.19512899219989777,0.19012083113193512
1772796631163355400,2.97735546875,-0.019033262506127357,-0.00833146646618843,0.12082592397928238
1772796631173348400,2.987348388671875,-0.00365750165656209,0.16433937847614288,0.05194699391722679
1772796631183340300,2.99734033203125,0.024951910600066185,0.30874231457710266,-0.016296161338686943
1772796631193332500,3.00733251953125,0.07359933853149414,0.39936304092407227,-0.07049787789583206
1772796631203324400,3.017324462890625,0.1394195556640625,0.4432201087474823,-0.10748724639415741
1772796631213316400,3.02731640625,0.20771658420562744,0.4357621967792511,-0.1157534271478653
1772796631223308300,3.037308349609375,0.2704213559627533,0.36929580569267273,-0.10111793875694275
1772796631233300500,3.047300537109375,0.31670549511909485,0.2575032114982605,-0.07398725301027298
1772796631243292400,3.05729248046875,0.3532066345214844,0.1179216280579567,-0.03639953210949898
1772796631253284400,3.067284423828125,0.379193514585495,-0.0015845280140638351,0.011354142799973488
1772796631263276300,3.0772763671875,0.39794212579727173,-0.10473416745662689,0.06203185021877289
1772796631273268500,3.0872685546875,0.4181632399559021,-0.2149413675069809,0.10630051046609879
1772796631283261200,3.09726123046875,0.4339058995246887,-0.31290748715400696,0.1480538547039032
1772796631293253400,3.10725341796875,0.454728364944458,-0.3913852572441101,0.17702211439609528
1772796631303245300,3.117245361328125,0.47888609766960144,-0.4511178135871887,0.19538481533527374
1772796631313237500,3.127237548828125,0.49656257033348083,-0.494991272687912,0.20520922541618347
1772796631323229400,3.1372294921875,0.5129939913749695,-0.5135776996612549,0.21589119732379913
1772796631333221400,3.147221435546875,0.5205184817314148,-0.4761277735233307,0.2367597371339798
1772796631343213300,3.15721337890625,0.5191921591758728,-0.3747735321521759,0.25822997093200684
1772796631353205500,3.16720556640625,0.5073554515838623,-0.24574074149131775,0.28196272253990173
1772796631363197400,3.177197509765625,0.4865820109844208,-0.08415557444095612,0.3065410554409027
1772796631373189400,3.187189453125,0.45905157923698425,0.08943618834018707,0.3338152766227722
1772796631383181300,3.197181396484375,0.4171961545944214,0.24239791929721832,0.3545815646648407
1772796631393173500,3.207173583984375,0.37320420145988464,0.3395864963531494,0.36974453926086426
1772796631403166200,3.217166259765625,0.330108106136322,0.3668312728404999,0.378155916929245
1772796631413158400,3.227158447265625,0.29421961307525635,0.32874807715415955,0.3753468096256256
1772796631423150300,3.237150390625,0.261610746383667,0.23434263467788696,0.35529518127441406
1772796631433142500,3.247142578125,0.23379188776016235,0.10109429061412811,0.3196852505207062
1772796631443134200,3.25713427734375,0.2100321501493454,0.009814513847231865,0.2791396677494049
1772796631453126400,3.26712646484375,0.16979151964187622,-0.009774367325007915,0.23415301740169525
1772796631463118300,3.277118408203125,0.12038952857255936,0.042830850929021835,0.17912542819976807
1772796631473110500,3.287110595703125,0.05794160068035126,0.12795639038085938,0.11869990825653076
1772796631483102200,3.297102294921875,0.005396753549575806,0.20881548523902893,0.05841450020670891
1772796631493094400,3.307094482421875,-0.03061903640627861,0.27034327387809753,0.008465315215289593
1772796631503086300,3.31708642578125,-0.0459410659968853,0.32078152894973755,-0.026745639741420746
1772796631513079300,3.327079345703125,-0.05020159110426903,0.3719232678413391,-0.04405645281076431
1772796631523071200,3.3370712890625,-0.05302960053086281,0.414333313703537,-0.05446355417370796
1772796631533063400,3.3470634765625,-0.053303640335798264,0.4436752200126648,-0.053631048649549484
1772796631543055400,3.357055419921875,-0.05426768213510513,0.46284031867980957,-0.038057997822761536
1772796631553047300,3.36704736328125,-0.048320841044187546,0.4702572226524353,-0.01543364580720663
1772796631563039200,3.377039306640625,-0.043281909078359604,0.45649421215057373,0.006966351065784693
1772796631573031400,3.387031494140625,-0.037146251648664474,0.4256494641304016,0.029754221439361572
1772796631583023400,3.3970234375,-0.030757660046219826,0.3829018473625183,0.047708772122859955
1772796631593015600,3.407015625,-0.019742825999855995,0.35517755150794983,0.05961336940526962
1772796631603007200,3.41700732421875,-0.0005447989096865058,0.34742075204849243,0.06550674140453339
1772796631612999400,3.42699951171875,0.03505713865160942,0.35913896560668945,0.06715763360261917
1772796631622991400,3.436991455078125,0.07780630886554718,0.3893168270587921,0.06105966493487358
1772796631632984300,3.446984375,0.12709291279315948,0.420143723487854,0.05142487958073616
1772796631642976300,3.456976318359375,0.1731996238231659,0.441165030002594,0.03115353174507618
1772796631652968400,3.466968505859375,0.22046461701393127,0.4409879446029663,0.006190658546984196
1772796631662960400,3.47696044921875,0.2615719735622406,0.4158858358860016,-0.01641588658094406
1772796631672952300,3.486952392578125,0.29205530881881714,0.3803377151489258,-0.04061496630311012
1772796631682944300,3.4969443359375,0.3241564929485321,0.3416140675544739,-0.0616571307182312
1772796631692936400,3.5069365234375,0.3573530614376068,0.31350067257881165,-0.07699534296989441
1772796631702928400,3.516928466796875,0.3985842764377594,0.28066253662109375,-0.08032549172639847
1772796631712920300,3.52692041015625,0.45541346073150635,0.2570139169692993,-0.06473933905363083
1772796631722912300,3.536912353515625,0.5290928483009338,0.2426941692829132,-0.045012131333351135
1772796631732904400,3.546904541015625,0.6028909087181091,0.22894051671028137,-0.020745137706398964
1772796631742897200,3.556897216796875,0.6677990555763245,0.21858882904052734,0.008649302646517754
1772796631752889300,3.566889404296875,0.7107334733009338,0.2123333215713501,0.04665767028927803
1772796631762881300,3.57688134765625,0.7331070899963379,0.21771711111068726,0.07903267443180084
1772796631772873500,3.58687353515625,0.7493119239807129,0.22883901000022888,0.11014824360609055
1772796631782865400,3.596865478515625,0.7693811655044556,0.24286092817783356,0.14364026486873627
1772796631792857300,3.606857421875,0.806991696357727,0.23399339616298676,0.170654296875
1772796631802849300,3.616849365234375,0.8537107706069946,0.2182818204164505,0.19314396381378174
1772796631812841500,3.626841552734375,0.8972859382629395,0.20754209160804749,0.20882198214530945
1772796631822833400,3.63683349609375,0.9324008822441101,0.20939300954341888,0.21849685907363892
1772796631832825300,3.646825439453125,0.9357948303222656,0.20345361530780792,0.21889500319957733
1772796631842817300,3.6568173828125,0.9209634065628052,0.18231549859046936,0.20917920768260956
1772796631852810500,3.666810546875,0.8927597403526306,0.14789548516273499,0.2005489617586136
1772796631862802200,3.67680224609375,0.8636141419410706,0.113355353474617,0.19478829205036163
1772796631872794400,3.68679443359375,0.8396493792533875,0.09167616069316864,0.18936848640441895
1772796631882786300,3.696786376953125,0.8243329524993896,0.08974844217300415,0.19114944338798523
1772796631892778500,3.706778564453125,0.8363909721374512,0.11355603486299515,0.20281729102134705
1772796631902770200,3.716770263671875,0.8668052554130554,0.17514196038246155,0.23388110101222992
1772796631912762400,3.726762451171875,0.9083646535873413,0.29617732763290405,0.27978095412254333
1772796631922754300,3.73675439453125,0.958894670009613,0.5274032354354858,0.3392130732536316
1772796631932746500,3.74674658203125,1.0250324010849,0.8519262075424194,0.40367406606674194
1772796631942738200,3.75673828125,1.1157782077789307,1.0204389095306396,0.4546941816806793
1772796631952730400,3.76673046875,1.1699192523956299,0.8636838793754578,0.4222089350223541
1772796631962723600,3.7767236328125,1.1521596908569336,0.4587879478931427,0.2997313141822815
1772796631972715300,3.78671533203125,1.0743330717086792,0.02772471308708191,0.1414490044116974
1772796631982707200,3.796707275390625,0.9894462823867798,-0.21803966164588928,0.02061264030635357
1772796631992699100,3.80669921875,0.9426124691963196,-0.24970971047878265,-0.026457400992512703
1772796632002691300,3.81669140625,0.9070558547973633,-0.14012353122234344,-0.02301834709942341
1772796632012683300,3.826683349609375,0.8707141280174255,0.04521597921848297,0.0027546612545847893
1772796632022675200,3.83667529296875,0.8434475660324097,0.2867368757724762,0.046809837222099304
1772796632032667100,3.846667236328125,0.8249180912971497,0.536121129989624,0.09717021137475967
1772796632042659300,3.856659423828125,0.8302503228187561,0.6955699920654297,0.13836756348609924
1772796632052651300,3.8666513671875,0.8483864665031433,0.700482964515686,0.15945766866207123
1772796632062643200,3.876643310546875,0.8685024976730347,0.5520645976066589,0.1702946424484253
1772796632072635100,3.88663525390625,0.8855056762695312,0.32285383343696594,0.17717759311199188
1772796632082628400,3.89662841796875,0.8851283192634583,0.12326766550540924,0.1791042685508728
1772796632092620300,3.906620361328125,0.8764251470565796,0.017176376655697823,0.17362268269062042
1772796632102612200,3.9166123046875,0.8494560122489929,0.016167741268873215,0.15814392268657684
1772796632112604200,3.926604248046875,0.8176722526550293,0.0824144035577774,0.1229337528347969
1772796632122596400,3.936596435546875,0.7906158566474915,0.18158678710460663,0.07925577461719513
1772796632132588000,3.946588134765625,0.7690884470939636,0.2565598487854004,0.02853960357606411
1772796632142580200,3.956580322265625,0.7593843936920166,0.2846187353134155,-0.026383250951766968
1772796632152572200,3.966572265625,0.757716715335846,0.2815411686897278,-0.08972786366939545
1772796632162564400,3.976564453125,0.7673687934875488,0.2621941566467285,-0.14401794970035553
1772796632172556300,3.986556396484375,0.7802425026893616,0.22615839540958405,-0.1976790577173233
1772796632182548200,3.99654833984375,0.7867662310600281,0.1947968751192093,-0.24012994766235352
1772796632192541400,4.00654150390625,0.7822540402412415,0.17544128000736237,-0.269502729177475
1772796632202533000,4.016533203125,0.7789852023124695,0.14498144388198853,-0.2818838059902191
1772796632212525300,4.026525390625,0.7815501093864441,0.11078672111034393,-0.2881866991519928
1772796632222517200,4.036517333984375,0.7868486642837524,0.0633791908621788,-0.2867894768714905
1772796632232509200,4.04650927734375,0.7947118878364563,0.009602777659893036,-0.27468782663345337
1772796632242501400,4.05650146484375,0.7997366189956665,-0.027945687994360924,-0.2580530643463135
1772796632252493000,4.0664931640625,0.8058038353919983,-0.04042579233646393,-0.245423823595047
1772796632262485200,4.0764853515625,0.8031536340713501,-0.05668715387582779,-0.2344890534877777
1772796632272477200,4.086477294921875,0.81061851978302,-0.08148305118083954,-0.22910255193710327
1772796632282469400,4.096469482421875,0.817322313785553,-0.07568158954381943,-0.23240447044372559
1772796632292461000,4.1064609375,0.8341189026832581,-0.019718194380402565,-0.24380652606487274
1772796632302454300,4.116454345703125,0.8493347764015198,0.06440750509500504,-0.2656678259372711
1772796632312446500,4.126446533203125,0.8461823463439941,0.12282713502645493,-0.30098557472229004
1772796632322438100,4.136438232421875,0.8342664241790771,0.12369178980588913,-0.34421053528785706
1772796632332430300,4.146430419921875,0.8239437341690063,0.08136483281850815,-0.3870229721069336
1772796632342422300,4.15642236328125,0.8200021386146545,0.030007081106305122,-0.42472147941589355
1772796632352414500,4.16641455078125,0.8245484232902527,-0.009935274720191956,-0.454019695520401
1772796632362406100,4.17640625,0.8465172052383423,-0.017531439661979675,-0.47097358107566833
1772796632372398000,4.186398193359375,0.8756247758865356,0.015697352588176727,-0.4673894941806793
1772796632382390300,4.196390380859375,0.9042667746543884,0.06576671451330185,-0.45325446128845215
1772796632392382200,4.20638232421875,0.9305998682975769,0.12687134742736816,-0.43185675144195557
1772796632402374100,4.2163740234375,0.9622505307197571,0.20069532096385956,-0.401704341173172
1772796632412366000,4.226365966796875,1.0025949478149414,0.26541760563850403,-0.3675362467765808
1772796632422359300,4.236359375,1.0425443649291992,0.31281256675720215,-0.34171363711357117
1772796632432351200,4.246351318359375,1.0870356559753418,0.33693602681159973,-0.31462183594703674
1772796632442343200,4.25634326171875,1.121811032295227,0.3404805362224579,-0.28799471259117126
1772796632452335400,4.26633544921875,1.14626944065094,0.3185217082500458,-0.25736862421035767
1772796632462327300,4.276327392578125,1.1593400239944458,0.27494779229164124,-0.2268587052822113
1772796632472319500,4.286319580078125,1.1630948781967163,0.24269823729991913,-0.1933622658252716
1772796632482311200,4.296311279296875,1.159511685371399,0.22278103232383728,-0.16887737810611725
1772796632492303400,4.306303466796875,1.1451950073242188,0.20586809515953064,-0.15677917003631592
1772796632502295300,4.31629541015625,1.126101016998291,0.17892171442508698,-0.1622835248708725
1772796632512287200,4.326287353515625,1.1061725616455078,0.1419415920972824,-0.17430557310581207
1772796632522279200,4.336279052734375,1.099599838256836,0.11599864065647125,-0.19388657808303833
1772796632532272400,4.3462724609375,1.0930354595184326,0.10055869817733765,-0.21242190897464752
1772796632542264300,4.356264404296875,1.086133599281311,0.08439970016479492,-0.2281191200017929
1772796632552256300,4.36625634765625,1.0720007419586182,0.07221333682537079,-0.23914913833141327
1772796632562248200,4.376248291015625,1.0532327890396118,0.07866349071264267,-0.2424878031015396
1772796632572240400,4.386240478515625,1.0248000621795654,0.08875420689582825,-0.24238421022891998
1772796632582232300,4.396232421875,1.0062682628631592,0.09205932170152664,-0.23993173241615295
1772796632592224300,4.406224365234375,0.9857279062271118,0.0856299176812172,-0.23643100261688232
1772796632602216200,4.41621630859375,0.9674391746520996,0.07257122546434402,-0.23273304104804993
1772796632612208400,4.42620849609375,0.9432856440544128,0.051444098353385925,-0.2296919822692871
1772796632622200300,4.436200439453125,0.9234302639961243,0.028393128886818886,-0.22394101321697235
1772796632632192300,4.446192138671875,0.8995870351791382,0.008035928010940552,-0.2123035341501236
1772796632642185200,4.456185302734375,0.8777915239334106,0.0034044357016682625,-0.20138636231422424
1772796632652177400,4.466177490234375,0.8522416949272156,0.013660534285008907,-0.17997188866138458
1772796632662169300,4.47616943359375,0.8349283933639526,0.03648666664958,-0.14234952628612518
1772796632672161300,4.486161376953125,0.8225537538528442,0.06881079077720642,-0.10221409797668457
1772796632682153200,4.4961533203125,0.8074056506156921,0.13370171189308167,-0.05284683033823967
1772796632692145400,4.5061455078125,0.7959607243537903,0.21587593853473663,-0.011156377382576466
1772796632702137300,4.516137451171875,0.7931854724884033,0.2951294779777527,0.014996198005974293
1772796632712129300,4.52612939453125,0.7967477440834045,0.361346572637558,0.023356925696134567
1772796632722121200,4.536121337890625,0.8061745762825012,0.410041481256485,0.02691688947379589
1772796632732113400,4.546113525390625,0.8137893676757812,0.42653897404670715,0.018765753135085106
1772796632742105300,4.556105224609375,0.8106389045715332,0.40800777077674866,0.012219869531691074
1772796632752097300,4.56609716796875,0.8063067197799683,0.36888831853866577,0.00744109321385622
1772796632762090200,4.57609033203125,0.7973412871360779,0.320840060710907,0.012534472160041332
1772796632772082400,4.58608251953125,0.7870878577232361,0.2722328305244446,0.0239341352134943
1772796632782074000,4.59607421875,0.7732247114181519,0.2218277007341385,0.041804876178503036
1772796632792066300,4.60606640625,0.748123049736023,0.1634671837091446,0.061588969081640244
1772796632802058200,4.616058349609375,0.7059025168418884,0.09749356657266617,0.07607202231884003
1772796632812050400,4.626050537109375,0.6716782450675964,0.030263926833868027,0.08581413328647614
1772796632822042000,4.6360419921875,0.6429751515388489,-0.03570011258125305,0.08495283871889114
1772796632832034300,4.646034423828125,0.624809980392456,-0.08936654031276703,0.07359499484300613
1772796632842026200,4.656026123046875,0.6163126826286316,-0.13165487349033356,0.05094827339053154
1772796632852018400,4.666018310546875,0.611589252948761,-0.15148396790027618,0.016031034290790558
1772796632862010400,4.67601025390625,0.6123266816139221,-0.13336141407489777,-0.01741373911499977
1772796632872003300,4.68600341796875,0.6216381788253784,-0.09792514145374298,-0.047646742314100266
1772796632881995300,4.695995361328125,0.6261200308799744,-0.07461021840572357,-0.07358986139297485
1772796632891987200,4.7059873046875,0.636380136013031,-0.07525043934583664,-0.0950152575969696
1772796632901979100,4.715979248046875,0.6376379728317261,-0.08287453651428223,-0.10007499903440475
1772796632911971300,4.725971435546875,0.6401541233062744,-0.06221373379230499,-0.09646402299404144
1772796632921963300,4.73596337890625,0.6480222940444946,0.001417641993612051,-0.09207084774971008
1772796632931955500,4.74595556640625,0.6556090712547302,0.09506743401288986,-0.08728913962841034
1772796632941947100,4.755947021484375,0.6710940599441528,0.2040608525276184,-0.0875372365117073
1772796632951939300,4.765939208984375,0.6920472383499146,0.300813227891922,-0.10188128799200058
1772796632961931300,4.77593115234375,0.715904176235199,0.36500120162963867,-0.11644908785820007
1772796632971923500,4.78592333984375,0.7418007254600525,0.38386571407318115,-0.13192099332809448
1772796632981917200,4.795917236328125,0.7698463201522827,0.39306190609931946,-0.14567770063877106
1772796632991909000,4.8059091796875,0.8041778802871704,0.39503902196884155,-0.14611631631851196
1772796633001901000,4.815901123046875,0.8388426303863525,0.3846147954463959,-0.13880126178264618
1772796633011893000,4.82589306640625,0.8720740675926208,0.35018518567085266,-0.12781067192554474
1772796633021885200,4.83588525390625,0.9004210829734802,0.2850213646888733,-0.12126375734806061
1772796633031877000,4.845877197265625,0.9369378685951233,0.1986697018146515,-0.11239782720804214
1772796633041869000,4.855869140625,0.9902144074440002,0.12077102810144424,-0.09920329600572586
1772796633051861000,4.865861083984375,1.0523267984390259,0.08147688955068588,-0.08391062915325165
1772796633061853200,4.875853271484375,1.1170122623443604,0.08255545049905777,-0.0675625279545784
1772796633071845000,4.88584521484375,1.1722521781921387,0.09740923345088959,-0.050504978746175766
1772796633081837000,4.895837158203125,1.2153722047805786,0.099107526242733,-0.04614591598510742
1772796633091830000,4.905830078125,1.2510558366775513,0.08539118617773056,-0.044363196939229965
1772796633101822200,4.915822265625,1.2709267139434814,0.038283299654722214,-0.049682728946208954
1772796633111814100,4.925814208984375,1.2678544521331787,-0.034216463565826416,-0.07234303653240204
1772796633121806000,4.93580615234375,1.2543342113494873,-0.11342646181583405,-0.10292940586805344
1772796633131798000,4.945798095703125,1.2336441278457642,-0.1866988092660904,-0.1361193209886551
1772796633141790200,4.955790283203125,1.2148123979568481,-0.255374550819397,-0.15674610435962677
1772796633151782100,4.9657822265625,1.211594820022583,-0.2781035602092743,-0.15986600518226624
1772796633161774000,4.975774169921875,1.2178330421447754,-0.24146035313606262,-0.14426836371421814
1772796633171766000,4.98576611328125,1.2294044494628906,-0.18134507536888123,-0.1143227219581604
1772796633181758200,4.99575830078125,1.2408185005187988,-0.13050344586372375,-0.07767251878976822
1772796633191750100,5.005750244140625,1.2454015016555786,-0.1023503765463829,-0.03265604376792908
1772796633201742000,5.0157421875,1.2548513412475586,-0.1019630953669548,0.02278449572622776
1772796633211735300,5.0257353515625,1.2658840417861938,-0.12307716906070709,0.08364970982074738
1772796633221727200,5.035727294921875,1.2690415382385254,-0.16456015408039093,0.14886420965194702
1772796633231719000,5.045718994140625,1.261507511138916,-0.19835594296455383,0.2224595993757248
1772796633241711000,5.055711181640625,1.2399014234542847,-0.21945680677890778,0.3021092414855957
1772796633251703000,5.065703125,1.2062468528747559,-0.22157640755176544,0.3820735812187195
1772796633261695200,5.0756953125,1.1619768142700195,-0.17500250041484833,0.4585268795490265
1772796633271687000,5.08568701171875,1.1122913360595703,-0.07482502609491348,0.5188099145889282
1772796633281679000,5.09567919921875,1.0622825622558594,0.0647231787443161,0.5624459981918335
1772796633291671000,5.105671142578125,1.0140974521636963,0.19910547137260437,0.5804239511489868
1772796633301663200,5.115663330078125,0.9769624471664429,0.3077384829521179,0.5769941806793213
1772796633311655200,5.1256552734375,0.9492168426513672,0.3882162868976593,0.5472637414932251
1772796633321647000,5.135647216796875,0.9229117631912231,0.44171342253685,0.48646286129951477
1772796633331640300,5.145640380859375,0.9001734256744385,0.4838206470012665,0.39482906460762024
1772796633341632000,5.155632080078125,0.8721715807914734,0.5152074694633484,0.2691176235675812
1772796633351624000,5.1656240234375,0.847152829170227,0.5382720828056335,0.12189275026321411
1772796633361616100,5.1756162109375,0.836776852607727,0.5239763259887695,-0.021649647504091263
1772796633371608000,5.185608154296875,0.8466547727584839,0.4911227822303772,-0.13908785581588745
1772796633381600300,5.195600341796875,0.8609933853149414,0.45274072885513306,-0.21605494618415833
1772796633391592000,5.205592041015625,0.8737017512321472,0.4199572205543518,-0.2570332884788513
1772796633401584000,5.215584228515625,0.8821889758110046,0.3795205056667328,-0.2601460814476013
1772796633411576000,5.225576171875,0.8889451622962952,0.29782721400260925,-0.2263803780078888
1772796633421568300,5.235568359375,0.8945053219795227,0.1519605666399002,-0.15319186449050903
1772796633431560000,5.245559814453125,0.9084392786026001,0.02874116599559784,-0.051263097673654556
1772796633441553200,5.25555322265625,0.926222562789917,-0.04756476357579231,0.06698475778102875
1772796633451545300,5.26554541015625,0.9510789513587952,-0.06552299112081528,0.18653354048728943
1772796633461537000,5.275537109375,0.9757824540138245,-0.028752073645591736,0.2880217134952545
1772796633471529200,5.285529296875,1.0047388076782227,0.036430925130844116,0.3685767650604248
1772796633481521200,5.295521240234375,1.0487034320831299,0.10679878294467926,0.4238675832748413
1772796633491513000,5.30551318359375,1.0997717380523682,0.1634141355752945,0.45967137813568115
1772796633501505000,5.315505126953125,1.1614071130752563,0.20746974647045135,0.47431716322898865
1772796633511497000,5.3254970703125,1.2269213199615479,0.23806318640708923,0.4723273515701294
1772796633521489200,5.3354892578125,1.2899819612503052,0.2797113060951233,0.4473598897457123
1772796633531481000,5.345481201171875,1.3440455198287964,0.3344781696796417,0.40774109959602356
1772796633541473000,5.35547314453125,1.3856788873672485,0.3928273916244507,0.36296388506889343
1772796633551465000,5.36546484375,1.4350582361221313,0.4327545762062073,0.31670209765434265
1772796633561458200,5.375458251953125,1.488746166229248,0.4630449712276459,0.2757851779460907
1772796633571450000,5.3854501953125,1.5509507656097412,0.4758569002151489,0.2471572607755661
1772796633581442000,5.395442138671875,1.6003996133804321,0.4833036959171295,0.22084268927574158
1772796633591434200,5.405434326171875,1.6268929243087769,0.47350701689720154,0.20596280694007874
1772796633601426200,5.41542626953125,1.6266422271728516,0.46065735816955566,0.1891431212425232
1772796633611418400,5.42541845703125,1.6134934425354004,0.4636100232601166,0.16982614994049072
1772796633621410000,5.43541015625,1.6000434160232544,0.45606565475463867,0.14524507522583008
1772796633631402000,5.445402099609375,1.578710675239563,0.4212634861469269,0.12303083389997482
1772796633641394200,5.455394287109375,1.5459052324295044,0.3642621338367462,0.1075134351849556
1772796633651386000,5.46538623046875,1.5064949989318848,0.32081905007362366,0.09098345786333084
1772796633661378000,5.4753779296875,1.4650812149047852,0.2989574074745178,0.07878617942333221
1772796633671371300,5.485371337890625,1.4176037311553955,0.3014725148677826,0.0692555233836174
1772796633681363200,5.49536328125,1.3801261186599731,0.32736527919769287,0.07188907265663147
1772796633691355100,5.505355224609375,1.3389382362365723,0.3626716136932373,0.07464704662561417
1772796633701347000,5.51534716796875,1.307288408279419,0.39704418182373047,0.07326574623584747
1772796633711339300,5.52533935546875,1.2719089984893799,0.42514321208000183,0.06975356489419937
1772796633721331200,5.535331298828125,1.2461726665496826,0.44395455718040466,0.060957979410886765
1772796633731323100,5.5453232421875,1.229049801826477,0.44548800587654114,0.058600813150405884
1772796633741315000,5.555315185546875,1.2133347988128662,0.45025834441185,0.05929755046963692
1772796633751307000,5.56530712890625,1.2056128978729248,0.46567511558532715,0.05865146592259407
1772796633761299200,5.57529931640625,1.1979340314865112,0.4995632469654083,0.06524993479251862
1772796633771291100,5.585291015625,1.1750379800796509,0.5459813475608826,0.0631558895111084
1772796633781284000,5.5952841796875,1.1525307893753052,0.5907233953475952,0.05787871778011322
1772796633791276300,5.6052763671875,1.12704598903656,0.6195318698883057,0.04706601798534393
1772796633801268200,5.615268310546875,1.1003843545913696,0.6193941235542297,0.040221307426691055
1772796633811260200,5.62526025390625,1.074040174484253,0.5910863280296326,0.03512348607182503
1772796633821252000,5.635252197265625,1.0435364246368408,0.5449072122573853,0.03846089541912079
1772796633831244300,5.645244384765625,1.016089677810669,0.4908955991268158,0.04369347169995308
1772796633841236200,5.655236328125,0.9856544733047485,0.4422857463359833,0.04979469254612923
1772796633851228200,5.665228271484375,0.9680181741714478,0.39054957032203674,0.05973866954445839
1772796633861220000,5.67522021484375,0.9452986121177673,0.3211921751499176,0.07075235992670059
1772796633871212300,5.68521240234375,0.9287087321281433,0.24304622411727905,0.09042512625455856
1772796633881204200,5.695204345703125,0.9111559987068176,0.18652965128421783,0.12979771196842194
1772796633891196000,5.70519580078125,0.904099702835083,0.1666789948940277,0.16422626376152039
1772796633901189000,5.715189208984375,0.893207848072052,0.17521896958351135,0.19314098358154297
1772796633911181300,5.725181396484375,0.8841834664344788,0.19452261924743652,0.20107907056808472
1772796633921173000,5.735173095703125,0.8867288827896118,0.21678029000759125,0.1935156136751175
1772796633931165200,5.745165283203125,0.8931878209114075,0.23472866415977478,0.172500342130661
1772796633941157000,5.7551572265625,0.903558075428009,0.24455837905406952,0.13871543109416962
1772796633951149300,5.7651494140625,0.9139745235443115,0.23669086396694183,0.10054168105125427
1772796633961141000,5.77514111328125,0.9164283871650696,0.22936725616455078,0.05664384365081787
1772796633971133200,5.78513330078125,0.9075539708137512,0.22692885994911194,0.01352380309253931
1772796633981125000,5.795125,0.8865171670913696,0.21015039086341858,-0.023860519751906395
1772796633991116500,5.805116455078125,0.8606655597686768,0.19270509481430054,-0.053159818053245544
1772796634001108700,5.815108642578125,0.8262287974357605,0.1812046617269516,-0.0762236937880516
1772796634011100400,5.825100341796875,0.792632520198822,0.17545409500598907,-0.08786436915397644
1772796634021093600,5.83509375,0.7600703835487366,0.17368394136428833,-0.08843576908111572
1772796634031085800,5.8450859375,0.726710319519043,0.17730528116226196,-0.09531870484352112
1772796634041077500,5.855077392578125,0.691447377204895,0.1777229607105255,-0.10054025053977966
1772796634051069700,5.865069580078125,0.6598042249679565,0.1641959697008133,-0.11287654936313629
1772796634061061600,5.8750615234375,0.6350824236869812,0.128301739692688,-0.1266891360282898
1772796634071053800,5.8850537109375,0.6179388761520386,0.08345569670200348,-0.1416100263595581
1772796634081045500,5.89504541015625,0.6064483523368835,0.05690378695726395,-0.16223622858524323
1772796634091037400,5.905037353515625,0.5809304714202881,0.04567190259695053,-0.19273048639297485
1772796634101029600,5.915029541015625,0.5440393686294556,0.0407182052731514,-0.22043336927890778
1772796634111021600,5.925021484375,0.5093998908996582,0.03441157191991806,-0.24849243462085724
1772796634121013800,5.935013671875,0.4740035831928253,0.04260407015681267,-0.26301267743110657
1772796634131005400,5.94500537109375,0.4519944190979004,0.050168778747320175,-0.26278817653656006
1772796634140998700,5.95499853515625,0.43821167945861816,0.058116935193538666,-0.25140511989593506
1772796634150990800,5.964990966796875,0.4256303906440735,0.07125164568424225,-0.22887958586215973
1772796634160982500,5.974982421875,0.42492467164993286,0.1063482016324997,-0.19370229542255402
1772796634170974700,5.984974609375,0.4345408082008362,0.16470232605934143,-0.16146740317344666
1772796634180966700,5.994966552734375,0.44780123233795166,0.2370830774307251,-0.12650218605995178
1772796634190958800,6.004958740234375,0.46153703331947327,0.3078520596027374,-0.08762454986572266
1772796634200950500,6.014950439453125,0.47089314460754395,0.36119160056114197,-0.04892319440841675
1772796634210942700,6.024942626953125,0.4752309024333954,0.39061951637268066,-0.026658639311790466
1772796634220934700,6.0349345703125,0.4753461182117462,0.39968034625053406,-0.005748422350734472
1772796634230926600,6.044926513671875,0.4747373163700104,0.3912365138530731,0.008555681444704533
1772796634240918500,6.05491845703125,0.48079317808151245,0.37637001276016235,0.01580706238746643
1772796634250911700,6.064911865234375,0.48277562856674194,0.3521120846271515,0.022267360240221024
1772796634260903700,6.074903564453125,0.48239973187446594,0.3363099992275238,0.019179075956344604
1772796634270895600,6.0848955078125,0.483675092458725,0.32648319005966187,0.024782897904515266
1772796634280887600,6.094887451171875,0.49567732214927673,0.3327309191226959,0.03589155897498131
1772796634290879700,6.104879638671875,0.5108941197395325,0.35204949975013733,0.05275069922208786
1772796634300871700,6.11487158203125,0.52475905418396,0.39441558718681335,0.06981310248374939
1772796634310863600,6.124863525390625,0.5490108728408813,0.459633469581604,0.08675240725278854
1772796634320855600,6.13485546875,0.5738775730133057,0.576690673828125,0.11476411670446396
1772796634330847700,6.14484765625,0.5977488160133362,0.7209338545799255,0.15110881626605988
1772796634340839700,6.154839599609375,0.6249784231185913,0.7377760410308838,0.1941557228565216
1772796634350831900,6.164831787109375,0.6302757263183594,0.6137310266494751,0.21023030579090118
1772796634360824600,6.174824462890625,0.5977972745895386,0.42683669924736023,0.181397944688797
1772796634370816800,6.184816650390625,0.5564186573028564,0.23860342800617218,0.12589313089847565
1772796634380808700,6.19480859375,0.5217970609664917,0.07485159486532211,0.059937942773103714
1772796634390800600,6.204800537109375,0.4797729253768921,-0.0664951428771019,-0.012314951047301292
1772796634400792600,6.21479248046875,0.41302427649497986,-0.18801310658454895,-0.09277170896530151
1772796634410784800,6.22478466796875,0.3319952189922333,-0.2517004609107971,-0.1760663390159607
1772796634420776700,6.234776611328125,0.28602954745292664,-0.2515506148338318,-0.23576174676418304
1772796634430768600,6.2447685546875,0.2768078148365021,-0.18056857585906982,-0.2557879090309143
1772796634440760600,6.254760498046875,0.30230557918548584,-0.07822541892528534,-0.23902957141399384
1772796634450752800,6.264752685546875,0.3516840636730194,0.030603332445025444,-0.18674559891223907
1772796634460744700,6.27474462890625,0.40618619322776794,0.1353396773338318,-0.10353953391313553
1772796634470737700,6.284737548828125,0.45966222882270813,0.22168868780136108,-0.0035386376548558474
1772796634480729600,6.2947294921875,0.515298068523407,0.3067365288734436,0.10808195173740387
1772796634490721800,6.3047216796875,0.5620181560516357,0.38397806882858276,0.21649444103240967
1772796634500713500,6.31471337890625,0.5910937786102295,0.4407219886779785,0.3210600018501282
1772796634510705700,6.32470556640625,0.5976971387863159,0.47061675786972046,0.40592190623283386
1772796634520697600,6.334697509765625,0.5730409026145935,0.48065969347953796,0.46713629364967346
1772796634530689800,6.344689697265625,0.5275485515594482,0.4699588418006897,0.5055736899375916
1772796634540681700,6.354681640625,0.4722689986228943,0.3975157141685486,0.5119385719299316
1772796634550673700,6.364673583984375,0.40862104296684265,0.27609261870384216,0.490703821182251
1772796634560665600,6.37466552734375,0.3340814709663391,0.1289345622062683,0.453302800655365
1772796634570657800,6.38465771484375,0.2583957612514496,-0.016845546662807465,0.40233680605888367
1772796634580649700,6.394649658203125,0.18973137438297272,-0.13480304181575775,0.34344759583473206
1772796634590642700,6.404642578125,0.14219394326210022,-0.19592338800430298,0.28292781114578247
1772796634600634600,6.414634521484375,0.10604710876941681,-0.2030443549156189,0.21414372324943542
1772796634610626800,6.424626708984375,0.08183737844228745,-0.17432720959186554,0.14755111932754517
1772796634620618500,6.434618408203125,0.0702042281627655,-0.12449169903993607,0.07491377741098404
1772796634630610700,6.444610595703125,0.06567072868347168,-0.07117388397455215,0.004739748314023018
1772796634640602600,6.4546025390625,0.06281229853630066,-0.04011717438697815,-0.05894848331809044
1772796634650594800,6.4645947265625,0.06772663444280624,-0.04084421694278717,-0.10893894731998444
1772796634660586500,6.47458642578125,0.07697180658578873,-0.0772089958190918,-0.14686432480812073
1772796634670578700,6.48457861328125,0.08939731866121292,-0.11591564118862152,-0.16399484872817993
1772796634680570600,6.494570556640625,0.10278766602277756,-0.11821014434099197,-0.171291321516037
1772796634690562800,6.504562744140625,0.11626219749450684,-0.06096097454428673,-0.1650099754333496
1772796634700554500,6.514554443359375,0.13099424540996552,0.02203289419412613,-0.15426398813724518
1772796634710547700,6.524547607421875,0.14125913381576538,0.10799547284841537,-0.1440640687942505
1772796634720539600,6.53453955078125,0.1550925374031067,0.17018826305866241,-0.12845754623413086
1772796634730531600,6.544531494140625,0.17915739119052887,0.21211466193199158,-0.11805044859647751
1772796634740523500,6.5545234375,0.2110886573791504,0.23367725312709808,-0.11656786501407623
1772796634750515700,6.564515625,0.2513950765132904,0.21650385856628418,-0.12240152060985565
1772796634760507600,6.574507568359375,0.30203521251678467,0.17308612167835236,-0.13985170423984528
1772796634770499600,6.58449951171875,0.35365575551986694,0.12064876407384872,-0.16203078627586365
1772796634780491500,6.594491455078125,0.40842413902282715,0.0756969079375267,-0.1859530657529831
1772796634790483700,6.604483642578125,0.4702739417552948,0.05870593711733818,-0.21338015794754028
1772796634800475600,6.6144755859375,0.5374960899353027,0.08494337648153305,-0.23504789173603058
1772796634810467800,6.6244677734375,0.6080882549285889,0.14035098254680634,-0.2539307773113251
1772796634820460500,6.63446044921875,0.6729013323783875,0.19362035393714905,-0.2638113796710968
1772796634830452700,6.64445263671875,0.7190030217170715,0.23085427284240723,-0.26584285497665405
1772796634840444700,6.654444580078125,0.7468771934509277,0.2369556725025177,-0.25937485694885254
1772796634850436600,6.6644365234375,0.7745271921157837,0.2211681753396988,-0.2391422688961029
1772796634860428500,6.674428466796875,0.7980434894561768,0.19786465167999268,-0.21486441791057587
1772796634870420700,6.684420654296875,0.8144746422767639,0.16505637764930725,-0.18703997135162354
1772796634880412700,6.69441259765625,0.8268689513206482,0.12763160467147827,-0.16485920548439026
1772796634890404600,6.704404541015625,0.8278223872184753,0.07328208535909653,-0.14264817535877228
1772796634900396500,6.714396484375,0.8231515288352966,0.013992865569889545,-0.12148907780647278
1772796634910388700,6.724388671875,0.8170605897903442,-0.03897128254175186,-0.10114146023988724
1772796634920380700,6.734380615234375,0.8026797771453857,-0.07983753830194473,-0.08722922205924988
1772796634930372600,6.74437255859375,0.7880613803863525,-0.11750688403844833,-0.0857495665550232
1772796634940365600,6.754365478515625,0.7730621099472046,-0.16069483757019043,-0.09104752540588379
1772796634950357800,6.764357666015625,0.7494171857833862,-0.20282524824142456,-0.10643314570188522
1772796634960349400,6.774349365234375,0.7177664041519165,-0.23101454973220825,-0.12962281703948975
1772796634970341600,6.784341552734375,0.6946743726730347,-0.24858209490776062,-0.15701156854629517
1772796634980333600,6.79433349609375,0.6801944971084595,-0.23857146501541138,-0.18717901408672333
1772796634990325200,6.8043251953125,0.6728942394256592,-0.18733331561088562,-0.21376188099384308
1772796635000317200,6.814317138671875,0.6685672402381897,-0.11888141185045242,-0.22937841713428497
1772796635010309000,6.82430908203125,0.665993332862854,-0.03938179463148117,-0.23389914631843567
1772796635020301000,6.834301025390625,0.6542364358901978,0.03708373382687569,-0.2327510416507721
1772796635030293200,6.844293212890625,0.6271491646766663,0.10194022953510284,-0.22405795753002167
1772796635040285200,6.85428515625,0.5911398530006409,0.14295858144760132,-0.21939300000667572
1772796635050277000,6.864277099609375,0.5574932098388672,0.1367904245853424,-0.20763647556304932
1772796635060270000,6.87427001953125,0.5245097279548645,0.09015429019927979,-0.20020347833633423
1772796635070262300,6.88426220703125,0.4917592406272888,0.03588493540883064,-0.19107335805892944
1772796635080254000,6.89425390625,0.4570058584213257,-0.014753807336091995,-0.17628774046897888
1772796635090246100,6.90424609375,0.4266778230667114,-0.038101740181446075,-0.15912634134292603
1772796635100238000,6.914238037109375,0.40607598423957825,-0.033721160143613815,-0.1481257975101471
1772796635110230300,6.924230224609375,0.37990695238113403,-0.01779865100979805,-0.14316566288471222
1772796635120222200,6.93422216796875,0.3494003117084503,-0.0141214644536376,-0.13737618923187256
1772796635130214100,6.944214111328125,0.3139142096042633,-0.018257886171340942,-0.1400204449892044
1772796635140206000,6.9542060546875,0.2867242991924286,-0.037912141531705856,-0.1457531452178955
1772796635150198300,6.9641982421875,0.26626136898994446,-0.06764766573905945,-0.1523287445306778
1772796635160190200,6.974190185546875,0.2540166676044464,-0.10134243965148926,-0.1512482464313507
1772796635170182100,6.98418212890625,0.24036957323551178,-0.1264568567276001,-0.14643937349319458
1772796635180175000,6.994175048828125,0.22355715930461884,-0.13180522620677948,-0.1370755285024643
1772796635190167300,7.004167236328125,0.20457760989665985,-0.13386012613773346,-0.12002064287662506
1772796635200159000,7.014158935546875,0.18460187315940857,-0.13508358597755432,-0.10194089263677597
1772796635210151200,7.024151123046875,0.15782591700553894,-0.1439439058303833,-0.07148498296737671
1772796635220143000,7.03414306640625,0.1312112957239151,-0.1514001190662384,-0.037249960005283356
1772796635230135300,7.04413525390625,0.10658717900514603,-0.14325323700904846,-0.00726543040946126
1772796635240127000,7.054126953125,0.0828736275434494,-0.12949658930301666,0.022680066525936127
1772796635250119200,7.064119140625,0.05759676918387413,-0.14143741130828857,0.048475708812475204
1772796635260111000,7.074111083984375,0.017172066494822502,-0.17552492022514343,0.07116967439651489
1772796635270103300,7.084103271484375,-0.03825177624821663,-0.21041153371334076,0.08192058652639389
1772796635280095000,7.094094970703125,-0.08633717894554138,-0.24994948506355286,0.07660088688135147
1772796635290088200,7.104088134765625,-0.1239846870303154,-0.27714088559150696,0.06911926716566086
1772796635300080000,7.114080078125,-0.1547108292579651,-0.26918795704841614,0.05494061857461929
1772796635310072000,7.124072021484375,-0.17897090315818787,-0.22888314723968506,0.03862050175666809
1772796635320064000,7.13406396484375,-0.20334619283676147,-0.16329728066921234,0.023103341460227966
1772796635330056200,7.14405615234375,-0.2191520482301712,-0.07887640595436096,0.0037506837397813797
1772796635340048100,7.154048095703125,-0.2099309116601944,0.1179790124297142,0.03395342826843262
1772796635350040300,7.164040283203125,-0.19471387565135956,0.3339323401451111,0.13591815531253815
1772796635360032000,7.174031982421875,-0.20268547534942627,0.3602246344089508,0.20516592264175415
1772796635370024200,7.184024169921875,-0.2807871997356415,0.1813824474811554,0.1707964986562729
1772796635380016000,7.19401611328125,-0.3841610848903656,-0.08121293038129807,0.028132222592830658
1772796635390008300,7.20400830078125,-0.4567252993583679,-0.2525878846645355,-0.186583012342453
1772796635400001000,7.2140009765625,-0.49012458324432373,-0.23275703191757202,-0.4129220247268677
1772796635409993200,7.2239931640625,-0.505418598651886,-0.11620857566595078,-0.6299150586128235
1772796635419985200,7.233985107421875,-0.5518509745597839,0.025513986125588417,-0.8345960974693298
1772796635429977000,7.24397705078125,-0.6004152894020081,0.17721615731716156,-0.9939324855804443
1772796635439969000,7.253968994140625,-0.6285086274147034,0.3410853147506714,-1.0972180366516113
