time,seconds_elapsed,z,y,x
1772796386623576300,0.067576416015625,-0.06916705972850322,0.059163771304115646,0.43228930099755525
1772796386633568500,0.077568603515625,-0.031043373039364813,0.0584802460193634,0.3905906784310937
1772796386643561700,0.087561767578125,0.005639467191696166,0.08209935080949217,0.3082603684099391
1772796386653553400,0.097553466796875,0.03115560124218464,0.07325473090093583,0.2222020508415997
1772796386663545300,0.10754541015625,0.08023848884105682,0.08666194601729511,0.1933980907594785
1772796386673538600,0.11753857421875,0.08615677297413349,0.09142477650493383,0.22376871563643216
1772796386683530500,0.127530517578125,0.09574293196499348,0.132174354718253,0.2685527917965315
1772796386693522400,0.1375224609375,0.1495639540016651,0.16887440181244165,0.3104351186331361
1772796386703515600,0.147515625,0.1934574562638998,0.1674518216634169,0.2930867098766379
1772796386713507300,0.15750732421875,0.15574235037565232,0.15880688904542475,0.26381303165722636
1772796386723500500,0.16750048828125,0.12064999420642852,0.15023955170828848,0.21358607032345606
1772796386733492500,0.177492431640625,0.12770341984927652,0.11986194910127669,0.1784867181578651
1772796386743484400,0.187484375,0.11486556558609008,0.0915555998103693,0.1633902347803116
1772796386753477600,0.1974775390625,0.14632628725469113,0.06785067990031093,0.18655907505229113
1772796386763469600,0.207469482421875,0.21978841382861136,0.036211861718446016,0.20131375925485043
1772796386773462500,0.217462646484375,0.17194412811398505,0.00825816179011017,0.18047843996435403
1772796386783454500,0.227454345703125,0.09141045571863651,0.027624723702296614,0.171920199249126
1772796386793446700,0.23744677734375,0.016848843470215796,0.06613006665278226,0.13637582499608397
1772796386803439400,0.247439453125,-0.01408113232254982,0.08466229663267731,0.023298092674836516
1772796386813431600,0.257431640625,-0.04878711952269077,0.05516041741427034,-0.06971422701617702
1772796386823424500,0.267424560546875,-0.04415069189369678,-0.010261318306066095,-0.14653289747638626
1772796386833416400,0.27741650390625,-0.04959317520856857,-0.05891264608725905,-0.22703898774506523
1772796386843408600,0.28740869140625,-0.03445288922190666,-0.11382310732845216,-0.3259327666901052
1772796386853401300,0.2974013671875,-0.07010755544900894,-0.14791052423883227,-0.4059586356937885
1772796386863393500,0.3073935546875,-0.07634206592440605,-0.14458956312257795,-0.4513368966210633
1772796386873385500,0.317385498046875,-0.024106851774454114,-0.13533139397706836,-0.486697475272417
1772796386883378400,0.32737841796875,0.036567104896903034,-0.14465875590126961,-0.4945809950638562
1772796386893370400,0.337370361328125,0.144209733492136,-0.1554075654633343,-0.5088255012545735
1772796386903363600,0.347363525390625,0.1548755044132471,-0.15361432537101208,-0.4902460345994681
1772796386913355500,0.35735546875,0.12972469654381275,-0.16763013737238944,-0.4634552044380456
1772796386923347500,0.367347412109375,0.12006664136052131,-0.1985443310741335,-0.45777379780076444
1772796386933340700,0.377340576171875,0.10325228468179702,-0.19675755725521593,-0.43344902895931153
1772796386943332400,0.387332275390625,0.03942600145936012,-0.20548114459998904,-0.3921551512688398
1772796386953325600,0.39732568359375,-0.025662849044799804,-0.2112203823717311,-0.414087289352715
1772796386963317500,0.4073173828125,-0.058476154366135596,-0.23079576472900806,-0.42490043285526335
1772796386973309400,0.417309326171875,-0.05972001694738865,-0.23835801667682824,-0.4066322241064161
1772796386983302700,0.427302734375,-0.09197861099541187,-0.23779234561808407,-0.35630006709881124
1772796386993294600,0.437294677734375,-0.13344810098111629,-0.2575873255427927,-0.2819575774937868
1772796387003287600,0.44728759765625,-0.16767419570982456,-0.2652383152199909,-0.25349316983064635
1772796387013279500,0.457279541015625,-0.1307166301906109,-0.23482279175538567,-0.2453176448226906
1772796387023271700,0.467271728515625,-0.10123919129371642,-0.21372940605059265,-0.23325654708566143
1772796387033264400,0.477264404296875,-0.062169748187065124,-0.23909648701921105,-0.18763209284497423
1772796387043256600,0.487256591796875,-0.05437631783187389,-0.24326858507208524,-0.17566318516973406
1772796387053248500,0.49724853515625,-0.03790449098050594,-0.23197887356635183,-0.1831011714170687
1772796387063241500,0.507241455078125,-0.038784780946373935,-0.21158077664934097,-0.17735605189381165
1772796387073233700,0.517233642578125,-0.050291094344854355,-0.22671222174242137,-0.18370585931194944
1772796387083226400,0.527226318359375,-0.07185995207428932,-0.19670907847099006,-0.15609059755774213
1772796387093218600,0.537218505859375,-0.14543079971969128,-0.1693258719069883,-0.16100761396009475
1772796387103210500,0.54721044921875,-0.19471476284861564,-0.13583959922753275,-0.2130600554216653
1772796387113203500,0.557203369140625,-0.22523381975293158,-0.11391999183166772,-0.1925784814722836
1772796387123195400,0.5671953125,-0.1639250723093748,-0.09944741250611841,-0.1723643628200516
1772796387133188600,0.577188720703125,-0.12014847442507744,-0.09583053718321025,-0.15652758246921003
1772796387143180300,0.58718017578125,-0.09977321039438247,-0.05917122395820915,-0.1262053541780915
1772796387153172500,0.59717236328125,-0.08711772696077823,-0.05778773371055722,-0.06867334879427217
1772796387163165700,0.607165771484375,-0.11343699408769607,-0.052739948801696294,-0.055553919377038255
1772796387173157400,0.617157470703125,-0.05478489863276481,-0.036922494205832476,-0.0772419556398876
1772796387183150600,0.627150634765625,0.006713818424940109,-0.027248364670574662,-0.118072882860573
1772796387193142500,0.637142578125,0.05011164612472057,-0.03109283820427954,-0.09235971926748753
1772796387203134500,0.647134521484375,0.04217091625332832,-0.014316913839802145,-0.07363031361452303
1772796387213127400,0.65712744140625,0.04079962790012359,0.03894574366174638,-0.04962590843439102
1772796387223119600,0.66711962890625,0.10219137745201587,0.04479724616892636,-0.011638324014004319
1772796387233111300,0.677111328125,0.1626800406843424,0.06311791575737297,0.03440287606772035
1772796387243104500,0.6871044921875,0.22918694129288195,0.06186389710828662,0.030515074848942458
1772796387253096700,0.6970966796875,0.29515725080668925,0.05382262947186827,0.04331354694981128
1772796387263089400,0.70708935546875,0.29969606328010556,0.047253845540806645,0.032720567270275204
1772796387273081600,0.71708154296875,0.2675888604015112,0.0414632794406265,0.045136067935545
1772796387283073500,0.727073486328125,0.2348094573497772,0.06892163360007107,0.053993711722455914
1772796387293066500,0.73706640625,0.12925357190072537,0.07505107626579702,0.04367835710763465
1772796387303058400,0.747058349609375,0.0030418519139289854,0.07213350831866264,0.012172417190973646
1772796387313051400,0.757051513671875,-0.041754152145981785,0.09040873133018612,-0.0009343765069730579
1772796387323043600,0.767043701171875,-0.03209317435324192,0.07831555795446038,-0.0029625304668676107
1772796387333035500,0.777035400390625,-0.018040683603286742,0.06413666434586048,-0.0314723207748495
1772796387343028500,0.787028564453125,0.014102175110578536,0.02213043713495135,-0.008157491594343445
1772796387353020400,0.7970205078125,0.02801496512889862,-0.034952947698533535,0.000994034272339195
1772796387363013600,0.807013671875,0.029134909069538115,-0.013322495974972844,0.011863606970128603
1772796387373005300,0.81700537109375,0.02111176161170006,-0.012126564188674091,0.03086015739298891
1772796387382997500,0.82699755859375,0.03295768222808838,-0.03517630812563002,0.015810162913618843
1772796387392990500,0.836990478515625,-0.025458850905299184,-0.05057663328796625,-0.014141311819368275
1772796387402982400,0.846982421875,-0.07696399721503257,-0.06516776095926761,-0.050623755798744965
1772796387412974600,0.856974609375,-0.07321195120513439,-0.053211731031909584,-0.09504338712720199
1772796387422967600,0.866967529296875,-0.08907470624744891,-0.05999123510420322,-0.10983498754035681
1772796387432959500,0.87695947265625,-0.15244506239593028,-0.07549677420668303,-0.07736018432523123
1772796387442952400,0.886952392578125,-0.19600889431238172,-0.03252316326834261,-0.050465450831339694
1772796387452944600,0.896944580078125,-0.1998439424306154,-0.0044952655926346775,-0.05375275627316441
1772796387462936300,0.906936279296875,-0.20931904226243495,-0.014121902724355458,-0.0812198006291408
1772796387472929500,0.916929443359375,-0.2497679570287466,-0.027190935394912956,-0.0959767407208681
1772796387482921700,0.926921630859375,-0.23198270949125288,-0.03459938502050936,-0.12005080447057262
1772796387492914400,0.93691455078125,-0.14544833537638185,-0.0330098508067429,-0.1481575578024611
1772796387502906600,0.94690673828125,-0.08604454477131367,-0.016314079006388784,-0.13317713855262844
1772796387512898600,0.956898681640625,-0.024558687195181846,-0.02560059746354818,-0.10318674516491591
1772796387522891500,0.9668916015625,0.05673018748164177,-0.016537804759666323,-0.08128783349720761
1772796387532883500,0.976883544921875,0.10834756199419497,-0.0118653559692204,-0.0900896006447263
1772796387542876400,0.98687646484375,0.19709376693964004,-0.020364304245263337,-0.12339475373676978
1772796387552868600,0.99686865234375,0.29610125365853307,-0.04515475436970591,-0.11977992424047551
1772796387562860500,1.006860595703125,0.31511341264247894,-0.08459419983252882,-0.10769068725435063
1772796387572853500,1.016853515625,0.29577625948786734,-0.08604125683568417,-0.1394194944077637
1772796387582845400,1.026845458984375,0.22497721464335918,-0.0750840286873281,-0.1815276019574143
1772796387592837600,1.036837646484375,0.1779857463657856,-0.06880019917748868,-0.18765244151325897
1772796387602830300,1.046830322265625,0.1164811840891838,-0.04579882442690432,-0.17254143642000852
1772796387612822500,1.056822509765625,0.06351297948956489,-0.011198343427851795,-0.13752474843603557
1772796387622815500,1.0668154296875,0.0387426953703165,0.006194543791189789,-0.11885084496312774
1772796387632807400,1.076807373046875,0.053422378107905386,0.03236453864052891,-0.10770142784407362
1772796387642799400,1.08679931640625,0.00301028773188591,0.011356894990429281,-0.06061462769955396
1772796387652792600,1.09679248046875,-0.09455810609459876,0.018918197090178727,-0.08131547955595887
1772796387662784500,1.106784423828125,-0.15968845765292644,0.008808379551395773,-0.1073013408768922
1772796387672777500,1.116777587890625,-0.16041560288369655,-0.012433072854578495,-0.07899431573254988
1772796387682769700,1.126769775390625,-0.12782383135855196,-0.02217208431959152,-0.034274317784607405
1772796387692761300,1.13676123046875,-0.09821019886136055,-0.04671038631387055,-0.047248913637362416
1772796387702754600,1.146754638671875,-0.0791413412541151,-0.04444441414326429,-0.07755407206267118
1772796387712746500,1.15674658203125,-0.045375849774479865,-0.06210464706160128,-0.1278143146115355
1772796387722739500,1.166739501953125,-0.08826397438645363,-0.047839098082855344,-0.09421372223687358
1772796387732731600,1.176731689453125,-0.13844576313793658,-0.012064166476950048,-0.046206090053543446
1772796387742723600,1.1867236328125,-0.13006138115227223,0.03116195791773498,-0.004036840600916184
1772796387752716500,1.196716552734375,-0.016051555612683295,0.020361673896759747,0.012108453143248333
1772796387762708500,1.20670849609375,0.08828092552125454,-0.01500971840955317,-0.012093038661696481
1772796387772700700,1.21670068359375,0.13912380852997303,-0.04983341370522976,-0.017656152681552337
1772796387782693400,1.226693359375,0.12615735945105552,-0.031637612605467436,-0.014199123545875773
1772796387792685600,1.236685546875,0.12114508424699305,-0.041705929090082645,-0.020456715786049608
1772796387802678500,1.246678466796875,0.016867548170685767,-0.021524580196291207,-0.02869049662015168
1772796387812670500,1.25667041015625,-0.06009761808812618,-0.006037891924753785,-0.03091067287067417
1772796387822662700,1.26666259765625,-0.051181905704736706,0.02627323602810502,-0.06066496964730322
1772796387832655400,1.2766552734375,-0.01815875702500343,0.015649039226397873,-0.043967608678061515
1772796387842647600,1.2866474609375,0.07297931149303913,-0.003982712960615754,-0.03991381237576715
1772796387852640500,1.296640625,0.11326046847701073,-0.0029406565617769954,-0.023192193748103454
1772796387862632400,1.306632568359375,0.10223054041862487,-0.005562967889383435,0.004438423122151289
1772796387872624400,1.316624267578125,0.06322364115417003,-0.015727584355324505,-0.03170944258252857
1772796387882617600,1.32661767578125,0.06229483587145805,-0.038899931758642196,-0.07517733299396932
1772796387892609500,1.336609619140625,0.10715455281734466,-0.06683145638778805,-0.06899042908654082
1772796387902602500,1.3466025390625,0.13409867384433746,-0.0733645844835788,-0.06662474570139311
1772796387912594400,1.356594482421875,0.10350129100680351,-0.06620316842161118,-0.039514798554242586
1772796387922586400,1.36658642578125,0.017009586989879606,-0.061207771287113424,-0.016844747250410727
1772796387932579600,1.37657958984375,-0.1105342583835125,-0.024952654948830602,-0.010546752217900938
1772796387942571500,1.386571533203125,-0.20314064588844774,-0.03505443531163037,-0.016678857198171318
1772796387952563500,1.3965634765625,-0.2066810949742794,-0.04413439834602177,-0.039434851486096156
1772796387962556700,1.406556640625,-0.16926351072788237,-0.04313559656701982,-0.04847738685323857
1772796387972548600,1.416548583984375,-0.12390578113198279,-0.07945975955352187,-0.03299181739313062
1772796387982541600,1.42654150390625,-0.06911036110520362,-0.08836042049825191,-0.04260046677701175
1772796387992533500,1.436533447265625,-0.04570727368593216,-0.07170381166450679,-0.04516300160824321
1772796388002525700,1.446525634765625,-0.04628244322538375,-0.05079539060518145,-0.05359463396884966
1772796388012518400,1.456518310546875,0.009827566531300545,-0.05029357856288552,-0.0323578006557771
1772796388022510600,1.466510498046875,0.02372282089293003,-0.025425240896642207,0.0015130052287015132
1772796388032503600,1.476503662109375,0.04044073145985603,-0.0172707952093333,0.022080129436531568
1772796388042495500,1.48649560546875,0.052988662865757936,-0.01922828595265746,0.02934928247258067
1772796388052487400,1.4964873046875,0.10525836380720138,-0.020719401293247938,0.014640996978303882
1772796388062480400,1.50648046875,0.12818681945204735,-0.046407603975012895,-0.024524298585101495
1772796388072472600,1.51647265625,0.14913140780329703,-0.06456950280517339,-0.03381925836033187
1772796388082465500,1.526465576171875,0.13842004417479037,-0.05503522013202309,-0.011896041085140313
1772796388092457500,1.53645751953125,0.10691489884257316,-0.047237259732186794,0.0030640157966758124
1772796388102449400,1.546449462890625,0.05817044941782951,-0.00933452231734991,0.0026995846647652794
1772796388112442400,1.5564423828125,0.04306874187588691,0.009848828515037893,-0.017352701339125632
1772796388122434300,1.566434326171875,0.06002513737380504,-0.01190897591523826,-0.003077073924359865
1772796388132426500,1.576426513671875,0.07571487393677234,-0.04861490476094186,-0.017596086207521146
1772796388142419500,1.58641943359375,0.05899813241362571,-0.04353197547346353,-0.038494766757544124
1772796388152411000,1.596410888671875,-0.007729717469215393,-0.029566651550307868,-0.023420940453081854
1772796388162403800,1.60640380859375,-0.08906886102855205,0.002664177707955241,-0.01787658821591176
1772796388172396000,1.61639599609375,-0.12306640769839286,0.030254268488287925,-0.019031121696031186
1772796388182387700,1.6263876953125,-0.09364859003424644,0.005543240275606513,-0.02055621922132559
1772796388192381000,1.636380859375,-0.031573534393310544,-0.023317528027668594,-0.065782193930028
1772796388202372900,1.646372802734375,0.03279927679598331,-0.0386920611616224,-0.04267488828666974
1772796388212365800,1.65636572265625,0.01771101325750351,-0.0654235623512417,-0.00042948887489037586
1772796388222358000,1.66635791015625,0.0072737903952598566,-0.04006605292856693,-0.03555950104022631
1772796388232350000,1.676349853515625,0.006709142249822616,-0.031705928601324554,-0.07694926543678157
1772796388242343000,1.686343017578125,0.009901216289401054,-0.04654379757530987,-0.09982422819556667
1772796388252334800,1.6963349609375,0.02282791787981987,-0.05442081456072628,-0.1034556800330989
1772796388262327800,1.706327880859375,0.014064765709638594,-0.04158675968982279,-0.0722867672181921
1772796388272319700,1.71631982421875,0.042131168764829634,-0.025994930543377995,-0.021630227961274794
1772796388282312000,1.72631201171875,0.08357552430927753,-0.022155863837152717,-0.012101365815335883
1772796388292305000,1.736304931640625,0.11927169159054755,-0.03318842224404216,-0.03565943601705367
1772796388302296800,1.746296875,0.08556348325610161,-0.037051308217272164,-0.04403252257385756
1772796388312289000,1.7562890625,0.011871055057644844,-0.031902985543385144,-0.04609644653345458
1772796388322281700,1.76628173828125,-0.05349368977844715,-0.004197305559366941,-0.04882714557240251
1772796388332274000,1.77627392578125,-0.07373100664317607,-0.019052929385751486,-0.04321174880946055
1772796388342267000,1.786266845703125,-0.08892916029691696,-0.0148215754263103,-0.029033053846971597
1772796388352258800,1.7962587890625,-0.06361410177648068,-0.015114128632098435,-0.01568878328996361
1772796388362250800,1.806250732421875,-0.044725276911258695,-0.028372108003497123,-0.03897861388488672
1772796388372244000,1.816243896484375,-0.04799801497161388,-0.024861907925456762,-0.047587023017928
1772796388382236000,1.82623583984375,-0.03871639188528061,-0.022095146625861525,-0.019427064494346266
1772796388392228900,1.836228759765625,-0.040709027007222176,-0.05602912654019892,-0.017871580963942688
1772796388402221000,1.846220947265625,-0.04066927951872348,-0.05621471224017441,0.01738019898411585
1772796388412212700,1.856212646484375,-0.022418168035149573,-0.04588540673181414,-0.0028692181687161793
1772796388422206000,1.8662060546875,0.01502045899927616,-0.039058921712636946,-0.012885452839644857
1772796388432198000,1.876197998046875,0.05194762938022613,-0.04170885169953108,0.005978049213008489
1772796388442189800,1.88618994140625,0.04568856898546218,-0.040500206562131644,0.01624242484255228
1772796388452183000,1.89618310546875,0.03615443244278431,-0.02510243868306279,-0.013443603887280914
1772796388462175000,1.906175048828125,-0.002876432219147682,-0.025662775979563592,-0.04363321192481089
1772796388472168000,1.91616796875,-0.014269932892918585,-0.045612288878858084,-0.0494997156383004
1772796388482159900,1.926159912109375,0.011578794112801551,-0.06266403451003134,-0.04303391715767793
1772796388492152000,1.936152099609375,-0.018481413108110425,-0.03770049284100532,-0.029049925066670403
1772796388502144800,1.946144775390625,-0.08110825741291046,-0.008289908635243773,-0.05915722283232026
1772796388512137000,1.956136962890625,-0.10143383708298205,-0.014627879485115408,-0.06395711566102691
1772796388522130000,1.9661298828125,-0.06052198098003864,-0.032601708397269245,-0.09135657010693103
1772796388532121900,1.976121826171875,-0.0029430677145719526,-0.05121997269280255,-0.09256247529797255
1772796388542114000,1.986114013671875,0.02745557768046856,-0.03424165762402117,-0.07662346754851751
1772796388552106800,1.996106689453125,0.07329261522591114,-0.04522109760418534,-0.04370919977047015
1772796388562099000,2.006098876953125,0.10228782356381416,-0.03607837153188884,-0.021315029098838565
1772796388572091000,2.0160908203125,0.14780103598237038,-0.06233779823035002,-0.021539371340046635
1772796388582083800,2.026083740234375,0.12555354833900928,-0.08385675240345299,-0.03563482901547104
1772796388592075800,2.03607568359375,0.04755085572600364,-0.05396905220523476,-0.01574081829623319
1772796388602069000,2.046069091796875,-0.021101824739575385,-0.025096739594638345,-0.04045505224615335
1772796388612060700,2.056060791015625,-0.034991233882308,-0.02989354541711509,-0.07698008070015348
1772796388622052900,2.066052978515625,-0.021916063731908797,-0.037579862136021255,-0.09661382391485385
1772796388632046000,2.076046142578125,-0.028237083446979522,-0.07043313414156437,-0.07871190032828598
1772796388642037800,2.086037841796875,-0.0463502477645874,-0.052119478815793985,-0.05105214184522629
1772796388652031000,2.096031005859375,-0.08050795343220234,-0.04065006336160004,-0.03501282237631967
1772796388662023000,2.10602294921875,-0.13162322364151477,-0.029421909317374227,-0.03151193811589619
1772796388672014800,2.116014892578125,-0.15616320613622664,-0.029404446725919842,-0.03744702040343545
1772796388682007800,2.1260078125,-0.1235878012239933,-0.023232553157955405,-0.053435219323169435
1772796388692000000,2.136,-0.0927180311858654,-0.032425036656111475,-0.036854356306488624
1772796388701993000,2.145992919921875,-0.08809154042899608,-0.0354630891777575,-0.004182834076019935
1772796388711985000,2.15598486328125,-0.08940963729023933,-0.019387568167597055,-0.01162852185590891
1772796388721977000,2.16597705078125,-0.10640402671098709,-0.00008621697872877121,-0.03365013745467877
1772796388731969800,2.1759697265625,-0.09234218361079692,-0.007339841368794441,-0.039753228686307554
1772796388741962000,2.1859619140625,-0.07309796943664551,-0.028965689982473848,0.0032571431990014387
1772796388751954000,2.195953857421875,-0.013146481820940971,-0.022724457505345342,-0.007089942277933005
1772796388761947000,2.20594677734375,0.0605588058590889,-0.004443023948743939,-0.052339418876520355
1772796388771938800,2.215938720703125,0.12890695042014122,0.0036282734997570513,-0.04347805332913995
1772796388781931800,2.225931884765625,0.11594693108201026,0.01687039771489799,-0.002455074135074392
1772796388791924000,2.235924072265625,0.06001520050168037,0.044838674157857895,0.013493365879717749
1772796388801916000,2.245916015625,0.04986673145294189,0.07328355513662099,0.020894979339151177
1772796388811908900,2.255908935546875,0.09451485147476196,0.05446867229044437,-0.02002574505683733
1772796388821900800,2.26590087890625,0.1489718333274126,-0.007471651054918766,-0.05818727268846705
1772796388831894000,2.27589404296875,0.140218618029356,-0.05082308232970535,-0.06924226212287321
1772796388841885700,2.2858857421875,0.12537234655320645,-0.04445778508149087,-0.055991452277777715
1772796388851878000,2.2958779296875,0.11955986088216304,-0.027421310084685683,-0.014828409309184644
1772796388861871000,2.30587109375,0.10261515582203865,0.007107493917644024,0.014064793109102174
1772796388871862800,2.31586279296875,0.08677578165531158,-0.007129778814688324,0.03528738098440226
1772796388881855000,2.32585498046875,0.02464870356619358,0.010694412493705749,0.013548046075867022
1772796388891848000,2.335847900390625,-0.07515724005401134,0.019669526914134622,-0.0132729212122038
1772796388901840000,2.34583984375,-0.10719020865261554,0.014556129423156379,-0.05974216484711505
1772796388911832800,2.355832763671875,-0.10221066667437553,-0.00589636456221342,-0.06500815908391959
1772796388921825000,2.365824951171875,-0.09947744231820106,-0.02815715007856488,-0.05547313662525266
1772796388931816700,2.375816650390625,-0.0319067118704319,-0.031275428229570384,-0.030919538880430624
1772796388941810000,2.385809814453125,0.0005897825866937637,-0.04623458549566567,-0.020980205370613837
1772796388951802000,2.395802001953125,0.013496025910973548,-0.028695713934674856,-0.03869964167987928
1772796388961794800,2.405794921875,-0.011634323692321777,-0.0089111823387444,-0.023940628362074494
1772796388971787000,2.415787109375,-0.01976151604652405,-0.01383716749884188,-0.00797334893278312
1772796388981779000,2.425779052734375,-0.009227262550592422,0.007564736165851354,0.0007615840732003562
1772796388991772000,2.43577197265625,-0.017983984979987145,0.018670579004660248,0.030532245179452
1772796389001763800,2.445763916015625,0.0064496145308017725,0.008211728832498192,0.0039355059681576675
1772796389011756000,2.455756103515625,0.06452946305572986,-0.004261383771523833,-0.022560508248442784
1772796389021749000,2.4657490234375,0.05295242250859737,-0.021370997069776056,-0.04544238480520434
1772796389031741000,2.475740966796875,0.023401333853602407,-0.048969563417509195,-0.07600405700854025
1772796389041734000,2.48573388671875,-0.04022328931689262,-0.032296149579435586,-0.06602403986188583
1772796389051725800,2.495725830078125,-0.04419862268865108,-0.006541895924136042,-0.023849342482583597
1772796389061718000,2.505718017578125,-0.026824878561496734,-0.003319499811530113,0.01524606618238613
1772796389071710700,2.515710693359375,0.04263736472129821,-0.01711363188624382,0.03459320187489502
1772796389081703000,2.525702880859375,0.06440846702456474,-0.009323416401445865,0.02641012831472326
1772796389091695900,2.53569580078125,0.035623686566948885,-0.003987900592386722,0.015787185038474854
1772796389101687800,2.545687744140625,0.011816110000014304,-0.0101378015242517,-0.012801698387705255
1772796389111679700,2.5556796875,0.04492226078808308,-0.02009893130734563,0.009212521639186889
1772796389121673000,2.5656728515625,0.05668167216479778,-0.02292743273153901,0.014351729424856602
1772796389131665000,2.575664794921875,0.014233108013868331,-0.03270487651079893,0.019831829919933805
1772796389141656800,2.58565673828125,-0.05717793124914169,0.009636500938609242,0.020756406552100086
1772796389151650300,2.595650390625,-0.050098786643147465,0.026910949409753082,0.038947542893188074
1772796389161642500,2.605642578125,-0.026252631631493568,0.029463483436778185,0.042292131480202076
1772796389171635700,2.6156357421875,0.016180734950304032,0.007333338562771677,0.02952766211363487
1772796389181627400,2.62562744140625,0.04190495879352092,0.0005839373677968978,0.03497986538821132
1772796389191619600,2.63561962890625,0.01914659901857376,-0.029814561896771192,0.027182124184083657
1772796389201612500,2.645612548828125,0.0026712650358676907,-0.03387143607214093,0.009406443625956308
1772796389211604500,2.6556044921875,-0.013538111487030982,-0.03508519577607512,-0.0013905364763690158
1772796389221597400,2.665597412109375,0.015498597905039786,-0.014130962813645601,0.03512287003849633
1772796389231589600,2.675589599609375,0.07872516166865826,-0.0003241904530674219,0.07892291273046284
1772796389241581300,2.685581298828125,0.16062193911075592,-0.015016148150339722,0.09550977166309021
1772796389251574500,2.695574462890625,0.25090719019174573,-0.02445435003787279,0.07919418568620458
1772796389261566700,2.705566650390625,0.30664719759225845,-0.045364305467158555,0.03510352145063225
1772796389271558400,2.715558349609375,0.24380466471016404,-0.07570705595649778,-0.02113071290734224
1772796389281551600,2.725551513671875,0.17948679857850075,-0.10221833852417767,-0.055422347152931616
1772796389291543600,2.73554345703125,0.038163434177637096,-0.0973464947041124,-0.06377745281176175
1772796389301536500,2.74553662109375,-0.12728840930759905,-0.05449029960036277,-0.1276707596886903
1772796389311528400,2.755528564453125,-0.2586556123614311,-0.02393514846935868,-0.13596578289046882
1772796389321520600,2.765520751953125,-0.2916641479939222,0.013906141081824898,-0.1150617640116252
1772796389331513600,2.775513671875,-0.29706805286407467,0.03588964402675628,-0.05675428987643681
1772796389341505500,2.785505615234375,-0.27242694808244705,0.04107143057882785,-0.016489344241749495
1772796389351498500,2.79549853515625,-0.1768167025864124,0.016431348710507155,-0.009421344367566052
1772796389361490400,2.805490478515625,-0.08890051872432231,-0.027383170031383634,-0.06154978965781629
1772796389371482600,2.815482666015625,-0.05321136570572853,-0.08088920783475041,-0.09249765730029903
1772796389381475300,2.825475341796875,-0.011707388928532599,-0.1251163990307599,-0.062140896551916375
1772796389391467500,2.835467529296875,-0.01054886654317379,-0.11780468777790665,-0.005274360206350684
1772796389401459500,2.84545947265625,-0.06926584392786025,-0.0919316300485283,0.0038669776264578103
1772796389411452400,2.855452392578125,-0.09041676850616931,-0.038036958253756165,0.01901154706259258
1772796389421444400,2.8654443359375,-0.09141220928430557,0.0030627485714852807,-0.005939454785268753
1772796389431437600,2.8754375,-0.06665653821229935,0.00857902777493,-0.001432055796845816
1772796389441429500,2.885429443359375,-0.01976619222164154,0.007069499994814396,-0.043078916210029274
1772796389451421400,2.89542138671875,0.05437690235376358,-0.025325799110159277,-0.04847715395779814
1772796389461414700,2.90541455078125,0.12511398787796496,-0.060269686719402665,-0.06827283256882802
1772796389471406300,2.91540625,0.17631342923939228,-0.08811280241273343,-0.05619470149860717
1772796389481398500,2.9253984375,0.2009726541996002,-0.08577522631064056,-0.029792624059598892
1772796389491391500,2.9353916015625,0.1923854431182146,-0.06811148626096546,-0.01010879005889874
1772796389501383400,2.945383544921875,0.2024982563316822,-0.03960683791898191,-0.015678347519272936
1772796389511376600,2.955376708984375,0.1426981598854065,-0.03308496186956763,-0.016956948053766973
1772796389521368600,2.96536865234375,0.07710545151233672,-0.0017559037566184997,-0.06028286586138419
1772796389531360500,2.975360595703125,0.011207038190960883,-0.009639496613293885,-0.07480910246977582
1772796389541353500,2.985353515625,-0.03798515500128269,-0.015382862570881842,-0.08454151066406629
1772796389551345700,2.995345703125,-0.07794014877080917,-0.03089037443473935,-0.11953939348286949
1772796389561337300,3.00533740234375,-0.09922259077429771,-0.03499357196986675,-0.12365016240309923
1772796389571330600,3.01533056640625,-0.09750234285295009,-0.062179246667772525,-0.08330620584860443
1772796389581322500,3.025322509765625,-0.12534662759006024,-0.060986164425685996,-0.09999717360967769
1772796389591315500,3.0353154296875,-0.1354816526353359,-0.0600241875257343,-0.1326599736775737
1772796389601307600,3.0453076171875,-0.12922668389379977,-0.06526829872429371,-0.1269452858251985
1772796389611299600,3.055299560546875,-0.11974983049631117,-0.06429755399599671,-0.11963513634176924
1772796389621292500,3.06529248046875,-0.10147592265903949,-0.06409143696464598,-0.11473651411263272
1772796389631284500,3.075284423828125,-0.053154082560539245,-0.0610928396705538,-0.09129086619326844
1772796389641277400,3.08527734375,0.0029588498055934903,-0.07541727922968566,-0.09731615436477586
1772796389651269400,3.095269287109375,0.08936404458284378,-0.1047352897811681,-0.09761771286092698
1772796389661261600,3.105261474609375,0.16658932308256624,-0.12390775389336049,-0.10594320426620542
1772796389671254500,3.115254638671875,0.2494838793903589,-0.1334333418034017,-0.1064172697850503
1772796389681246500,3.12524658203125,0.3608645254701376,-0.13186806524805725,-0.10263782431157305
1772796389691238700,3.13523876953125,0.3991039474934339,-0.13780622312538324,-0.1117694079353474
1772796389701231400,3.1452314453125,0.22023206594288347,-0.10554426807649434,-0.13317283683684653
1772796389711223600,3.1552236328125,-0.036986791613698,-0.02181611048877239,-0.09146104426155797
1772796389721216500,3.165216552734375,-0.22153613427877425,0.06399301809147,-0.042775558482436464
1772796389731208400,3.17520849609375,-0.2891775918751955,0.1084820020288229,-0.043820450725755654
1772796389741200400,3.185200439453125,-0.27605332188606263,0.10409626122526824,-0.03423228244089987
1772796389751193600,3.195193603515625,-0.21772505155801772,0.06708119336515665,-0.008279895272949943
1772796389761185500,3.205185546875,-0.16728841126263141,0.04821165772229433,-0.003182117759500397
1772796389771177500,3.215177490234375,-0.14562252289950847,0.04139832444563508,-0.03429994541620836
1772796389781170700,3.225170654296875,-0.10729366902709006,0.016668737662956117,-0.001462297954771202
1772796389791162400,3.235162353515625,-0.09779460379779338,0.009511413254216313,0.01306071236678399
1772796389801155600,3.245155517578125,-0.024589082333445547,-0.025709903056919572,0.010854169632680714
1772796389811147500,3.2551474609375,0.05399930121302604,-0.027384996662288903,0.037103065803973004
1772796389821139500,3.265139404296875,0.14931903932988644,-0.046380715968087315,0.05923406462792773
1772796389831132400,3.27513232421875,0.20947160247564314,-0.07497625746391713,0.03626223106565885
1772796389841124600,3.28512451171875,0.21992811456024647,-0.09388904772661626,-0.026939696013624777
1772796389851117600,3.29511767578125,0.20214812771975993,-0.09138897453919052,-0.06420497577514034
1772796389861109500,3.305109619140625,0.1436778185725212,-0.05713759923875331,-0.0435308018631069
1772796389871101700,3.315101806640625,0.08564473179876804,-0.03956716349571943,-0.017519127964193467
1772796389881094400,3.325094482421875,0.0887228240698576,-0.008217574051395058,0.020801985559763852
1772796389891086600,3.335086669921875,0.12541443212926387,-0.016377353500947354,0.02268234681311296
1772796389901078500,3.34507861328125,0.122219435480237,-0.030702742908149956,-0.025383390499313825
1772796389911071500,3.355071533203125,0.061436757737398144,-0.061403001598268746,-0.028707758282206484
1772796389921063400,3.3650634765625,0.024485621958971023,-0.0710929862897843,-0.02688863254666794
1772796389931056400,3.375056396484375,-0.012902736192941664,-0.05561667328178882,0.029621089717862193
1772796389941048600,3.385048583984375,-0.09676467622816562,-0.01987644766308367,0.048188422977179284
1772796389951040500,3.39504052734375,-0.1734317363232374,0.03963993647098541,0.0667841283810325
1772796389961033500,3.405033447265625,-0.20967793870270252,0.034419644539430735,0.05253001867833081
1772796389971025400,3.415025390625,-0.1980576435357332,0.045929318938776845,0.02351513980886666
1772796389981017600,3.425017578125,-0.13728548718690872,0.02900390310101211,0.01496600827363436
1772796389991010300,3.43501025390625,-0.0525678071051836,-0.011156696243211627,-0.0022197584087029097
1772796390001002500,3.44500244140625,0.053012628263235086,-0.08139986077062786,-0.00029581830853130667
1772796390010995700,3.45499560546875,0.11543196729719638,-0.08779233828671276,0.011232672672427724
1772796390020987400,3.4649873046875,0.12719020963013172,-0.09060761490315199,0.02717190418416867
1772796390030979600,3.4749794921875,0.10657003092765807,-0.058084743895754215,0.037291644895344506
1772796390040972500,3.48497265625,0.10727262623906135,-0.04903123047687113,0.02635145693004597
1772796390050964500,3.494964599609375,0.04769523263275623,-0.03709821609891951,0.035229924309276975
1772796390060956400,3.504956298828125,-0.013982932645082474,-0.014365502221882343,-0.0037576035344274714
1772796390070949600,3.51494970703125,-0.015219780963659285,-0.03566460309922695,-0.015193283399089704
1772796390080941300,3.52494140625,-0.004986556240916252,-0.03502959313131869,-0.010541359090153126
1772796390090934500,3.5349345703125,-0.038870705664157866,-0.07132226500101387,-0.021733743134676478
1772796390100926700,3.5449267578125,-0.093371526658535,-0.0466311105325818,-0.028732150654657743
1772796390110918400,3.55491845703125,-0.09373276118636131,-0.03948686480112373,-0.06530612825034186
1772796390120911600,3.56491162109375,-0.04767711245417595,-0.05181457758508622,-0.07944782252055592
1772796390130903600,3.574903564453125,-0.009774375039339065,-0.03379435224793851,-0.052484316373080944
1772796390140895500,3.5848955078125,0.031381811213493344,-0.034950244284793736,-0.03116556779706152
1772796390150888400,3.594888427734375,0.052965281990170476,-0.01931618343181908,-0.0048511024261359125
1772796390160879900,3.6048798828125,0.012215922972559929,-0.011681962226331234,-0.02498235140077304
1772796390170872800,3.614872802734375,-0.041805590072274204,-0.00782988990806043,-0.05104167981671635
1772796390180864800,3.62486474609375,0.0026239187628030775,-0.027371406528353688,-0.06686015275930986
1772796390190857000,3.63485693359375,0.07615969509482383,-0.0611029957383871,-0.07380634603486395
1772796390200850000,3.644849853515625,0.11956453705728054,-0.07062748766988515,-0.05963592342708725
1772796390210841900,3.654841796875,0.12131459559500217,-0.062355333887040613,-0.041703513370710425
1772796390220834000,3.664833984375,0.1090659393966198,-0.052775896897912025,-0.025625816386484073
1772796390230826800,3.67482666015625,0.058684244158864016,-0.018904460825771092,-0.025919661933637688
1772796390240819000,3.68481884765625,0.02053133137524128,-0.004684796815365553,-0.0021593859739950858
1772796390250812000,3.69481201171875,-0.013754384586215019,-0.0032532296422868967,-0.015312884340900926
1772796390260803800,3.704803955078125,-0.0024000468790531158,-0.030397914742678403,-0.05120097116481047
1772796390270795800,3.714795654296875,-0.020445406657457352,-0.03858750480860471,-0.06534200328132138
1772796390280789000,3.7247890625,-0.0820867470562458,-0.021276815980300307,-0.03887015767488628
1772796390290781000,3.734781005859375,-0.09560030862390995,0.002399973813816905,-0.012120273728494066
1772796390300772900,3.74477294921875,-0.10885434247255325,0.012971052188798784,-0.005165148227813188
1772796390310766000,3.75476611328125,-0.09836860429346561,0.014742445775493978,-0.03322274920532945
1772796390320757800,3.7647578125,-0.08895137212872505,-0.0032047873906791207,-0.046581965028075496
1772796390330751000,3.7747509765625,-0.038085108244419096,-0.024441417491063475,-0.05059062528070062
1772796390340743000,3.784742919921875,0.007725625815987586,-0.0239838829819113,-0.03629244582412066
1772796390350734800,3.79473486328125,0.05462824676632881,-0.026322701193019746,-0.04958985987347551
1772796390360727800,3.804727783203125,0.08103928382992744,-0.02665149475596845,-0.026292780978791414
1772796390370720000,3.814719970703125,0.07572773341834545,-0.040271585438027974,-0.004137695743062068
1772796390380713000,3.824712890625,0.07310965987443924,-0.07856785221509635,-0.04697246218300424
1772796390390705000,3.834704833984375,0.059573886474967,-0.07397679809778929,-0.10485944588379933
1772796390400697000,3.844697021484375,0.03201309485435486,-0.06979176749810576,-0.12555146597977726
1772796390410689800,3.854689697265625,0.0274058933198452,-0.02969363893084228,-0.0566781969995005
1772796390420682000,3.864681884765625,0.0448690692961216,0.007283069680258631,-0.010548642780887893
1772796390430674000,3.874673828125,0.047588265126943585,0.008267550672963262,-0.006812319496506825
1772796390440667000,3.8846669921875,0.1025824225962162,-0.020105214917659757,-0.022680677729123272
1772796390450658800,3.894658935546875,0.09652969842851161,-0.07196903847195207,-0.0753381678451784
1772796390460651800,3.90465185546875,0.026889760491251944,-0.11287139609418809,-0.1441638119911775
1772796390470644000,3.91464404296875,-0.09736088855564594,-0.07909589467719197,-0.07841576692592352
1772796390480636000,3.924635986328125,-0.16680384261608122,-0.007339841368794441,-0.011939960141968914
1772796390490628900,3.93462890625,-0.1798585545003414,0.020645605404675006,0.010421260391420219
1772796390500620800,3.944620849609375,-0.15757424197793005,0.026384149056673047,0.02297779751217458
1772796390510613000,3.954613037109375,-0.12390110495686531,-0.002314852813631296,0.011347277778713033
1772796390520605700,3.964605712890625,-0.07890694797635078,-0.009438055757060646,-0.00013671761503792368
1772796390530598000,3.974597900390625,-0.045052024647593496,-0.012342325831204651,-0.025794754629046655
1772796390540591000,3.984591064453125,-0.015720131701231002,-0.03003003127835691,-0.01872191874954151
1772796390550582800,3.994582763671875,0.05521569126546383,-0.030412600855156777,-0.009440827669459395
1772796390560575000,4.004574951171875,0.09798106628060341,-0.043667219225689766,0.011663459596905158
1772796390570568000,4.01456787109375,0.18639350922703743,-0.05915390749722719,0.010670126294175861
1772796390580560000,4.024559814453125,0.18229601078033447,-0.03726129770614207,0.019466807416267693
1772796390590551800,4.0345517578125,0.15970248617827892,-0.03222980634495616,0.026959204431693067
1772796390600545000,4.044544921875,0.07346680274903773,0.008395487901568412,0.023283128001145084
1772796390610536700,4.05453662109375,-0.009416647642850875,0.03280176101401448,0.02276508177667856
1772796390620530000,4.064530029296875,-0.06514379556179047,0.05210113944150507,0.01064312640610733
1772796390630522000,4.074522216796875,-0.04166588934063911,0.04566138871759176,0.009107440129783935
1772796390640513800,4.084513671875,0.0007470189750194549,0.028427564517781136,0.015541304535605012
1772796390650507000,4.094507080078125,-0.013823358169198035,-0.006735372669622302,0.030125975066656246
1772796390660499000,4.1044990234375,-0.039357027876377106,-0.00006919277869164943,0.016070400735404108
1772796390670491000,4.114490966796875,-0.08925064733624458,0.002493278120458126,0.018256317381653935
1772796390680483800,4.12448388671875,-0.11755027462542056,0.00634556963443756,0.0033370737133052897
1772796390690476000,4.13447607421875,-0.10366378809213637,0.0028073125056922435,0.011408750758541282
1772796390700469000,4.144468994140625,-0.04290741383433342,-0.029922625381127,-0.035288956453558055
1772796390710461000,4.1544609375,0.033498949497938156,-0.03776055246517062,-0.04392570576509461
1772796390720452900,4.164452880859375,0.05604688139259815,-0.03702646603696048,-0.028598160427890252
1772796390730445800,4.17444580078125,0.03623626550734043,-0.026599618438258765,-0.028122654153918847
1772796390740438000,4.18443798828125,0.0114198041588068,-0.04590491514988243,-0.04351150807416997
1772796390750430000,4.194429931640625,-0.010499182182550429,-0.036186800342425704,-0.060317412018380125
1772796390760423000,4.2044228515625,0.02749941682219505,0.0036167291924357413,0.03268714449128601
1772796390770414800,4.214414794921875,0.10691957501769066,0.002482464465498924,0.027359300532029007
1772796390780407800,4.22440771484375,0.11126549526751041,-0.04111132419779896,-0.0691431399967987
1772796390790399700,4.234399658203125,0.08046762142181396,-0.09343202467411756,-0.10912299421294591
1772796390800392000,4.244391845703125,0.03593406769037247,-0.06404270245209336,-0.09289717801189981
1772796390810385000,4.254385009765625,-0.023145313265919683,-0.009373831414431332,-0.06773582591556478
1772796390820376800,4.264376953125,-0.06582067191004752,0.027867154156044124,-0.029068912894930687
1772796390830369000,4.274369140625,-0.05972001694738865,0.027892215532064436,0.00014454130353406072
1772796390840361700,4.28436181640625,-0.005705518165230751,0.038706455013155935,-0.029719097599084487
1772796390850354000,4.29435400390625,0.014867314264178276,-0.007325520582497119,-0.08176172548611647
1772796390860345900,4.304345947265625,0.027056933751702306,-0.02832213138192892,-0.0937159470488783
1772796390870338800,4.3143388671875,0.002836100208759308,-0.028209610918164253,-0.07353969902188982
1772796390880330800,4.324330810546875,-0.06924012496471404,-0.00362016325853765,-0.05779623667742125
1772796390890324000,4.334323974609375,-0.11418459758460521,0.03809234170280397,-0.053508805149188265
1772796390900316000,4.34431591796875,-0.06424538541734218,0.00994439784400165,-0.041262614902528
1772796390910307800,4.354307861328125,0.004306757283210754,0.009972820220887661,-0.04415972001694608
1772796390920301000,4.364301025390625,0.03626841421127319,-0.001732669011503458,-0.0017333494315156712
1772796390930292700,4.374292724609375,0.047778234741091725,-0.003866246974095702,-0.005343930869310861
1772796390940285000,4.384284912109375,0.06394961734116077,-0.032543767664954065,-0.05763145630345679
1772796390950278000,4.39427783203125,0.04373334326446056,-0.04420870569124818,-0.08926750713950023
1772796390960269800,4.404269775390625,0.026211715099215507,-0.040624563594162465,-0.08341860758136026
1772796390970263000,4.414262939453125,0.010912439158558844,-0.0257681360501796,-0.03251918121296912
1772796390980255000,4.4242548828125,0.0026198271095752715,0.006987959191203117,0.03647016102818306
1772796390990247000,4.434246826171875,0.030163667595386502,0.02857544855587184,0.031003584451670757
1772796391000239900,4.444239990234375,0.13343231889009474,-0.007868979809433222,0.0047991085190617015
1772796391010232000,4.454232177734375,0.1769786151498556,-0.06889452639743686,-0.0548525113757234
1772796391020223700,4.4642236328125,0.1228337679862976,-0.08225457790382205,-0.10034833426806143
1772796391030217000,4.474217041015625,0.023732173243165015,-0.03680142510943114,-0.08491535807829349
1772796391040209000,4.484208984375,-0.075176529276371,-0.007557137381285429,-0.04074060032241977
1772796391050201900,4.494201904296875,-0.15882570334374904,0.02163425111584365,-0.001616091143840458
1772796391060194000,4.504194091796875,-0.17733868063390254,0.029991525898873803,0.0044586199517420025
1772796391070186000,4.51418603515625,-0.14231646709144113,0.025503932156041263,0.005538383720687125
1772796391080179000,4.524178955078125,-0.07468611541092396,0.003780614517256617,-0.004750492737517925
1772796391090171000,4.5341708984375,-0.026656536257266997,-0.004795198387280106,-0.0037017491570994023
1772796391100163000,4.5441630859375,0.005375263297557831,-0.04103445956930518,-0.0143499222019047
1772796391110155800,4.55415576171875,0.032813889843225474,-0.060932388411834834,-0.0449097940321546
1772796391120148000,4.56414794921875,0.07268997315764426,-0.10165580927059054,-0.06712675410651135
1772796391130141000,4.574140869140625,0.058719315472245216,-0.08513013334013521,-0.0553522821579827
1772796391140132900,4.5841328125,0.03714987322092056,-0.07026084631457924,-0.02888972496970091
1772796391150124800,4.594124755859375,0.026559505623579022,-0.033772578807547686,-0.025768165732931808
1772796391160118000,4.604117919921875,-0.007539163333177566,0.002265241518244147,-0.011000762471050257
1772796391170110200,4.614110107421875,-0.04524433234930038,0.006722951579466461,0.008703407639847137
1772796391180102100,4.62410205078125,-0.04541676630675792,0.02758366103954613,-0.01416770777759375
1772796391190095000,4.63409521484375,-0.025443653336167334,0.02098155936077237,-0.029614449914521536
1772796391200087000,4.644087158203125,-0.008185644543170929,-0.009810615396499633,-0.03576141682049492
1772796391210079200,4.654079345703125,0.0008539864808320999,-0.048934638234600425,-0.05176820855955593
1772796391220072000,4.664072021484375,0.02244973221719265,-0.040040845422074194,0.003044660358945839
1772796391230064000,4.674064208984375,-0.025248423025012016,-0.009196355955675244,-0.00012551180525624658
1772796391240057300,4.684057373046875,-0.013061726146936415,0.013733487928658724,0.00857737695724936
1772796391250049000,4.694049072265625,-0.0024748656809329985,0.01946443279609084,0.004090715367000666
1772796391260041000,4.704041015625,0.008266893085837364,0.004945858904346823,-0.004869601059806882
1772796391270034200,4.7140341796875,0.009838087925314903,-0.004230988633260131,-0.017893041593790984
1772796391280026000,4.724026123046875,0.034991233882308,0.0036173867795616385,0.0068384523057175095
1772796391290018000,4.73401806640625,0.05432663347125053,-0.021756781516969203,-0.01008083689782652
1772796391300011300,4.74401123046875,0.07879062812030314,-0.053660570777952665,-0.03822306454353966
1772796391310003000,4.7540029296875,0.06351940923035145,-0.05403035393841564,-0.031935090864833905
1772796391319996200,4.76399609375,0.04668459428548813,-0.05517338649369776,-0.04905308611565269
1772796391329988000,4.773988037109375,0.04122866696715355,-0.06041618251800537,-0.07398531933096238
1772796391339980000,4.78397998046875,-0.004787818798422813,-0.028773090019822117,-0.07220629042708314
1772796391349973200,4.79397314453125,-0.022877602240443228,-0.026378449968248605,-0.05867306517772376
1772796391359965200,4.803965087890625,-0.0055097033321857445,-0.013300430273637174,-0.033755371944420035
1772796391369957000,4.81395703125,0.00421674091219902,-0.008957067307084798,0.013543561696994583
1772796391379950000,4.8239501953125,0.0118511813133955,0.002387041267007589,-0.015717107485438465
1772796391389942300,4.8339423828125,-0.018515899899601937,-0.002491670685261488,-0.04407203716691583
1772796391399934000,4.843933837890625,-0.025062545064091682,0.018255057006329296,-0.025801277984667102
1772796391409927200,4.85392724609375,-0.03121288438737392,0.017347513707354663,-0.030356080328370443
1772796391419919000,4.863919189453125,-0.0574783755004406,0.008499678928405046,-0.016575460755778475
1772796391429912000,4.873912109375,-0.04041910414993763,0.01213701251745224,-0.0010282727561920183
1772796391439904300,4.883904296875,-0.008849661409854888,0.014016761849448084,0.00560918735950836
1772796391449896200,4.893896240234375,0.010371171888709068,0.011944339489564299,-0.0020931140922853956
1772796391459889200,4.90388916015625,0.05003682732284069,0.009131693221628665,-0.009327784332598094
1772796391469881000,4.913881103515625,0.05430383711755275,-0.014936433977633714,-0.03516097812575754
1772796391479873300,4.923873291015625,0.051694531401991844,0.009257438493147491,-0.02693952705026604
1772796391489866000,4.933865966796875,0.046395255950093264,-0.00923427681326866,-0.009337636723043396
1772796391499858200,4.943858154296875,0.04210778788924217,-0.07265592475757002,-0.03688197953235358
1772796391509851100,4.95385107421875,0.11671031666994094,-0.05421966596543788,-0.10357286753882654
1772796391519843000,4.963843017578125,0.07785480857491493,-0.01871449121162295,-0.10876582393888383
1772796391529835300,4.973835205078125,0.0299678527623415,-0.09205620627626776,-0.09789704125896095
1772796391539828000,4.983827880859375,-0.022890461722016333,-0.05885843168199062,-0.04775905055000912
1772796391549820200,4.993820068359375,-0.03025193040072918,0.0011704320188611745,-0.010261779530369676
1772796391559812000,5.00381201171875,0.011233926197886466,0.005635594734176993,-0.03608282394472044
1772796391569805000,5.01380517578125,0.050265375381708145,-0.05523907214105129,-0.07554773720894009
1772796391579797000,5.023796875,0.06792027453780174,-0.092477719623968,-0.10833601768687366
1772796391589790200,5.033790283203125,0.02281915005147457,-0.12120112528316676,-0.10262388711776584
1772796391599782100,5.0437822265625,-0.06416121426522732,-0.05079940919317305,-0.04412599584385753
1772796391609774000,5.053774169921875,-0.12481237458288669,0.012848814048618077,0.02280960133841727
1772796391619767300,5.063767333984375,-0.13210019350349902,0.026591727392747996,0.07034232318610883
1772796391629759000,5.073759033203125,-0.07757774519920349,0.019409853064641356,0.035140652290359134
1772796391639751200,5.083751220703125,-0.05971943242549896,-0.003331555575504899,-0.026949671701656186
1772796391649744100,5.093744140625,-0.0028010288953781125,-0.023150573962926864,-0.03660864020040026
1772796391659736000,5.103736083984375,0.04529927740693092,-0.02615004803985357,-0.03768371295285178
1772796391669728000,5.11372802734375,0.051202363970875735,-0.08106558731496334,-0.014364365144143812
1772796391679721200,5.12372119140625,0.07865794165134429,-0.0842207634102553,-0.04094179001690354
1772796391689713000,5.133712890625,0.08284194933772086,-0.06679441231302917,-0.009086767234513536
1772796391699706000,5.1437060546875,0.10972294200062752,-0.0558561811260879,0.0026389062693808227
1772796391709698300,5.1536982421875,0.12352817999124527,-0.05386493424363434,-0.010058696989610325
1772796391719690000,5.16368994140625,0.11825988419950008,-0.05651245307773351,-0.025853640642855315
1772796391729683200,5.17368310546875,0.0718652127712965,-0.04172083439826965,-0.028176592281262854
1772796391739675100,5.183675048828125,-0.0017968202888965605,-0.06688954325057565,-0.05434041083485353
1772796391749667000,5.1936669921875,-0.07660510077476501,-0.0552310349650681,-0.06831127401622943
1772796391759660000,5.203659912109375,-0.13564648780822752,-0.01979636816419661,-0.06633896929626353
1772796391769652200,5.21365234375,-0.11975509119331836,-0.04911773971654475,-0.08263975956281647
1772796391779644000,5.223643798828125,-0.07048866372108459,-0.07325432904213666,-0.05385215239387471
1772796391789637000,5.23363720703125,-0.059248892304301255,-0.0723641752693802,-0.026179372315749058
1772796391799629300,5.24362939453125,-0.04744681082963943,-0.036108255213499064,0.005754437624162528
1772796391809622000,5.2536220703125,-0.0648895285397768,-0.04396700588986277,0.016639844928612
1772796391819614200,5.2636142578125,-0.0931926629602909,-0.01808043109178543,0.010437612162955337
1772796391829606100,5.273606201171875,-0.08038812644481659,-0.011694894773140549,0.01160571294412366
1772796391839599000,5.28359912109375,-0.008918050470948218,-0.02649352771528065,0.009448693598795216
1772796391849591000,5.293591064453125,0.03718026835918426,-0.037584903637319804,0.007208495190262328
1772796391859583200,5.303583251953125,0.08232873911857605,-0.04811309271864593,0.032846693850995506
1772796391869576200,5.313576171875,0.12679448831081389,-0.05386814911402762,-0.005444566815748112
1772796391879568100,5.323568115234375,0.14305296467244624,-0.05987206570394337,-0.00501325815981836
1772796391889561000,5.33356103515625,0.10124152938127517,-0.04213372604809701,-0.0006414111675869207
1772796391899553000,5.343552978515625,0.0492214192867279,-0.01508877499513328,0.02183738617224153
1772796391909545200,5.353545166015625,0.020388123512268066,0.009769260472804308,0.024338943497277794
1772796391919538000,5.363537841796875,0.011802081474661826,0.007843699237704277,0.02246893924116157
1772796391929530000,5.373530029296875,0.04039923040568828,0.01239449440985918,-0.009669594924035482
1772796391939522000,5.38352197265625,0.015902502530813215,-0.004421323573589325,0.0001410580040210334
1772796391949515000,5.393514892578125,-0.049368718802928924,-0.009468085569143294,-0.02776472811131971
1772796391959507200,5.403507080078125,-0.08528115918338298,-0.010669424182921647,-0.014149806794722098
1772796391969499100,5.4134990234375,-0.12476093665659427,0.010424582576379179,-0.010917544591939075
1772796391979492000,5.4234921875,-0.11461948187053203,0.010984700677171349,-0.0013533054573534173
1772796391989484000,5.433484130859375,-0.05176233594119548,-0.001742532818391919,-0.0012463713446370093
1772796391999477200,5.443477294921875,0.030213351956009864,-0.018851342399045824,-0.010577713611745275
1772796392009469000,5.453468994140625,0.0805576377928257,-0.0313058964330703,-0.022035870169696863
1772796392019461000,5.463461181640625,0.07544424030184746,-0.03233750450313091,-0.02373022559796227
1772796392029454000,5.4734541015625,0.023757892206311224,-0.049642567308247086,-0.0484696693376638
1772796392039446000,5.483446044921875,-0.01560731897652149,-0.017513883250206707,-0.06646435380817856
1772796392049438000,5.49343798828125,-0.01400397543311119,-0.015611775955930352,-0.07462701933456119
1772796392059431200,5.50343115234375,0.012278466814756393,-0.026919132716208695,-0.05556952793812379
1772796392069423000,5.513423095703125,0.0550339049577713,-0.01216273148059845,0.028259692571009506
1772796392079416000,5.523416015625,0.0907785875558853,-0.03608363222889602,0.0092298849075858
1772796392089408300,5.533408203125,0.07492401582002639,-0.07058715565949678,-0.06210576130645349
1772796392099400000,5.54339990234375,0.06078326226472854,-0.0602550736721605,-0.0482109544693958
1772796392109393200,5.55339306640625,0.03275777574181556,-0.01609261827543378,-0.03941968131642788
1772796392119385000,5.563385009765625,0.017042904737591742,-0.004473492152243852,0.02887259117180947
1772796392129377000,5.573376953125,0.03161503544747829,0.01944207483381033,0.05468169398661703
1772796392139370200,5.583370361328125,0.08114800490140914,0.014436886957660317,0.04904491650892887
1772796392149362200,5.593362060546875,0.07719663692712783,-0.039607276310399175,-0.005345293992623919
1772796392159354000,5.60335400390625,0.0517529835909605,-0.04828888767696917,-0.040671357311378234
1772796392169347300,5.613347412109375,0.018668460112810134,-0.05750124491937458,-0.010255493636766914
1772796392179339300,5.62333935546875,-0.05665770676732063,-0.047141836533695455,0.016716346514213363
1772796392189332200,5.633332275390625,-0.1023205567896366,-0.026678601958602666,-0.0001459957583923824
1772796392199324200,5.64332421875,-0.154256495732069,-0.006187894854694604,0.01898729397074785
1772796392209316400,5.65331640625,-0.16579612687826156,-0.00031863749511539934,0.017485383241507224
1772796392219309300,5.663309326171875,-0.12776362560391424,-0.009237418618425726,0.01871912172096781
1772796392229301200,5.67330126953125,-0.08093465441167354,-0.023821970418468116,-0.0149978590084007
1772796392239293400,5.68329345703125,0.015766308930516244,-0.05991166706196963,-0.04135093250679783
1772796392249286100,5.6932861328125,0.07726502598822116,-0.09471570780910551,-0.05029085688283667
1772796392259278300,5.7032783203125,0.13215046238601208,-0.0910451295375824,-0.0835561072227545
1772796392269271000,5.71327099609375,0.12428279775083065,-0.06422565780356526,-0.043904959804587994
1772796392279263200,5.72326318359375,0.09209259276390075,-0.06054017422385513,-0.03467272425135597
1772796392289255200,5.733255126953125,0.056342064946889876,-0.060020826524868606,-0.034260092896432615
1772796392299248000,5.743248046875,0.05394143354594707,-0.029250352142751214,-0.017899425668804904
1772796392309240300,5.753240234375,0.004375146344304084,-0.0029774083755910396,-0.01048862882249523
1772796392319232300,5.763232177734375,-0.03357143021225929,-0.002231850705295801,-0.028391219129343514
1772796392329225200,5.77322509765625,-0.0524368742018938,0.005365618686378002,-0.02695287972218357
1772796392339217200,5.783217041015625,-0.06015665479898452,0.024806159150227904,-0.0122048832720262
1772796392349209300,5.793209228515625,-0.05447042585611343,0.009546192306652665,-0.00010234099222288933
1772796392359202000,5.8032021484375,-0.038361002576351166,0.0030203707344830036,-0.015100852450350066
1772796392369194200,5.8131943359375,-0.01175181259214878,-0.0024034078799188134,-0.010911295230954418
1772796392379187500,5.8231875,0.012649053692817687,-0.01253039574921131,-0.05220841747457161
1772796392389179100,5.83317919921875,0.03126315326988697,-0.017610767753422258,-0.05325469339080154
1772796392399171300,5.84317138671875,0.04573533073663711,-0.01824373189471662,-0.004768385728879366
1772796392409164300,5.853164306640625,0.0235585702419281,-0.014508783150091766,-0.010328428725525736
1772796392419156200,5.86315625,0.00973404302895069,-0.04177972497865558,-0.06386635037134401
1772796392429148200,5.873148193359375,0.022325229054689404,-0.05728504488542675,-0.06723057524058967
1772796392439141400,5.883141357421875,0.02592354580760002,-0.056017436102405185,-0.055210658897319805
1772796392449133000,5.893133056640625,0.025915362501144408,-0.0307874255169183,-0.02159426616532728
1772796392459126300,5.903126220703125,0.03309972104728222,-0.043058585808053614,-0.020859727645968086
1772796392469118200,5.9131181640625,0.04060381306707859,-0.05734101285636425,-0.0284911997719435
1772796392479110100,5.923110107421875,-0.006070844346284866,-0.03291588891297579,-0.03747292659624945
1772796392489103400,5.933103271484375,-0.008420622342824936,-0.02483626202754676,-0.007039358301588799
1772796392499095300,5.94309521484375,0.0013689502656459808,-0.047180853369832035,-0.030903971418540458
1772796392509087200,5.953087158203125,0.016397008049488068,-0.056812751198559996,-0.061986441209143955
1772796392519080200,5.963080078125,-0.015527823999524116,-0.055425899950042365,-0.07759181025717407
1772796392529072400,5.973072265625,-0.03251870628893375,-0.02396985445655882,-0.05780806867911014
1772796392539064000,5.98306396484375,-0.04433656985461712,0.01428717628866434,-0.007282876742369262
1772796392549057300,5.993057373046875,-0.056897945263981814,0.04532587315291166,0.02514306523768464
1772796392559049200,6.00304931640625,-0.03317746245861053,0.062475233939662575,0.03691959442927036
1772796392569042200,6.013042236328125,0.012483049476146698,0.08734064899645745,0.03508595154461218
1772796392579034400,6.023034423828125,0.04544599240124225,0.07264182316698134,-0.018814138494082724
1772796392589026300,6.0330263671875,0.03491992221176624,0.02122121333554387,-0.04215080504706129
1772796392599019300,6.043019287109375,-0.005964461362361908,-0.005951674946025013,-0.03508369565544417
1772796392609011200,6.05301123046875,0.0056231005787849425,0.010039017324894666,-0.03537681511681294
1772796392619003400,6.06300341796875,0.07320435242056846,0.032012875658646224,-0.03899761084630154
1772796392628996000,6.07299609375,0.1307464408069849,-0.008008972802013159,-0.03769856346211163
1772796392638988300,6.08298828125,0.17368191169202327,-0.04217771132029593,-0.03779718554797582
1772796392648980200,6.092980224609375,0.1648573847234249,-0.08488112701512873,-0.09564314311863854
1772796392658973200,6.10297314453125,0.08660159413218498,-0.0864552444640547,-0.11831378807751461
1772796392668965400,6.11296533203125,-0.03204875068962574,-0.04052643698193133,-0.10055991292581892
1772796392678958000,6.1229580078125,-0.128166945707798,0.019822671649232505,-0.03654920391403139
1772796392688950300,6.1329501953125,-0.1490063201189041,0.03116108113490045,0.01323200467992574
1772796392698942200,6.142942138671875,-0.06995382619202137,0.027311566099897027,-0.00821571716691542
1772796392708935200,6.15293505859375,0.011985621348023414,-0.03310242446102202,-0.048265534200845284
1772796392718927000,6.162927001953125,0.06249941853284836,-0.07572846407070756,-0.09403776288176886
1772796392728919300,6.172919189453125,0.08158464275300502,-0.100096743260324,-0.07121099577941932
1772796392738912300,6.182912353515625,0.009897124636173248,-0.08930537319816649,-0.025482211231288965
1772796392748904200,6.192904296875,-0.08220832760930061,-0.03714074006639421,0.016351681345218094
1772796392758896400,6.202896484375,-0.15410276647508145,0.0031524726815521714,0.042699776132754046
1772796392768889000,6.21288916015625,-0.16628361813426018,0.01859276452809572,0.023263843345362693
1772796392778881300,6.22288134765625,-0.15314356605410576,-0.0005024696294218302,-0.02665303369250614
1772796392788874200,6.232874267578125,-0.10891922440230846,0.016574483508244156,-0.043991788704670035
1772796392798866200,6.2428662109375,-0.02112345204949379,0.0013388473883271218,-0.023701006353343837
1772796392808858000,6.252858154296875,0.0508598341435194,-0.01814429010823369,0.010054168086609569
1772796392818851300,6.262851318359375,0.12129822898209094,-0.02805149774700403,0.03339393420390552
1772796392828843000,6.272843017578125,0.15198387462496757,-0.053292979574576016,0.02143608221221948
1772796392838835200,6.282835205078125,0.13456804492175578,-0.05677994490750134,0.00894960209490382
1772796392848828400,6.292828369140625,0.11779928095042705,-0.03263619518876076,0.010904097163543337
1772796392858820000,6.302820068359375,0.10647884551286697,0.0025393092192709443,0.006525728528157924
1772796392868813300,6.312813232421875,0.06123451316356659,-0.013778934505581856,0.004037848672847031
1772796392878805200,6.32280517578125,-0.030287001714110372,-0.01773687835112214,-0.0007949623280612285
1772796392888797200,6.332797119140625,-0.12567162176072597,0.0017320844896137712,0.0011691807766910642
1772796392898790100,6.3427900390625,-0.18063187696039676,0.021641557639464733,-0.0013545781053544486
1772796392908782300,6.3527822265625,-0.1831049890756607,0.03205686093084514,-0.021025133641017598
1772796392918774000,6.36277392578125,-0.12451719102859496,-0.01237936990596354,-0.005263339342948165
1772796392928767200,6.372767333984375,-0.03493979595601558,-0.05354900016225874,0.0021510100150611833
1772796392938759400,6.382759521484375,0.009306757527589797,-0.06519150716103612,0.04687094260386657
1772796392948751000,6.392751220703125,-0.0024865561187267303,-0.051077933873608705,0.044432458843989296
1772796392958744300,6.402744384765625,-0.036084289816021915,-0.049491906791180366,0.020143510234588755
1772796392968736300,6.412736328125,-0.07978314628899097,-0.03455919914059341,-0.004444717007264262
1772796392978729200,6.422729248046875,-0.05227028546333313,-0.021566884968057275,-0.03780928697772324
1772796392988721200,6.43272119140625,-0.015278233152627944,-0.02540960493609309,-0.04364519919012673
1772796392998713300,6.44271337890625,0.02898176433444023,-0.018909137000888584,-0.03123212794396095
1772796393008706300,6.452706298828125,0.07058744792044162,-0.0023369915802031755,-0.023974503232212736
1772796393018698200,6.4626982421875,0.05966682545542717,-0.014171440954506396,-0.025846733694744762
1772796393028690400,6.4726904296875,0.05437924044132232,-0.0028757746320217845,-0.045055819473299195
1772796393038683100,6.48268310546875,0.033012627285718917,-0.0009258826732635498,-0.04127322762808762
1772796393048675300,6.49267529296875,0.024535306319594382,0.0005044423907995223,-0.04342916355296038
1772796393058668000,6.50266796875,0.03741933781206608,0.007392813665047288,-0.024837184476153924
1772796393068660200,6.51266015625,0.04725684121549129,0.01676671814471483,-0.0013523598904488607
1772796393078652200,6.522652099609375,0.016022329518198965,0.006508358980715274,0.012460947242192924
1772796393088645000,6.53264501953125,-0.02801321156322956,0.011127250953018664,0.008043129087475244
1772796393098637300,6.54263720703125,-0.0820996065378189,0.007168503389880061,-0.010040688692172988
1772796393108629200,6.552629150390625,-0.17370353900194166,-0.0018369331035763025,-0.011177839495940133
1772796393118622200,6.562622314453125,-0.20589666659831998,0.0007846475716680287,-0.024603971658612136
1772796393128614100,6.5726142578125,-0.1555985579907894,0.01565861077234149,-0.022128948430763556
1772796393138606300,6.5826064453125,-0.04998305130898952,0.05647044056691229,0.017882143457152413
1772796393148599000,6.59259912109375,-0.053552726489305494,0.0654890288028866,0.046473111525853164
1772796393158591700,6.602591796875,-0.01035363623201847,-0.007042538922652602,0.054305389753822236
1772796393168584700,6.612584716796875,0.09566343698799609,-0.05933978545814752,0.015608081594924442
1772796393178576600,6.62257666015625,0.16601590710878372,-0.10936075762473046,0.007078284947824432
1772796393188568800,6.63256884765625,0.16766484335958956,-0.05542385412342846,-0.01915183231611736
1772796393198561800,6.642561767578125,0.1137842000901699,-0.05152575070634484,-0.0887925191720482
1772796393208553700,6.6525537109375,0.047238721036911006,-0.06940751742087305,-0.09623909058463759
1772796393218545700,6.662545654296875,-0.048154666838049885,-0.1102905858207494,-0.15832681391090153
1772796393228538600,6.67253857421875,-0.17985387832522393,-0.1367621939651668,-0.26427246586252
1772796393238530600,6.682530517578125,-0.2519172440171242,-0.12969547044932841,-0.30033191349823024
