time,seconds_elapsed,z,y,x
1772796386623576300,0.067576416015625,-0.00816461630165577,0.052194684743881226,-0.029421066865324974
1772796386633568500,0.077568603515625,0.000541789922863245,0.10183068364858627,-0.02818163111805916
1772796386643561700,0.087561767578125,0.004142069257795811,0.14231915771961212,-0.023895448073744774
1772796386653553400,0.097553466796875,0.006146630272269249,0.16467373073101044,-0.01791425608098507
1772796386663545300,0.10754541015625,0.006861544214189053,0.1679673194885254,-0.004796383436769247
1772796386673538600,0.11753857421875,0.02431696653366089,0.16826985776424408,0.008521818555891514
1772796386683530500,0.127530517578125,0.05434935912489891,0.17119227349758148,0.018241727724671364
1772796386693522400,0.1375224609375,0.08015432953834534,0.17273662984371185,0.02538086473941803
1772796386703515600,0.147515625,0.10818978399038315,0.1645863950252533,0.038711730390787125
1772796386713507300,0.15750732421875,0.13284559547901154,0.16187956929206848,0.05649632215499878
1772796386723500500,0.16750048828125,0.16042356193065643,0.15152166783809662,0.07684347033500671
1772796386733492500,0.177492431640625,0.17784038186073303,0.13363854587078094,0.0934663861989975
1772796386743484400,0.187484375,0.19539770483970642,0.09170731902122498,0.10583335906267166
1772796386753477600,0.1974775390625,0.2180100679397583,0.023674743250012398,0.10116004198789597
1772796386763469600,0.207469482421875,0.24250249564647675,-0.04570018872618675,0.09035992622375488
1772796386773462500,0.217462646484375,0.27694621682167053,-0.08505744487047195,0.0866384282708168
1772796386783454500,0.227454345703125,0.31928783655166626,-0.1042141392827034,0.0908697172999382
1772796386793446700,0.23744677734375,0.36171838641166687,-0.11473735421895981,0.1056116446852684
1772796386803439400,0.247439453125,0.392595499753952,-0.12880729138851166,0.12204139679670334
1772796386813431600,0.257431640625,0.410560667514801,-0.1555398404598236,0.13498541712760925
1772796386823424500,0.267424560546875,0.41715237498283386,-0.17826221883296967,0.142905130982399
1772796386833416400,0.27741650390625,0.40815675258636475,-0.18164601922035217,0.14771214127540588
1772796386843408600,0.28740869140625,0.3955153822898865,-0.18070080876350403,0.14842607080936432
1772796386853401300,0.2974013671875,0.37920618057250977,-0.16413621604442596,0.14271119236946106
1772796386863393500,0.3073935546875,0.3697585463523865,-0.12738224864006042,0.13174042105674744
1772796386873385500,0.317385498046875,0.3573375642299652,-0.07499254494905472,0.11033738404512405
1772796386883378400,0.32737841796875,0.34374964237213135,-0.0404641218483448,0.07394978404045105
1772796386893370400,0.337370361328125,0.32838505506515503,-0.030012547969818115,0.04419828578829765
1772796386903363600,0.347363525390625,0.3159390389919281,-0.025562137365341187,0.016158929094672203
1772796386913355500,0.35735546875,0.30067700147628784,-0.028246603906154633,0.0018247313564643264
1772796386923347500,0.367347412109375,0.28320983052253723,-0.037980418652296066,-0.006687052547931671
1772796386933340700,0.377340576171875,0.2667216658592224,-0.04010055959224701,-0.0060486928559839725
1772796386943332400,0.387332275390625,0.2535647451877594,-0.02755797654390335,0.00014913070481270552
1772796386953325600,0.39732568359375,0.23369596898555756,0.0014635552652180195,0.0072866687551140785
1772796386963317500,0.4073173828125,0.21427138149738312,0.0072382171638309956,0.00522259809076786
1772796386973309400,0.417309326171875,0.19822131097316742,-0.008279756642878056,0.012297818437218666
1772796386983302700,0.427302734375,0.19013740122318268,-0.012597296386957169,0.025891663506627083
1772796386993294600,0.437294677734375,0.18251357972621918,-0.007735163904726505,0.04392179846763611
1772796387003287600,0.44728759765625,0.16981393098831177,-0.005952815525233746,0.05136065185070038
1772796387013279500,0.457279541015625,0.15757350623607635,-0.003063019597902894,0.05907716229557991
1772796387023271700,0.467271728515625,0.15366682410240173,-0.013430632650852203,0.054625868797302246
1772796387033264400,0.477264404296875,0.14879003167152405,-0.010537906549870968,0.05289454758167267
1772796387043256600,0.487256591796875,0.1365419626235962,0.0021714656613767147,0.052765149623155594
1772796387053248500,0.49724853515625,0.12163598835468292,-0.004296287894248962,0.04931635409593582
1772796387063241500,0.507241455078125,0.10481633991003036,-0.027548644691705704,0.05317051336169243
1772796387073233700,0.517233642578125,0.0929410383105278,-0.038799166679382324,0.057775650173425674
1772796387083226400,0.527226318359375,0.07879374176263809,-0.0429137647151947,0.06859982758760452
1772796387093218600,0.537218505859375,0.06494370847940445,-0.031060032546520233,0.07887616753578186
1772796387103210500,0.54721044921875,0.052927933633327484,-0.010670137591660023,0.0935361310839653
1772796387113203500,0.557203369140625,0.047447945922613144,0.001873617060482502,0.10211151093244553
1772796387123195400,0.5671953125,0.04496418684720993,0.0036883698776364326,0.10371650755405426
1772796387133188600,0.577188720703125,0.04605075716972351,-0.010021316818892956,0.10932166874408722
1772796387143180300,0.58718017578125,0.04503703862428665,-0.019471872597932816,0.12066759169101715
1772796387153172500,0.59717236328125,0.048487961292266846,-0.029768720269203186,0.1345655620098114
1772796387163165700,0.607165771484375,0.04906964302062988,-0.028642019256949425,0.13773484528064728
1772796387173157400,0.617157470703125,0.050284311175346375,-0.02037450298666954,0.13653375208377838
1772796387183150600,0.627150634765625,0.0443703755736351,-0.00487124128267169,0.13020162284374237
1772796387193142500,0.637142578125,0.04067523777484894,0.008854690007865429,0.12394078075885773
1772796387203134500,0.647134521484375,0.04030973091721535,0.022056449204683304,0.12464818358421326
1772796387213127400,0.65712744140625,0.04708374664187431,0.032415345311164856,0.12058233469724655
1772796387223119600,0.66711962890625,0.056058093905448914,0.018791817128658295,0.10317257046699524
1772796387233111300,0.677111328125,0.06355329602956772,0.010944013483822346,0.08286863565444946
1772796387243104500,0.6871044921875,0.06517218053340912,0.002592244651168585,0.055784907191991806
1772796387253096700,0.6970966796875,0.07187322527170181,-0.015213916078209877,0.03041616827249527
1772796387263089400,0.70708935546875,0.07673666626214981,-0.0378187820315361,0.004835920408368111
1772796387273081600,0.71708154296875,0.08390483260154724,-0.054386306554079056,-0.010494566522538662
1772796387283073500,0.727073486328125,0.0872945562005043,-0.06736477464437485,-0.011392209678888321
1772796387293066500,0.73706640625,0.09142431616783142,-0.06440653651952744,0.0024937777779996395
1772796387303058400,0.747058349609375,0.09565848112106323,-0.05553022399544716,0.02363954298198223
1772796387313051400,0.757051513671875,0.09355431795120239,-0.04229644313454628,0.04162653163075447
1772796387323043600,0.767043701171875,0.0940682515501976,-0.045876890420913696,0.05811585485935211
1772796387333035500,0.777035400390625,0.09292948991060257,-0.05713220685720444,0.06472049653530121
1772796387343028500,0.787028564453125,0.0899423211812973,-0.06595808267593384,0.06531692296266556
1772796387353020400,0.7970205078125,0.0919862911105156,-0.06553570926189423,0.05658894404768944
1772796387363013600,0.807013671875,0.09201454371213913,-0.06532216817140579,0.0410449281334877
1772796387373005300,0.81700537109375,0.09550168365240097,-0.0634254589676857,0.02473626285791397
1772796387382997500,0.82699755859375,0.09435611218214035,-0.06206229701638222,0.009593670256435871
1772796387392990500,0.836990478515625,0.09035471081733704,-0.05346294865012169,0.006764062214642763
1772796387402982400,0.846982421875,0.08217483758926392,-0.04484562575817108,0.0008109516929835081
1772796387412974600,0.856974609375,0.07491319626569748,-0.04741797596216202,-0.0036487779580056667
1772796387422967600,0.866967529296875,0.07370366156101227,-0.04822095111012459,0.001038682064972818
1772796387432959500,0.87695947265625,0.07510368525981903,-0.03794567659497261,0.016221363097429276
1772796387442952400,0.886952392578125,0.07975305616855621,-0.01930500939488411,0.024541199207305908
1772796387452944600,0.896944580078125,0.08018555492162704,-0.011680113151669502,0.03315040096640587
1772796387462936300,0.906936279296875,0.07647819072008133,-0.004088635090738535,0.0519990399479866
1772796387472929500,0.916929443359375,0.07197505235671997,0.014593173749744892,0.0688754990696907
1772796387482921700,0.926921630859375,0.06770259141921997,0.02431425452232361,0.07931346446275711
1772796387492914400,0.93691455078125,0.06114189699292183,0.01675114408135414,0.08826994150876999
1772796387502906600,0.94690673828125,0.05921873450279236,0.011577136814594269,0.09139760583639145
1772796387512898600,0.956898681640625,0.06276313215494156,0.02090725488960743,0.08609684556722641
1772796387522891500,0.9668916015625,0.06284593790769577,0.031499218195676804,0.08061041682958603
1772796387532883500,0.976883544921875,0.063361257314682,0.04657084494829178,0.06184844672679901
1772796387542876400,0.98687646484375,0.05984709411859512,0.04456720128655434,0.03695467859506607
1772796387552868600,0.99686865234375,0.05057689547538757,0.024777516722679138,0.010610688477754593
1772796387562860500,1.006860595703125,0.03882770612835884,0.0029334910213947296,-0.010261044837534428
1772796387572853500,1.016853515625,0.02300080843269825,-0.009757270105183125,-0.013006230816245079
1772796387582845400,1.026845458984375,0.010290362872183323,-0.022225696593523026,-0.018321046605706215
1772796387592837600,1.036837646484375,0.000897393561899662,-0.030196538195014,-0.01787763088941574
1772796387602830300,1.046830322265625,-0.003458423539996147,-0.025623351335525513,-0.017971131950616837
1772796387612822500,1.056822509765625,0.0001858461182564497,-0.02102460339665413,-0.01816287823021412
1772796387622815500,1.0668154296875,-0.0015665621031075716,-0.014061331748962402,-0.031878333538770676
1772796387632807400,1.076807373046875,-0.00017958786338567734,-0.025201601907610893,-0.04193602874875069
1772796387642799400,1.08679931640625,0.004282246343791485,-0.02505144663155079,-0.029681414365768433
1772796387652792600,1.09679248046875,0.002346660941839218,-0.019749626517295837,-0.00539950979873538
1772796387662784500,1.106784423828125,-0.0010314364917576313,-0.028836891055107117,0.01057546678930521
1772796387672777500,1.116777587890625,-0.0007480761269107461,-0.03269794210791588,0.01556676346808672
1772796387682769700,1.126769775390625,0.004951596260070801,-0.02156073972582817,0.02191535197198391
1772796387692761300,1.13676123046875,0.0007938691414892673,-0.010408751666545868,0.01475917175412178
1772796387702754600,1.146754638671875,-0.011731557548046112,-0.008686582557857037,0.0061631109565496445
1772796387712746500,1.15674658203125,-0.02182041108608246,0.005792224779725075,0.008549037389457226
1772796387722739500,1.166739501953125,-0.022762881591916084,0.021767158061265945,0.01800491102039814
1772796387732731600,1.176731689453125,-0.014436507597565651,0.03257426619529724,0.03076411597430706
1772796387742723600,1.1867236328125,-0.0062889521941542625,0.025479182600975037,0.03961312770843506
1772796387752716500,1.196716552734375,-0.005520896054804325,0.004114507231861353,0.033698245882987976
1772796387762708500,1.20670849609375,-0.005888073705136776,-0.013540418818593025,0.025418244302272797
1772796387772700700,1.21670068359375,-0.0093160942196846,-0.023781869560480118,0.012838270515203476
1772796387782693400,1.226693359375,-0.011367526836693287,-0.03126668184995651,0.007203287910670042
1772796387792685600,1.236685546875,-0.01575774885714054,-0.03175351023674011,0.008071212098002434
1772796387802678500,1.246678466796875,-0.015768449753522873,-0.0233917273581028,0.02050952985882759
1772796387812670500,1.25667041015625,-0.012728185392916203,-0.002170594409108162,0.024745021015405655
1772796387822662700,1.26666259765625,-0.009329193271696568,0.01444939523935318,0.026476342231035233
1772796387832655400,1.2766552734375,-0.009398435242474079,0.019879581406712532,0.01714169606566429
1772796387842647600,1.2866474609375,-0.007196193560957909,0.010920856148004532,0.013783015310764313
1772796387852640500,1.296640625,-0.004208127036690712,-0.006476243957877159,0.01331749465316534
1772796387862632400,1.306632568359375,-0.004842517897486687,-0.017130538821220398,0.011032847687602043
1772796387872624400,1.316624267578125,-0.010193340480327606,-0.010213242843747139,0.008177405223250389
1772796387882617600,1.32661767578125,-0.0174312312155962,-0.004706261213868856,-0.0031544349621981382
1772796387892609500,1.336609619140625,-0.01911887712776661,-0.0005157771520316601,-0.02584882825613022
1772796387902602500,1.3466025390625,-0.020427456125617027,-0.006076173856854439,-0.0402456596493721
1772796387912594400,1.356594482421875,-0.01917550340294838,-0.017501933500170708,-0.04222225770354271
1772796387922586400,1.36658642578125,-0.016011934727430344,-0.019467346370220184,-0.026974329724907875
1772796387932579600,1.37657958984375,-0.013715637847781181,-0.012254822999238968,0.004259895533323288
1772796387942571500,1.386571533203125,-0.01261851191520691,-0.004409343935549259,0.02415948174893856
1772796387952563500,1.3965634765625,-0.014574602246284485,0.0015886276960372925,0.03277427703142166
1772796387962556700,1.406556640625,-0.016760405153036118,0.010175255127251148,0.030474310740828514
1772796387972548600,1.416548583984375,-0.020055534318089485,0.02159861847758293,0.03404853865504265
1772796387982541600,1.42654150390625,-0.021084655076265335,0.0224943645298481,0.029388710856437683
1772796387992533500,1.436533447265625,-0.024266067892313004,0.028181012719869614,0.029227323830127716
1772796388002525700,1.446525634765625,-0.026268955320119858,0.020953066647052765,0.031974200159311295
1772796388012518400,1.456518310546875,-0.02110934630036354,0.005341085605323315,0.03563950955867767
1772796388022510600,1.466510498046875,-0.014152154326438904,-0.0010726121254265308,0.03538414090871811
1772796388032503600,1.476503662109375,-0.010387510061264038,-0.0008387863636016846,0.037999629974365234
1772796388042495500,1.48649560546875,-0.006539071910083294,0.0007535885088145733,0.03190356865525246
1772796388052487400,1.4964873046875,-0.008120190352201462,-0.0013457811437547207,0.021305518224835396
1772796388062480400,1.50648046875,-0.00973835214972496,0.0075706117786467075,0.005688621662557125
1772796388072472600,1.51647265625,-0.01261962577700615,0.013638358563184738,-0.004653231706470251
1772796388082465500,1.526465576171875,-0.012284962460398674,-0.00032052863389253616,-0.009853405877947807
1772796388092457500,1.53645751953125,-0.012070843949913979,-0.004183177370578051,-0.007124730851501226
1772796388102449400,1.546449462890625,-0.0076407259330153465,0.0009702988900244236,-0.0003871743683703244
1772796388112442400,1.5564423828125,-0.004338139668107033,-0.0007799305021762848,-0.0017991825006902218
1772796388122434300,1.566434326171875,-0.005962401628494263,-0.0043344516307115555,-0.009644854813814163
1772796388132426500,1.576426513671875,-0.007414623629301786,-0.014700539410114288,-0.0205150805413723
1772796388142419500,1.58641943359375,-0.009671313688158989,-0.0103122154250741,-0.0214021485298872
1772796388152411000,1.596410888671875,-0.010717403143644333,-0.0073390621691942215,-0.013448351062834263
1772796388162403800,1.60640380859375,-0.005299539305269718,0.003231499344110489,-0.0014100290136411786
1772796388172396000,1.61639599609375,-0.0004765545018017292,0.01978890225291252,0.006001282017678022
1772796388182387700,1.6263876953125,-0.0037875438574701548,0.02336488664150238,0.006004085764288902
1772796388192381000,1.636380859375,-0.00932212546467781,0.017327234148979187,-0.0008306507370434701
1772796388202372900,1.646372802734375,-0.007547489367425442,0.010677836835384369,-0.001311104279011488
1772796388212365800,1.65636572265625,-0.004720277152955532,0.007957416586577892,-0.003075714921578765
1772796388222358000,1.66635791015625,-0.005427033640444279,0.013850378803908825,-0.0038138339295983315
1772796388232350000,1.676349853515625,-0.011196239851415157,0.018580418080091476,-0.0012303011026233435
1772796388242343000,1.686343017578125,-0.02176719531416893,0.034022171050310135,-0.005179733503609896
1772796388252334800,1.6963349609375,-0.02242526225745678,0.04522449150681496,-0.006539809983223677
1772796388262327800,1.706327880859375,-0.01677253656089306,0.047115590423345566,-0.0066340346820652485
1772796388272319700,1.71631982421875,-0.013376740738749504,0.040974874049425125,-0.011137440800666809
1772796388282312000,1.72631201171875,-0.015033803880214691,0.010430887341499329,-0.02453191950917244
1772796388292305000,1.736304931640625,-0.019920172169804573,-0.004934221506118774,-0.02922946959733963
1772796388302296800,1.746296875,-0.015970632433891296,0.002926066517829895,-0.02855060063302517
1772796388312289000,1.7562890625,-0.014992719516158104,0.016275960952043533,-0.022734789177775383
1772796388322281700,1.76628173828125,-0.015245404094457626,0.019251255318522453,-0.016474254429340363
1772796388332274000,1.77627392578125,-0.013662953861057758,0.009566936641931534,-0.011704797856509686
1772796388342267000,1.786266845703125,-0.006967961322516203,0.011617357842624187,-0.0034122844226658344
1772796388352258800,1.7962587890625,-0.00702601857483387,0.01634100452065468,-0.004867701791226864
1772796388362250800,1.806250732421875,-0.008616458624601364,0.025719594210386276,-0.004869832657277584
1772796388372244000,1.816243896484375,-0.004665126092731953,0.030764155089855194,-0.00041090184822678566
1772796388382236000,1.82623583984375,-0.0020519872196018696,0.029908405616879463,0.0019940445199608803
1772796388392228900,1.836228759765625,-0.0009150838013738394,0.026181844994425774,0.007306784391403198
1772796388402221000,1.846220947265625,-0.0010693061631172895,0.02040185034275055,0.015455937944352627
1772796388412212700,1.856212646484375,-0.0025889058597385883,0.01631443202495575,0.018356388434767723
1772796388422206000,1.8662060546875,-0.00024316576309502125,0.009962032549083233,0.008713796734809875
1772796388432198000,1.876197998046875,0.0052623869851231575,0.004325985908508301,-0.0013108744751662016
1772796388442189800,1.88618994140625,0.005541342310607433,0.006733726244419813,-0.004234220366925001
1772796388452183000,1.89618310546875,0.009335547685623169,0.0015203221701085567,-0.004452332854270935
1772796388462175000,1.906175048828125,0.0025246338918805122,-0.003354263724759221,0.0005381036316975951
1772796388472168000,1.91616796875,-0.0002218838781118393,-0.015945956110954285,0.0019812704995274544
1772796388482159900,1.926159912109375,0.003264747327193618,-0.021301252767443657,0.00674538966268301
1772796388492152000,1.936152099609375,0.0050330860540270805,-0.008141775615513325,0.021835660561919212
1772796388502144800,1.946144775390625,0.0032036679331213236,0.01199010293930769,0.026891116052865982
1772796388512137000,1.956136962890625,-0.004190332721918821,0.018087677657604218,0.027864502742886543
1772796388522130000,1.9661298828125,-0.006951013579964638,0.02651834860444069,0.0213832575827837
1772796388532121900,1.976121826171875,-0.008367815054953098,0.03671292960643768,0.015695013105869293
1772796388542114000,1.986114013671875,-0.008272234350442886,0.03770970180630684,0.0107573252171278
1772796388552106800,1.996106689453125,-0.0013972839806228876,0.02978253737092018,0.006874969229102135
1772796388562099000,2.006098876953125,-0.00020900415256619453,0.007460759952664375,-0.0007385310018435121
1772796388572091000,2.0160908203125,-0.0035587281454354525,-0.022276896983385086,-0.0052139731124043465
1772796388582083800,2.026083740234375,-0.0033396477811038494,-0.04067730903625488,-0.00005691236583516002
1772796388592075800,2.03607568359375,-0.0007345436606556177,-0.03751693665981293,0.01054380089044571
1772796388602069000,2.046069091796875,-0.0006234399043023586,-0.01937716081738472,0.014038177207112312
1772796388612060700,2.056060791015625,-0.0021917754784226418,-0.005343366414308548,0.013702884316444397
1772796388622052900,2.066052978515625,-0.008298864588141441,0.005999887362122536,0.006399127654731274
1772796388632046000,2.076046142578125,-0.01574612781405449,0.00647659320384264,-0.00027368852170184255
1772796388642037800,2.086037841796875,-0.014329181984066963,0.010821032337844372,0.000957485637627542
1772796388652031000,2.096031005859375,-0.0101919611915946,0.01399924885481596,0.004856885876506567
1772796388662023000,2.10602294921875,-0.011308404617011547,0.02114325948059559,0.011077654547989368
1772796388672014800,2.116014892578125,-0.013288198970258236,0.03275703638792038,0.01791398972272873
1772796388682007800,2.1260078125,-0.014118209481239319,0.029070883989334106,0.022792719304561615
1772796388692000000,2.136,-0.011317629367113113,0.01867976225912571,0.030135853216052055
1772796388701993000,2.145992919921875,-0.012756221927702427,0.005316648632287979,0.03836413100361824
1772796388711985000,2.15598486328125,-0.012904292903840542,0.009628839790821075,0.04979415237903595
1772796388721977000,2.16597705078125,-0.016680316999554634,0.020273195579648018,0.06081567332148552
1772796388731969800,2.1759697265625,-0.010030935518443584,0.001778606791049242,0.07011304050683975
1772796388741962000,2.1859619140625,-0.008955043740570545,-0.0022924374788999557,0.07202772796154022
1772796388751954000,2.195953857421875,-0.010376906022429466,-0.001494022086262703,0.06567581743001938
1772796388761947000,2.20594677734375,-0.012949934229254723,-0.006756266113370657,0.04366946592926979
1772796388771938800,2.215938720703125,-0.009476905688643456,-0.012249834835529327,0.02777199260890484
1772796388781931800,2.225931884765625,-0.0012850953498855233,-0.0033018463291227818,0.024539684876799583
1772796388791924000,2.235924072265625,0.008175784721970558,0.008971864357590675,0.029232973232865334
1772796388801916000,2.245916015625,0.01686382107436657,0.008812337182462215,0.027399849146604538
1772796388811908900,2.255908935546875,0.007502275984734297,-0.008422309532761574,0.021655943244695663
1772796388821900800,2.26590087890625,-0.0018832858186215162,-0.015938209369778633,0.012678916566073895
1772796388831894000,2.27589404296875,-0.01249917782843113,-0.01675206981599331,0.005371734965592623
1772796388841885700,2.2858857421875,-0.007881644181907177,-0.019650986418128014,0.0002473410568200052
1772796388851878000,2.2958779296875,-0.0008929771138355136,-0.018284784629940987,-0.0070398664101958275
1772796388861871000,2.30587109375,0.005989043042063713,-0.017102938145399094,-0.016369393095374107
1772796388871862800,2.31586279296875,0.009465266950428486,-0.019759973511099815,-0.014411169104278088
1772796388881855000,2.32585498046875,0.0146997831761837,-0.015440358780324459,-0.0062946234829723835
1772796388891848000,2.335847900390625,0.013087239116430283,-0.006296129431575537,0.010153857991099358
1772796388901840000,2.34583984375,0.009720930829644203,-0.007105964235961437,0.021307412534952164
1772796388911832800,2.355832763671875,0.0015689947176724672,0.0003527509979903698,0.027997538447380066
1772796388921825000,2.365824951171875,0.0018588423263281584,0.006471824832260609,0.022251589223742485
1772796388931816700,2.375816650390625,0.0027371530886739492,0.012296424247324467,0.01722194254398346
1772796388941810000,2.385809814453125,0.0015572493430227041,0.016672560945153236,0.010594929568469524
1772796388951802000,2.395802001953125,0.0018954707775264978,0.009992554783821106,0.012623725458979607
1772796388961794800,2.405794921875,0.004932301118969917,0.002183674369007349,0.01628575660288334
1772796388971787000,2.415787109375,0.006179725751280785,-0.009272179566323757,0.02135055512189865
1772796388981779000,2.425779052734375,0.00981828197836876,-0.014253154397010803,0.025375718250870705
1772796388991772000,2.43577197265625,0.011240942403674126,-0.007928413338959217,0.019231272861361504
1772796389001763800,2.445763916015625,0.01420288160443306,-0.000004486646503210068,0.0033421365078538656
1772796389011756000,2.455756103515625,0.007584661245346069,0.004990804940462112,-0.006689191795885563
1772796389021749000,2.4657490234375,0.0015321678947657347,0.015201330184936523,-0.013979832641780376
1772796389031741000,2.475740966796875,-0.001650309655815363,0.024465138092637062,-0.002726911334320903
1772796389041734000,2.48573388671875,-0.0006360778352245688,0.028828471899032593,0.004820702597498894
1772796389051725800,2.495725830078125,0.0004433013964444399,0.0161675363779068,0.011092979460954666
1772796389061718000,2.505718017578125,0.00530938059091568,0.007918566465377808,0.01338338851928711
1772796389071710700,2.515710693359375,0.008927818387746811,-0.002157502807676792,0.01173356082290411
1772796389081703000,2.525702880859375,0.008657602593302727,-0.004996240139007568,0.007440629415214062
1772796389091695900,2.53569580078125,0.010564692318439484,0.004710715264081955,0.0029758401215076447
1772796389101687800,2.545687744140625,0.012389054521918297,0.012766439467668533,-0.0030121919699013233
1772796389111679700,2.5556796875,0.012491319328546524,0.013078829273581505,-0.00890789832919836
1772796389121673000,2.5656728515625,0.012391207739710808,0.009272601455450058,-0.010264722630381584
1772796389131665000,2.575664794921875,0.015184862539172173,0.009693913161754608,0.0007908581173978746
1772796389141656800,2.58565673828125,0.024469757452607155,0.016975531354546547,0.006428477354347706
1772796389151650300,2.595650390625,0.029542814940214157,0.015774181112647057,0.011134549044072628
1772796389161642500,2.605642578125,0.0319569930434227,0.009571284055709839,0.006832333281636238
1772796389171635700,2.6156357421875,0.03556317836046219,0.002610312309116125,0.0037694317288696766
1772796389181627400,2.62562744140625,0.036029305309057236,0.005357064306735992,0.00028551483410410583
1772796389191619600,2.63561962890625,0.034523822367191315,0.003967959433794022,-0.0004694913513958454
1772796389201612500,2.645612548828125,0.03140513598918915,0.007664285134524107,0.002837555017322302
1772796389211604500,2.6556044921875,0.03346562385559082,0.019686859101057053,0.0015216870233416557
1772796389221597400,2.665597412109375,0.03954501450061798,0.02407861314713955,-0.0029145744629204273
1772796389231589600,2.675589599609375,0.050034940242767334,0.02312413603067398,-0.013467616401612759
1772796389241581300,2.685581298828125,0.05915503203868866,0.012992775067687035,-0.02739952690899372
1772796389251574500,2.695574462890625,0.05855928361415863,-0.00929841585457325,-0.04528212174773216
1772796389261566700,2.705566650390625,0.05317969620227814,-0.03594351187348366,-0.056161463260650635
1772796389271558400,2.715558349609375,0.0461481548845768,-0.054038360714912415,-0.06162413954734802
1772796389281551600,2.725551513671875,0.037839580327272415,-0.07319919764995575,-0.06135766953229904
1772796389291543600,2.73554345703125,0.03414098173379898,-0.06881563365459442,-0.04395364597439766
1772796389301536500,2.74553662109375,0.025604069232940674,-0.04381531849503517,-0.02621871419250965
1772796389311528400,2.755528564453125,0.01890355534851551,-0.014529334381222725,-0.010376368649303913
1772796389321520600,2.765520751953125,0.02328324504196644,0.013202761299908161,-0.003000271040946245
1772796389331513600,2.775513671875,0.03423282876610756,0.04578573629260063,0.002787310630083084
1772796389341505500,2.785505615234375,0.03927666321396828,0.07205219566822052,0.002779351081699133
1772796389351498500,2.79549853515625,0.04009771719574928,0.0792483240365982,-0.007506842724978924
1772796389361490400,2.805490478515625,0.03116385079920292,0.06818462163209915,-0.012997601181268692
1772796389371482600,2.815482666015625,0.023154128342866898,0.05031374469399452,-0.010388768278062344
1772796389381475300,2.825475341796875,0.022854572162032127,0.017255127429962158,-0.006451045628637075
1772796389391467500,2.835467529296875,0.02552465721964836,-0.02237803488969803,0.012395878322422504
1772796389401459500,2.84545947265625,0.02354196086525917,-0.02278163470327854,0.029816800728440285
1772796389411452400,2.855452392578125,0.029173480346798897,-0.005044983234256506,0.04079035669565201
1772796389421444400,2.8654443359375,0.03925589099526405,0.020889410749077797,0.038730692118406296
1772796389431437600,2.8754375,0.04165619984269142,0.05030455440282822,0.037164222449064255
1772796389441429500,2.885429443359375,0.03978370875120163,0.057352110743522644,0.03621847927570343
1772796389451421400,2.89542138671875,0.03495992347598076,0.045209962874650955,0.033471159636974335
1772796389461414700,2.90541455078125,0.029659895226359367,0.02570660412311554,0.030799180269241333
1772796389471406300,2.91540625,0.02727743238210678,-0.004468076396733522,0.02459161914885044
1772796389481398500,2.9253984375,0.026863817125558853,-0.02818312682211399,0.015073094516992569
1772796389491391500,2.9353916015625,0.027724817395210266,-0.036216553300619125,-0.0010262465802952647
1772796389501383400,2.945383544921875,0.026377402245998383,-0.03537985309958458,-0.015981700271368027
1772796389511376600,2.955376708984375,0.024217844009399414,-0.030051402747631073,-0.023352529853582382
1772796389521368600,2.96536865234375,0.025667745620012283,-0.017451845109462738,-0.025059787556529045
1772796389531360500,2.975360595703125,0.019901469349861145,-0.003165849717333913,-0.0231122188270092
1772796389541353500,2.985353515625,0.015820754691958427,-0.0026767966337502003,-0.018123144283890724
1772796389551345700,2.995345703125,0.007479735650122166,-0.008571171201765537,-0.015037871897220612
1772796389561337300,3.00533740234375,0.006203085649758577,-0.011909648776054382,-0.013985957950353622
1772796389571330600,3.01533056640625,0.006516273599117994,-0.011208971031010151,-0.004480336327105761
1772796389581322500,3.025322509765625,0.002916694153100252,-0.006924477405846119,0.006586190313100815
1772796389591315500,3.0353154296875,-0.0021145499777048826,-0.004177959635853767,0.013144224882125854
1772796389601307600,3.0453076171875,-0.0052162823267281055,0.00030360789969563484,0.02286340482532978
1772796389611299600,3.055299560546875,-0.00771033251658082,0.005534855183213949,0.02562137320637703
1772796389621292500,3.06529248046875,-0.005693546496331692,0.014138597063720226,0.03192548826336861
1772796389631284500,3.075284423828125,-0.003895646193996072,0.024030640721321106,0.031133998185396194
1772796389641277400,3.08527734375,-0.004974854178726673,0.017951246351003647,0.025874700397253036
1772796389651269400,3.095269287109375,-0.011042600497603416,0.008989974856376648,0.01945221982896328
1772796389661261600,3.105261474609375,-0.016809361055493355,0.000516427680850029,0.009808558039367199
1772796389671254500,3.115254638671875,-0.022068306803703308,-0.00761393690481782,-0.009526524692773819
1772796389681246500,3.12524658203125,-0.03480964154005051,-0.03991883620619774,-0.0301250908523798
1772796389691238700,3.13523876953125,-0.0445975586771965,-0.08368761837482452,-0.0431910939514637
1772796389701231400,3.1452314453125,-0.05144735425710678,-0.0931273102760315,-0.027813591063022614
1772796389711223600,3.1552236328125,-0.04356812685728073,-0.06340882927179337,-0.0048792483285069466
1772796389721216500,3.165216552734375,-0.03721379488706589,-0.028942858800292015,0.01059543527662754
1772796389731208400,3.17520849609375,-0.036611393094062805,-0.002334151417016983,0.014698834158480167
1772796389741200400,3.185200439453125,-0.029696155339479446,0.018216460943222046,0.01839553564786911
1772796389751193600,3.195193603515625,-0.031326811760663986,0.028563108295202255,0.011252137832343578
1772796389761185500,3.205185546875,-0.02621186524629593,0.0325203500688076,0.01243607234209776
1772796389771177500,3.215177490234375,-0.02802867442369461,0.03191980719566345,0.020276950672268867
1772796389781170700,3.225170654296875,-0.02526533231139183,0.0288725346326828,0.03255423158407211
1772796389791162400,3.235162353515625,-0.024142276495695114,0.02176695689558983,0.03935807943344116
1772796389801155600,3.245155517578125,-0.018203500658273697,0.021214116364717484,0.040985770523548126
1772796389811147500,3.2551474609375,-0.012651076540350914,0.01753256283700466,0.038145244121551514
1772796389821139500,3.265139404296875,-0.01081712543964386,-0.000155517365783453,0.021966425701975822
1772796389831132400,3.27513232421875,-0.016388725489377975,-0.017280975356698036,0.005386648699641228
1772796389841124600,3.28512451171875,-0.025490785017609596,-0.029115499928593636,-0.0013607116416096687
1772796389851117600,3.29511767578125,-0.030707918107509613,-0.02812533639371395,-0.0037698072846978903
1772796389861109500,3.305109619140625,-0.025524869561195374,-0.018939927220344543,-0.002033630385994911
1772796389871101700,3.315101806640625,-0.01634814962744713,-0.003804916050285101,-0.003497303929179907
1772796389881094400,3.325094482421875,-0.012351037003099918,-0.0023967712186276913,-0.011789175681769848
1772796389891086600,3.335086669921875,-0.01564137265086174,-0.010923679918050766,-0.023461276665329933
1772796389901078500,3.34507861328125,-0.02262582629919052,-0.021346859633922577,-0.025844451040029526
1772796389911071500,3.355071533203125,-0.02977428399026394,-0.026385825127363205,-0.028505481779575348
1772796389921063400,3.3650634765625,-0.027594050392508507,-0.03154580295085907,-0.03480347618460655
1772796389931056400,3.375056396484375,-0.022544430568814278,-0.02462371438741684,-0.030643615871667862
1772796389941048600,3.385048583984375,-0.013833957724273205,-0.016079260036349297,-0.019763773307204247
1772796389951040500,3.39504052734375,-0.0022484080400317907,0.0022888281382620335,-0.003932613879442215
1772796389961033500,3.405033447265625,0.005134965293109417,0.017349671572446823,0.012321043759584427
1772796389971025400,3.415025390625,0.008403196930885315,0.03268521651625633,0.024056263267993927
1772796389981017600,3.425017578125,0.00798583123832941,0.0359613373875618,0.028252430260181427
1772796389991010300,3.43501025390625,0.002953522140160203,0.027397409081459045,0.024146635085344315
1772796390001002500,3.44500244140625,0.0012312524486333132,0.011072864755988121,0.015466264449059963
1772796390010995700,3.45499560546875,-0.0013139306101948023,-0.0002389112487435341,0.006799006834626198
1772796390020987400,3.4649873046875,-1.932494342327118e-7,-0.014108121395111084,0.003552347421646118
1772796390030979600,3.4749794921875,0.0010118079371750355,-0.021378284320235252,-0.005122367292642593
1772796390040972500,3.48497265625,0.00658285291865468,-0.011659843847155571,-0.014654943719506264
1772796390050964500,3.494964599609375,0.011815166100859642,0.007153258193284273,-0.01207300927489996
1772796390060956400,3.504956298828125,0.012086227536201477,0.01938186213374138,-0.012925396673381329
1772796390070949600,3.51494970703125,0.013704631477594376,0.00698111904785037,-0.009791920892894268
1772796390080941300,3.52494140625,0.011146347038447857,-0.010659927502274513,-0.0024058835115283728
1772796390090934500,3.5349345703125,0.009220349602401257,-0.015439769253134727,0.01378666888922453
1772796390100926700,3.5449267578125,0.006281214766204357,-0.008805632591247559,0.021211327984929085
1772796390110918400,3.55491845703125,0.0006611461285501719,0.0068359109573066235,0.01914524845778942
1772796390120911600,3.56491162109375,-0.00008422508835792542,0.02320433035492897,0.012953841127455235
1772796390130903600,3.574903564453125,0.001876926515251398,0.028951164335012436,0.0032508797012269497
1772796390140895500,3.5848955078125,0.009730517864227295,0.01853175461292267,-0.00486000906676054
1772796390150888400,3.594888427734375,0.009174450300633907,0.0067954701371490955,-0.0008793821325525641
1772796390160879900,3.6048798828125,0.011092503555119038,0.004325047601014376,0.009216506965458393
1772796390170872800,3.614872802734375,0.008059962652623653,0.006707511376589537,0.016727421432733536
1772796390180864800,3.62486474609375,0.00038792798295617104,0.0014096847735345364,0.013460520654916763
1772796390190857000,3.63485693359375,-0.0024992048274725676,-0.0025637513026595116,0.0023080012761056423
1772796390200850000,3.644849853515625,-0.0032731450628489256,0.0037824283353984356,-0.005019006785005331
1772796390210841900,3.654841796875,-0.0018864371813833714,0.002100642304867506,-0.013800780288875103
1772796390220834000,3.664833984375,-0.00031604059040546417,-0.004502996802330017,-0.01927327737212181
1772796390230826800,3.67482666015625,0.0028906718362122774,0.002080337144434452,-0.01687030680477619
1772796390240819000,3.68481884765625,0.0032634413801133633,0.001606061588972807,-0.015627972781658173
1772796390250812000,3.69481201171875,0.0031992592848837376,-0.0030693840235471725,-0.014464437030255795
1772796390260803800,3.704803955078125,-0.0031516540329903364,-0.008227894082665443,-0.01087079755961895
1772796390270795800,3.714795654296875,-0.007806327193975449,-0.016048267483711243,-0.005308786407113075
1772796390280789000,3.7247890625,-0.004997734911739826,-0.01827923208475113,0.0006636761245317757
1772796390290781000,3.734781005859375,0.002378688659518957,-0.01111532747745514,0.004656553268432617
1772796390300772900,3.74477294921875,0.002153362613171339,0.004447154700756073,0.009810245595872402
1772796390310766000,3.75476611328125,-0.000193148385733366,0.014506446197628975,0.015709945932030678
1772796390320757800,3.7647578125,-0.0003921820316463709,0.01872922293841839,0.01809445582330227
1772796390330751000,3.7747509765625,0.0020605893805623055,0.015754738822579384,0.014703718014061451
1772796390340743000,3.784742919921875,0.0017216866835951805,0.006169652100652456,0.008990848436951637
1772796390350734800,3.79473486328125,0.0013858620077371597,0.0019844952039420605,0.008279251866042614
1772796390360727800,3.804727783203125,0.007739973720163107,-0.0031475459691137075,0.006574389059096575
1772796390370720000,3.814719970703125,0.002746813464909792,-0.017871631309390068,0.007862026803195477
1772796390380713000,3.824712890625,-0.00651813019067049,-0.023426685482263565,0.010062833316624165
1772796390390705000,3.834704833984375,-0.019280264154076576,-0.01895204186439514,0.004849961958825588
1772796390400697000,3.844697021484375,-0.01756284385919571,-0.010451501235365868,0.0015340866521000862
1772796390410689800,3.854689697265625,-0.008609561249613762,0.002310365904122591,-0.00752971600741148
1772796390420682000,3.864681884765625,-0.0024225576780736446,0.014514036476612091,-0.01440703496336937
1772796390430674000,3.874673828125,0.0015982829499989748,0.010677220299839973,-0.020773055031895638
1772796390440667000,3.8846669921875,-0.005097096785902977,-0.015687309205532074,-0.026998696848750114
1772796390450658800,3.894658935546875,-0.02473098412156105,-0.046499017626047134,-0.019252359867095947
1772796390460651800,3.90465185546875,-0.03442174196243286,-0.05805760249495506,-0.0012953123077750206
1772796390470644000,3.91464404296875,-0.03103686310350895,-0.046336498111486435,0.010326722636818886
1772796390480636000,3.924635986328125,-0.022087575867772102,-0.023950230330228806,0.018403025344014168
1772796390490628900,3.93462890625,-0.010557539761066437,0.0019268407486379147,0.018132241442799568
1772796390500620800,3.944620849609375,-0.006269778590649366,0.023174572736024857,0.013570808805525303
1772796390510613000,3.954613037109375,-0.004391450900584459,0.032189637422561646,0.014237131923437119
1772796390520605700,3.964605712890625,-0.004272023681551218,0.029108524322509766,0.022520240396261215
1772796390530598000,3.974597900390625,-0.010414605028927326,0.02522137388586998,0.027095817029476166
1772796390540591000,3.984591064453125,-0.007395714987069368,0.013403000310063362,0.029215458780527115
1772796390550582800,3.994582763671875,-0.00919920764863491,0.010196022689342499,0.025621788576245308
1772796390560575000,4.004574951171875,-0.011204304173588753,0.0021341978572309017,0.009028901346027851
1772796390570568000,4.01456787109375,-0.009169383905827999,-0.011044986546039581,-0.0020157601684331894
1772796390580560000,4.024559814453125,-0.008387381210923195,-0.023948967456817627,-0.01266399398446083
1772796390590551800,4.0345517578125,-0.0076875025406479836,-0.029058774933218956,-0.013146558776497841
1772796390600545000,4.044544921875,-0.0017704181373119354,-0.02351597137749195,-0.007762682158499956
1772796390610536700,4.05453662109375,0.0022765211760997772,-0.008126894943416119,0.004060687497258186
1772796390620530000,4.064530029296875,0.004098269157111645,0.0009104767814278603,0.007358805742114782
1772796390630522000,4.074522216796875,0.0049880314618349075,-0.0005526640452444553,-0.005598005373030901
1772796390640513800,4.084513671875,0.007835264317691326,0.0031127436086535454,-0.009864212945103645
1772796390650507000,4.094507080078125,0.010444363579154015,-0.0004007648676633835,-0.010693521238863468
1772796390660499000,4.1044990234375,0.012887882068753242,-0.0036257850006222725,-0.0005546321044676006
1772796390670491000,4.114490966796875,0.013452472165226936,-0.00691984873265028,0.011594709008932114
1772796390680483800,4.12448388671875,0.012128961272537708,0.003007922787219286,0.017269261181354523
1772796390690476000,4.13447607421875,0.013670665211975574,0.007150203455239534,0.01652197726070881
1772796390700469000,4.144468994140625,0.011334999464452267,0.009614724665880203,0.009876295924186707
1772796390710461000,4.1544609375,0.016114575788378716,0.014663545414805412,0.002911597490310669
1772796390720452900,4.164452880859375,0.016637012362480164,0.014192292466759682,0.006389325484633446
1772796390730445800,4.17444580078125,0.016412241384387016,0.003428860567510128,0.005909424275159836
1772796390740438000,4.18443798828125,0.01183031965047121,0.006101975217461586,0.0188381839543581
1772796390750430000,4.194429931640625,0.019478918984532356,0.00859362818300724,0.02275143191218376
1772796390760423000,4.2044228515625,0.027577470988035202,-0.0005602552555501461,0.007144834380596876
1772796390770414800,4.214414794921875,0.020633012056350708,-0.007018154487013817,-0.00023345340741798282
1772796390780407800,4.22440771484375,0.0055066440254449844,-0.007917171344161034,-0.0034239799715578556
1772796390790399700,4.234399658203125,-0.004203241318464279,-0.013064795173704624,-0.00518006831407547
1772796390800392000,4.244391845703125,-0.003450967837125063,-0.013716800138354301,-0.007391524035483599
1772796390810385000,4.254385009765625,-0.000408572843298316,-0.010719945654273033,-0.001922989496961236
1772796390820376800,4.264376953125,0.004964690655469894,-0.0014962898567318916,0.005139147862792015
1772796390830369000,4.274369140625,0.0071921581402421,0.005969615653157234,0.0031755995005369186
1772796390840361700,4.28436181640625,0.005933862179517746,0.003217339050024748,-0.002761741168797016
1772796390850354000,4.29435400390625,0.0013577525969594717,0.002380307298153639,-0.009492614306509495
1772796390860345900,4.304345947265625,-0.0022459859028458595,-0.0048309992998838425,-0.007514180149883032
1772796390870338800,4.3143388671875,-0.0034891495015472174,-0.0053790779784321785,0.0023597562685608864
1772796390880330800,4.324330810546875,-0.002224366646260023,0.0048600765876472,0.01542859710752964
1772796390890324000,4.334323974609375,0.0008569108322262764,0.011647408828139305,0.021176764741539955
1772796390900316000,4.34431591796875,0.0009386474266648293,0.009210651740431786,0.016236277297139168
1772796390910307800,4.354307861328125,0.0022404007613658905,0.010725725442171097,0.00980527512729168
1772796390920301000,4.364301025390625,0.007221335545182228,0.009982839226722717,0.0032172680366784334
1772796390930292700,4.374292724609375,0.005853802897036076,0.00118162389844656,-0.000784930307418108
1772796390940285000,4.384284912109375,-0.004295238293707371,-0.0061655049212276936,-0.00065443548373878
1772796390950278000,4.39427783203125,-0.011261801235377789,-0.016767550259828568,0.0026904947590082884
1772796390960269800,4.404269775390625,-0.014005709439516068,-0.011142324656248093,0.0032960621174424887
1772796390970263000,4.414262939453125,-0.0025069797411561012,0.0051208012737333775,0.007059108931571245
1772796390980255000,4.4242548828125,0.008018997497856617,0.015502966940402985,0.003793689189478755
1772796390990247000,4.434246826171875,0.010362578555941582,0.00589081970974803,-0.008070693351328373
1772796391000239900,4.444239990234375,0.0018759346567094326,-0.016629401594400406,-0.02319641038775444
1772796391010232000,4.454232177734375,-0.010859834030270576,-0.029394198209047318,-0.033644791692495346
1772796391020223700,4.4642236328125,-0.020983578637242317,-0.03145884722471237,-0.03098675049841404
1772796391030217000,4.474217041015625,-0.01980459690093994,-0.028767192736268044,-0.0210688728839159
1772796391040209000,4.484208984375,-0.014589156955480576,-0.02136220596730709,-0.006933168042451143
1772796391050201900,4.494201904296875,-0.005190595518797636,-0.006956901866942644,0.005625500809401274
1772796391060194000,4.504194091796875,0.0034505154471844435,0.008096517063677311,0.014977280050516129
1772796391070186000,4.51418603515625,0.004675569944083691,0.015972018241882324,0.014857438392937183
1772796391080179000,4.524178955078125,0.006462382152676582,0.017969489097595215,0.01415371522307396
1772796391090171000,4.5341708984375,0.008042702451348305,0.013327066786587238,0.01577717810869217
1772796391100163000,4.5441630859375,0.005168203264474869,0.0033614165149629116,0.010728767141699791
1772796391110155800,4.55415576171875,-0.004429562948644161,-0.008676870726048946,0.007599819451570511
1772796391120148000,4.56414794921875,-0.012458167970180511,-0.014327699318528175,0.007790088187903166
1772796391130141000,4.574140869140625,-0.014945294708013535,-0.0118874441832304,0.003282422199845314
1772796391140132900,4.5841328125,-0.013964671641588211,-0.013612007722258568,-0.0007899070042185485
1772796391150124800,4.594124755859375,-0.012355590239167213,-0.0038254237733781338,-0.0021409287583082914
1772796391160118000,4.604117919921875,-0.006677292287349701,0.007117039058357477,-0.0021900180727243423
1772796391170110200,4.614110107421875,-0.004581917077302933,0.018228812143206596,-0.00041209167102351785
1772796391180102100,4.62410205078125,-0.0020616950932890177,0.025162585079669952,0.003646861994639039
1772796391190095000,4.63409521484375,-0.002446788363158703,0.02069539949297905,0.008645880967378616
1772796391200087000,4.644087158203125,-0.008072716183960438,0.00345649104565382,0.009702091105282307
1772796391210079200,4.654079345703125,-0.011339348740875721,-0.00701505783945322,0.007536941207945347
1772796391220072000,4.664072021484375,-0.006240486167371273,-0.010847480967640877,0.009472141042351723
1772796391230064000,4.674064208984375,-0.00047580793034285307,-0.0006465082988142967,0.007747477851808071
1772796391240057300,4.684057373046875,0.0015358233358711004,0.0052137114107608795,0.00749640166759491
1772796391250049000,4.694049072265625,0.0031481010373681784,0.008605512790381908,0.00321963126771152
1772796391260041000,4.704041015625,0.0027224074583500624,0.012683811597526073,0.0062807281501591206
1772796391270034200,4.7140341796875,0.006375199183821678,0.00776095874607563,0.010822482407093048
1772796391280026000,4.724026123046875,0.008000671863555908,-0.0013284757733345032,0.011761574074625969
1772796391290018000,4.73401806640625,0.008171115070581436,-0.017209704965353012,0.0067513687536120415
1772796391300011300,4.74401123046875,0.0036727185361087322,-0.01473376527428627,0.0022804811596870422
1772796391310003000,4.7540029296875,-0.002132706344127655,-0.005133069586008787,-0.0012865567114204168
1772796391319996200,4.76399609375,-0.003046823665499687,0.00959041714668274,-0.008553198538720608
1772796391329988000,4.773988037109375,-0.006215186789631844,0.008101975545287132,-0.007833612151443958
1772796391339980000,4.78397998046875,-0.007238325662910938,0.005516678560525179,-0.003955872729420662
1772796391349973200,4.79397314453125,-0.003010024782270193,-0.0001467992551624775,-0.0013968413695693016
1772796391359965200,4.803965087890625,0.0012307234574109316,-0.01291059609502554,-0.0011238348670303822
1772796391369957000,4.81395703125,-0.0021429690532386303,-0.00906525831669569,-0.0025893724523484707
1772796391379950000,4.8239501953125,-0.0015969960950314999,0.00007804203778505325,-0.005012995097786188
1772796391389942300,4.8339423828125,-0.002510460326448083,0.01266494020819664,-0.0054300460033118725
1772796391399934000,4.843933837890625,-0.0007954604225233197,0.01676846668124199,-0.0074522774666547775
1772796391409927200,4.85392724609375,-0.002387498039752245,0.01562650501728058,0.0042765503749251366
1772796391419919000,4.863919189453125,-0.0005479067331179976,0.008777853101491928,0.01175156980752945
1772796391429912000,4.873912109375,0.0021842303685843945,0.002135130111128092,0.01515881810337305
1772796391439904300,4.883904296875,0.005055306479334831,0.0011429726146161556,0.01105319894850254
1772796391449896200,4.893896240234375,0.006018039770424366,0.007931103929877281,0.0025726291351020336
1772796391459889200,4.90388916015625,0.00523136742413044,0.011067373678088188,-0.005609548185020685
1772796391469881000,4.913881103515625,0.005421783309429884,0.011701738461852074,-0.010052766650915146
1772796391479873300,4.923873291015625,0.007450484670698643,0.014026477001607418,-0.002174957189708948
1772796391489866000,4.933865966796875,0.001367026474326849,0.02638886868953705,-0.01412030030041933
1772796391499858200,4.943858154296875,0.0019224921707063913,0.03101498633623123,-0.023063428699970245
1772796391509851100,4.95385107421875,-0.0009151060367003083,0.023318182677030563,-0.021084167063236237
1772796391519843000,4.963843017578125,-0.012642192654311657,0.0030568833462893963,-0.01606198027729988
1772796391529835300,4.973835205078125,-0.013070695102214813,-0.007559807971119881,-0.011685875244438648
1772796391539828000,4.983827880859375,-0.0013724942691624165,0.009684959426522255,-0.012990291230380535
1772796391549820200,4.993820068359375,0.005412973463535309,0.03631710261106491,-0.01437513530254364
1772796391559812000,5.00381201171875,-0.0011374831665307283,0.03298874944448471,-0.024368438869714737
1772796391569805000,5.01380517578125,-0.013149937614798546,0.015505628660321236,-0.03383198380470276
1772796391579797000,5.023796875,-0.024872953072190285,-0.006755833048373461,-0.02945791743695736
1772796391589790200,5.033790283203125,-0.0245983824133873,-0.019110770896077156,-0.01905374601483345
1772796391599782100,5.0437822265625,-0.014982794411480427,-0.0254256222397089,-0.002784285694360733
1772796391609774000,5.053774169921875,-0.00661034882068634,-0.01833149418234825,0.007679274305701256
1772796391619767300,5.063767333984375,0.004144452512264252,-0.0037849333602935076,0.009601540863513947
1772796391629759000,5.073759033203125,0.004790003411471844,0.010975902900099754,0.008167427964508533
1772796391639751200,5.083751220703125,0.004848112352192402,0.023011254146695137,0.007600677199661732
1772796391649744100,5.093744140625,0.00099345319904387,0.02513911761343479,0.007269379682838917
1772796391659736000,5.103736083984375,-0.0013607077999040484,0.018645767122507095,0.005311453714966774
1772796391669728000,5.11372802734375,-0.007553622592240572,0.00740216625854373,0.006474189925938845
1772796391679721200,5.12372119140625,-0.00842212699353695,-0.004974709823727608,0.004822852555662394
1772796391689713000,5.133712890625,-0.005976013373583555,-0.009877056814730167,-0.0027237471658736467
1772796391699706000,5.1437060546875,-0.0010725242318585515,-0.01082234550267458,-0.013451666571199894
1772796391709698300,5.1536982421875,-0.0033428692258894444,-0.01566770114004612,-0.021739955991506577
1772796391719690000,5.16368994140625,-0.0009848158806562424,-0.03139123320579529,-0.02639487013220787
1772796391729683200,5.17368310546875,-0.0025760545395314693,-0.03405679017305374,-0.03067830018699169
1772796391739675100,5.183675048828125,-0.0018161991611123085,-0.024941161274909973,-0.023105565458536148
1772796391749667000,5.1936669921875,-0.002108880551531911,-0.006203691475093365,-0.01144677959382534
1772796391759660000,5.203659912109375,-0.00493631511926651,0.008411668241024017,-0.005521930288523436
1772796391769652200,5.21365234375,-0.00878511555492878,0.0033631143160164356,-0.003891010768711567
1772796391779644000,5.223643798828125,-0.009326896630227566,-0.0033517139963805676,-0.004747038707137108
1772796391789637000,5.23363720703125,-0.003702034242451191,-0.008726239204406738,-0.001913168583996594
1772796391799629300,5.24362939453125,-0.0019375225529074669,-0.007458141073584557,0.003910749685019255
1772796391809622000,5.2536220703125,0.0029403234366327524,-0.005474086385220289,0.011874133720993996
1772796391819614200,5.2636142578125,0.005236787721514702,-0.0018088067881762981,0.018929705023765564
1772796391829606100,5.273606201171875,0.004877527244389057,0.0017659543082118034,0.02166370488703251
1772796391839599000,5.28359912109375,0.00862963404506445,0.004111162852495909,0.019101953133940697
1772796391849591000,5.293591064453125,0.009551353752613068,0.005104255396872759,0.00898380484431982
1772796391859583200,5.303583251953125,0.009379120543599129,0.0028000553138554096,-0.0005915610236115754
1772796391869576200,5.313576171875,0.005173722747713327,-0.0011097313836216927,-0.004917067475616932
1772796391879568100,5.323568115234375,0.0038015455938875675,-0.013884813524782658,-0.008887718431651592
1772796391889561000,5.33356103515625,0.006934221833944321,-0.022741688415408134,-0.004517736844718456
1772796391899553000,5.343552978515625,0.00862253736704588,-0.024203363806009293,-0.004600358661264181
1772796391909545200,5.353545166015625,0.013326745480298996,-0.022960199043154716,-0.006404117215424776
1772796391919538000,5.363537841796875,0.017316795885562897,-0.022300802171230316,-0.01239548809826374
1772796391929530000,5.373530029296875,0.018558360636234283,-0.021712511777877808,-0.019408123567700386
1772796391939522000,5.38352197265625,0.018862782046198845,-0.016498874872922897,-0.017760900780558586
1772796391949515000,5.393514892578125,0.016568202525377274,-0.01098000630736351,-0.00821879506111145
1772796391959507200,5.403507080078125,0.021282386034727097,-0.004334819503128529,0.0027605597861111164
1772796391969499100,5.4134990234375,0.02376045659184456,0.0002522091381251812,0.0181720070540905
1772796391979492000,5.4234921875,0.024647654965519905,0.0004017120227217674,0.01825018785893917
1772796391989484000,5.433484130859375,0.026861008256673813,0.004393257666379213,0.009189046919345856
1772796391999477200,5.443477294921875,0.026988379657268524,0.006383138243108988,-0.0007964456453919411
1772796392009469000,5.453468994140625,0.020927291363477707,0.004382571671158075,-0.011540169827640057
1772796392019461000,5.463461181640625,0.02327697165310383,0.0025597712956368923,-0.01465379074215889
1772796392029454000,5.4734541015625,0.021450577303767204,0.006912974175065756,-0.0020344022195786238
1772796392039446000,5.483446044921875,0.018548624590039253,0.01457935106009245,0.003350065089762211
1772796392049438000,5.49343798828125,0.02394738420844078,0.00910309236496687,0.004455809481441975
1772796392059431200,5.50343115234375,0.02911950834095478,-0.0016805785708129406,0.0052124131470918655
1772796392069423000,5.513423095703125,0.031554438173770905,-0.011584607884287834,0.0028672339394688606
1772796392079416000,5.523416015625,0.02545996569097042,-0.026246843859553337,0.0011281016049906611
1772796392089408300,5.533408203125,0.0148661769926548,-0.031640276312828064,-0.006241397932171822
1772796392099400000,5.54339990234375,0.012358471751213074,-0.02215299755334854,-0.010635909624397755
1772796392109393200,5.55339306640625,0.016698092222213745,0.0022000116296112537,-0.014116395264863968
1772796392119385000,5.563385009765625,0.030287019908428192,0.018440432846546173,-0.016908125951886177
1772796392129377000,5.573376953125,0.03953724354505539,0.012151909992098808,-0.024764452129602432
1772796392139370200,5.583370361328125,0.0371323823928833,-0.010096002370119095,-0.034651026129722595
1772796392149362200,5.593362060546875,0.0325581356883049,-0.027298426255583763,-0.0435774065554142
1772796392159354000,5.60335400390625,0.03007413260638714,-0.02905554510653019,-0.0475601963698864
1772796392169347300,5.613347412109375,0.02901286445558071,-0.021945437416434288,-0.04593859612941742
1772796392179339300,5.62333935546875,0.029558639973402023,-0.01255040057003498,-0.0393221490085125
1772796392189332200,5.633332275390625,0.03210755065083504,-0.005727116018533707,-0.021796420216560364
1772796392199324200,5.64332421875,0.04097450524568558,0.007562652695924044,-0.00792386382818222
1772796392209316400,5.65331640625,0.043180398643016815,0.012377914041280746,0.009802136570215225
1772796392219309300,5.663309326171875,0.043775543570518494,0.020025746896862984,0.017370278015732765
1772796392229301200,5.67330126953125,0.041613854467868805,0.02872576378285885,0.014534011483192444
1772796392239293400,5.68329345703125,0.03687557950615883,0.031995292752981186,0.007501459680497646
1772796392249286100,5.6932861328125,0.0335780568420887,0.03532131388783455,-0.006876680534332991
1772796392259278300,5.7032783203125,0.03257956728339195,0.036872804164886475,-0.016754845157265663
1772796392269271000,5.71327099609375,0.0290138591080904,0.03383360803127289,-0.02635900303721428
1772796392279263200,5.72326318359375,0.027470720931887627,0.019200868904590607,-0.02893795259296894
1772796392289255200,5.733255126953125,0.025732209905982018,0.011453735642135143,-0.02959761768579483
1772796392299248000,5.743248046875,0.023905767127871513,0.009955871850252151,-0.02894824929535389
1772796392309240300,5.753240234375,0.025952406227588654,0.013485625386238098,-0.024666685611009598
1772796392319232300,5.763232177734375,0.02690143510699272,0.016714908182621002,-0.02008092775940895
1772796392329225200,5.77322509765625,0.026625799015164375,0.010404813103377819,-0.011487440206110477
1772796392339217200,5.783217041015625,0.025378473103046417,0.006882880348712206,-0.006025948096066713
1772796392349209300,5.793209228515625,0.023847155272960663,0.003166439477354288,0.001374177634716034
1772796392359202000,5.8032021484375,0.02300235442817211,0.004174345638602972,0.0034283632412552834
1772796392369194200,5.8131943359375,0.0218992717564106,0.009761657565832138,0.0009657382033765316
1772796392379187500,5.8231875,0.0234774611890316,0.01717563346028328,-0.0031576338224112988
1772796392389179100,5.83317919921875,0.027531858533620834,0.022218594327569008,-0.009475450962781906
1772796392399171300,5.84317138671875,0.03140825033187866,0.024063903838396072,-0.013793974183499813
1772796392409164300,5.853164306640625,0.028106197714805603,0.023590926080942154,-0.010017612017691135
1772796392419156200,5.86315625,0.017720434814691544,0.021216746419668198,-0.004544904455542564
1772796392429148200,5.873148193359375,0.010832699947059155,0.017787661403417587,-0.0017999842530116439
1772796392439141400,5.883141357421875,0.008568089455366135,0.0015879529528319836,0.0009406735771335661
1772796392449133000,5.893133056640625,0.010058393701910973,-0.006163976155221462,-0.0007602874538861215
1772796392459126300,5.903126220703125,0.010702518746256828,-0.010478765703737736,-0.0024312427267432213
1772796392469118200,5.9131181640625,0.007250528782606125,-0.005070418119430542,-0.003083983901888132
1772796392479110100,5.923110107421875,0.006411534734070301,0.0012643449008464813,-0.004229291342198849
1772796392489103400,5.933103271484375,0.005413914564996958,0.009879403747618198,-0.008850142359733582
1772796392499095300,5.94309521484375,0.0009251604788005352,0.022773530334234238,-0.016225172206759453
1772796392509087200,5.953087158203125,0.004912445321679115,0.027826344594359398,-0.023099856451153755
1772796392519080200,5.963080078125,0.002251049969345331,0.03264044225215912,-0.01814412884414196
1772796392529072400,5.973072265625,-0.010216271504759789,0.02289726585149765,-0.010721633210778236
1772796392539064000,5.98306396484375,-0.00967620499432087,0.0007579103112220764,-0.006009227596223354
1772796392549057300,5.993057373046875,-0.0026209589559584856,0.00616812240332365,-0.006420685909688473
1772796392559049200,6.00304931640625,0.008360070176422596,0.026643376797437668,-0.013210151344537735
1772796392569042200,6.013042236328125,0.016857419162988663,0.026916880160570145,-0.021926943212747574
1772796392579034400,6.023034423828125,0.013688767328858376,0.00902925617992878,-0.01802893355488777
1772796392589026300,6.0330263671875,0.005128036718815565,-0.005478047765791416,-0.004157859366387129
1772796392599019300,6.043019287109375,0.002079511061310768,-0.01109401322901249,0.00712296599522233
1772796392609011200,6.05301123046875,0.004234540741890669,-0.01265782117843628,0.008946964517235756
1772796392619003400,6.06300341796875,0.005123243201524019,-0.0023592193610966206,-0.000010252289939671755
1772796392628996000,6.07299609375,0.0031817983835935593,-0.0038913360331207514,-0.017703760415315628
1772796392638988300,6.08298828125,-0.00697987899184227,-0.022644851356744766,-0.039023637771606445
1772796392648980200,6.092980224609375,-0.018876485526561737,-0.04133092239499092,-0.048416607081890106
1772796392658973200,6.10297314453125,-0.03068806417286396,-0.042764801532030106,-0.04014107212424278
1772796392668965400,6.11296533203125,-0.021634647622704506,-0.035477858036756516,-0.021751144900918007
1772796392678958000,6.1229580078125,-0.013141806237399578,-0.019127944484353065,-0.0006002609734423459
1772796392688950300,6.1329501953125,-0.007886058650910854,-0.004342873115092516,0.007868325337767601
1772796392698942200,6.142942138671875,-0.012016256339848042,-0.001264427788555622,0.009606984443962574
1772796392708935200,6.15293505859375,-0.023562923073768616,-0.008900509215891361,-0.0006371307536028326
1772796392718927000,6.162927001953125,-0.03535976633429527,-0.027455272153019905,-0.018960950896143913
1772796392728919300,6.172919189453125,-0.03949565440416336,-0.04000461846590042,-0.032865047454833984
1772796392738912300,6.182912353515625,-0.03508089855313301,-0.03868686780333519,-0.03157510235905647
1772796392748904200,6.192904296875,-0.024227721616625786,-0.02732209488749504,-0.016008127480745316
1772796392758896400,6.202896484375,-0.01822648011147976,-0.01019187644124031,0.0012973893899470568
1772796392768889000,6.21288916015625,-0.018514901399612427,0.008506443351507187,0.014982041902840137
1772796392778881300,6.22288134765625,-0.018396751955151558,0.024657784029841423,0.022955194115638733
1772796392788874200,6.232874267578125,-0.017401527613401413,0.02679922990500927,0.02262762561440468
1772796392798866200,6.2428662109375,-0.01649402268230915,0.028097689151763916,0.015503252856433392
1772796392808858000,6.252858154296875,-0.013092899695038795,0.016517730429768562,0.009542299434542656
1772796392818851300,6.262851318359375,-0.01441147644072771,0.00010030856356024742,0.0020008492283523083
1772796392828843000,6.272843017578125,-0.020768973976373672,-0.01664591394364834,-0.007217682898044586
1772796392838835200,6.282835205078125,-0.022385619580745697,-0.01603657379746437,-0.01148959994316101
1772796392848828400,6.292828369140625,-0.021779481321573257,-0.018393205478787422,-0.017765605822205544
1772796392858820000,6.302820068359375,-0.02059357240796089,-0.02568930946290493,-0.025029052048921585
1772796392868813300,6.312813232421875,-0.018927766010165215,-0.0339251346886158,-0.027033347636461258
1772796392878805200,6.32280517578125,-0.016990147531032562,-0.02341426908969879,-0.015330767259001732
1772796392888797200,6.332797119140625,-0.015035388059914112,-0.006803066935390234,-0.0034120557829737663
1772796392898790100,6.3427900390625,-0.017665890976786613,0.014975370839238167,0.009069499559700489
1772796392908782300,6.3527822265625,-0.013353167101740837,0.031445421278476715,0.00946258194744587
1772796392918774000,6.36277392578125,-0.00800907053053379,0.027769386768341064,0.005177851766347885
1772796392928767200,6.372767333984375,-0.006062033586204052,0.010396789759397507,0.005371996201574802
1772796392938759400,6.382759521484375,-0.005030178464949131,-0.014917688444256783,0.006489251274615526
1772796392948751000,6.392751220703125,-0.003008040599524975,-0.029692107811570168,0.017463605850934982
1772796392958744300,6.402744384765625,-0.005345518700778484,-0.024827810004353523,0.029560692608356476
1772796392968736300,6.412736328125,-0.007198546081781387,-0.00968081597238779,0.03391815349459648
1772796392978729200,6.422729248046875,-0.006191437132656574,0.00260744197294116,0.034827474504709244
1772796392988721200,6.43272119140625,-0.007916366681456566,0.008292758837342262,0.024291478097438812
1772796392998713300,6.44271337890625,-0.005144965834915638,0.00362361129373312,0.016786571592092514
1772796393008706300,6.452706298828125,-0.006232334300875664,-0.003203135682269931,0.015053119510412216
1772796393018698200,6.4626982421875,-0.009241879917681217,-0.0087652076035738,0.017013030126690865
1772796393028690400,6.4726904296875,-0.012595864944159985,-0.010708782821893692,0.02378677949309349
1772796393038683100,6.48268310546875,-0.01698422059416771,-0.012441701255738735,0.030793823301792145
1772796393048675300,6.49267529296875,-0.016567550599575043,-0.007725421339273453,0.02112160623073578
1772796393058668000,6.50266796875,-0.01441787276417017,0.0018732799217104912,0.007026973180472851
1772796393068660200,6.51266015625,-0.005579108372330666,0.008774860762059689,-0.0002551744692027569
1772796393078652200,6.522652099609375,-0.0014006985584273934,0.018604017794132233,-0.008261197246611118
1772796393088645000,6.53264501953125,0.006924076937139034,0.017535559833049774,-0.013341709040105343
1772796393098637300,6.54263720703125,0.00999201275408268,0.01873118430376053,-0.002605294343084097
1772796393108629200,6.552629150390625,0.012098307721316814,0.046869345009326935,0.008529381826519966
1772796393118622200,6.562622314453125,0.01203174889087677,0.07645117491483688,0.02367749996483326
1772796393128614100,6.5726142578125,0.017542628571391106,0.09705711901187897,0.03504999727010727
1772796393138606300,6.5826064453125,0.013427125290036201,0.12272379547357559,0.08672230690717697
1772796393148599000,6.59259912109375,0.01330435462296009,0.06678277254104614,0.11306709051132202
1772796393158591700,6.602591796875,0.01570320874452591,-0.023203382268548012,0.10235698521137238
1772796393168584700,6.612584716796875,0.013627007603645325,-0.08145070821046829,0.06740299612283707
1772796393178576600,6.62257666015625,0.016936952248215675,-0.07890722155570984,0.027230925858020782
1772796393188568800,6.63256884765625,0.01715559884905815,-0.05189478024840355,-0.023832790553569794
1772796393198561800,6.642561767578125,0.015921711921691895,-0.029555853456258774,-0.05616261810064316
1772796393208553700,6.6525537109375,0.0032179011031985283,-0.01652846671640873,-0.06304262578487396
1772796393218545700,6.662545654296875,-0.017950264737010002,0.03043927252292633,-0.03173175826668739
1772796393228538600,6.67253857421875,-0.03886246681213379,0.04477133974432945,0.006780482828617096
1772796393238530600,6.682530517578125,-0.049580167979002,0.008773161098361015,0.03928672894835472
