time,seconds_elapsed,z,y,x
1772721333975089400,0.02708935546875,0,0,0
1772721333993685500,0.045685546875,-0.27651405334472656,0.009418219327926636,0.008606165647506714
1772721334012281900,0.06428173828125,-0.4835987091064453,0.015209823846817017,0.02352796494960785
1772721334030878000,0.0828779296875,-0.12698650360107422,-0.09875497221946716,0.04002313315868378
1772721334049474300,0.101474365234375,0.24381160736083984,-0.07716554403305054,0.02734929323196411
1772721334068070400,0.1200703125,0.41999149322509766,-0.05727216601371765,-0.022498294711112976
1772721334086666800,0.138666748046875,0.034885406494140625,0.02771860361099243,0.010417908430099487
1772721334105262800,0.157262939453125,-0.3265848159790039,0.0027999579906463623,-0.04278755187988281
1772721334123859000,0.17585888671875,-0.1965341567993164,-0.006508171558380127,0.0345425009727478
1772721334142455300,0.194455322265625,0.11710357666015625,-0.04135504364967346,0.043736085295677185
1772721334161051400,0.213051513671875,0.2695474624633789,-0.07898285984992981,-0.010351315140724182
1772721334179647700,0.231647705078125,0.06266021728515625,-0.010414302349090576,0.03524339199066162
1772721334198243800,0.250243896484375,-0.17258834838867188,0.027670755982398987,0.05608870089054108
1772721334216840200,0.268840087890625,-0.07805633544921875,-0.0007212311029434204,-0.0025405585765838623
1772721334235436300,0.287436279296875,-0.020966529846191406,0.009575948119163513,0.00867481529712677
1772721334254032400,0.306032470703125,0.03210163116455078,-0.06339417397975922,0.0217142254114151
1772721334272628700,0.324628662109375,0.1297922134399414,-0.059911444783210754,0.004710882902145386
1772721334291224800,0.343224853515625,0.15929222106933594,-0.055878713726997375,0.0822649598121643
1772721334309821200,0.3618212890625,-0.023520469665527344,-0.05225236713886261,0.04958300292491913
1772721334328417300,0.380417236328125,-0.20431900024414062,-0.010975748300552368,0.03647221624851227
1772721334347013600,0.399013671875,-0.03798866271972656,-0.022798389196395874,0.00218181312084198
1772721334365609700,0.417609619140625,0.15227603912353516,-0.0197896808385849,0.011346682906150818
1772721334384205800,0.436205810546875,0.06588935852050781,0.017956987023353577,-0.018586009740829468
1772721334402802200,0.45480224609375,-0.04868602752685547,0.04904097318649292,-0.004184991121292114
1772721334421398300,0.473398193359375,-0.1354694366455078,0.10748420655727386,0.03386951982975006
1772721334439994400,0.491994384765625,-0.0819864273071289,0.1259538233280182,0.057574182748794556
1772721334458590700,0.5105908203125,0.1165761947631836,0.030997425317764282,0.011169180274009705
1772721334477187000,0.52918701171875,0.39667797088623047,0.012766197323799133,-0.011178866028785706
1772721334495783200,0.547783203125,0.050780296325683594,0.05903114378452301,0.10408695042133331
1772721334514379300,0.566379150390625,-0.32175540924072266,0.07613295316696167,0.11784911155700684
1772721334532975600,0.5849755859375,-0.08376407623291016,0.002093791961669922,0.08322805166244507
1772721334551571700,0.60357177734375,0.24416732788085938,-0.04189327359199524,-0.027851209044456482
1772721334570167800,0.622167724609375,0.1509838104248047,0.015245482325553894,-0.10676130652427673
1772721334588764200,0.64076416015625,-0.1174459457397461,0.052740901708602905,-0.11155468225479126
1772721334607360300,0.6593603515625,-0.1292858123779297,-0.010712668299674988,-0.05174122750759125
1772721334625956600,0.67795654296875,0.08251190185546875,-0.057485684752464294,-0.02902059257030487
1772721334644552700,0.696552734375,0.0637054443359375,-0.05194443464279175,0.03855757415294647
1772721334663149000,0.715149169921875,-0.04238700866699219,-0.04901076853275299,-0.005019292235374451
1772721334681745200,0.7337451171875,-0.12128925323486328,-0.02542322874069214,-0.01911081373691559
1772721334700341200,0.75234130859375,0.035572052001953125,-0.0779104083776474,-0.06954450905323029
1772721334718937600,0.7709375,0.0231781005859375,-0.04323722422122955,-0.06178939342498779
1772721334737533700,0.78953369140625,0.028314590454101562,-0.023372232913970947,-0.07940323650836945
1772721334756130000,0.808130126953125,-0.0077972412109375,-0.06811679899692535,-0.06490086019039154
1772721334774726100,0.82672607421875,-0.09122848510742188,-0.10096922516822815,-0.16801267862319946
1772721334793322500,0.845322509765625,0.1143798828125,-0.12823881208896637,0.04202145338058472
1772721334811918600,0.863918701171875,-0.016576766967773438,-0.06833745539188385,0.06382326781749725
1772721334830514700,0.8825146484375,-0.1414813995361328,-0.03604303300380707,0.05676493048667908
1772721334849111000,0.901111083984375,0.10117340087890625,-0.08280028402805328,-0.0380156934261322
1772721334867707100,0.91970703125,0.19422149658203125,-0.060765042901039124,-0.0011583268642425537
1772721334886303500,0.938303466796875,-0.036693572998046875,0.008951663970947266,-0.01182568073272705
1772721334904899600,0.956899658203125,-0.23425960540771484,0.007973507046699524,-0.010094180703163147
1772721334923496000,0.975495849609375,-0.06750679016113281,0.035806819796562195,-0.07082296907901764
1772721334942092000,0.994092041015625,0.1393871307373047,0.01860138773918152,-0.22703604400157928
1772721334960688000,1.012688232421875,0.3296670913696289,0.08707813918590546,-0.25902891159057617
1772721334979284500,1.031284423828125,0.2006978988647461,0.029978036880493164,-0.04716521501541138
1772721334997880600,1.049880615234375,-0.027794837951660156,-0.04137270152568817,0.201486274600029
1772721335016476700,1.0684765625,-0.12664508819580078,-0.05458429455757141,0.23113694787025452
1772721335035073000,1.087072998046875,-0.113006591796875,-0.08990167081356049,0.22959478199481964
1772721335053669000,1.105669189453125,-0.07476615905761719,-0.07561126351356506,0.18269215524196625
1772721335072265500,1.124265380859375,-0.2799062728881836,-0.0454498827457428,0.04080671817064285
1772721335090861600,1.142861572265625,-0.3785858154296875,-0.016058892011642456,-0.01404477097094059
1772721335109458000,1.1614580078125,-0.05019378662109375,0.0032160580158233643,-0.14791637659072876
1772721335128054000,1.180053955078125,0.25502777099609375,-0.028335586190223694,-0.08696339279413223
1772721335146650000,1.198650146484375,-0.03310680389404297,0.12143763899803162,0.055815666913986206
1772721335165246500,1.21724658203125,-0.18847274780273438,0.12239864468574524,0.019665172323584557
1772721335183842600,1.235842529296875,0.10788726806640625,0.06542089581489563,-0.030109621584415436
1772721335202439000,1.25443896484375,0.3250083923339844,0.008456319570541382,-0.05208064615726471
1772721335221035000,1.273034912109375,0.06520366668701172,0.012394428253173828,-0.03858377784490585
1772721335239631400,1.29163134765625,-0.16747570037841797,-0.012692838907241821,-0.03635486587882042
1772721335258227500,1.3102275390625,-0.0667123794555664,-0.0841093510389328,-0.018597779795527458
1772721335276823600,1.328823486328125,0.10617446899414062,-0.09382104873657227,-0.009877486154437065
1772721335295420000,1.347419921875,-0.07245826721191406,0.012075424194335938,-0.0051014237105846405
1772721335314016000,1.36601611328125,-0.13854026794433594,-0.01903367042541504,-0.03275566175580025
1772721335332612000,1.384612060546875,0.08954238891601562,-0.06366366147994995,-0.12105941772460938
1772721335351208400,1.40320849609375,0.16075897216796875,-0.013991117477416992,-0.08106965571641922
1772721335369804500,1.421804443359375,-0.0731658935546875,0.06813918054103851,0.0011745616793632507
1772721335388401000,1.44040087890625,-0.18996810913085938,0.07209955155849457,0.028471671044826508
1772721335406997000,1.4589970703125,-0.061240196228027344,-0.01287609338760376,0.05566715821623802
1772721335425593300,1.47759326171875,0.01656818389892578,-0.06113426387310028,-0.010956622660160065
1772721335444189400,1.496189453125,0.16176509857177734,-0.08162547647953033,0.015520632266998291
1772721335462785500,1.51478564453125,0.1422748565673828,0.05105678737163544,0.012042775750160217
1772721335481382000,1.5333818359375,-0.03378486633300781,0.04427948594093323,0.07636028528213501
1772721335499978000,1.55197802734375,-0.16292190551757812,0.08061210811138153,0.08782073110342026
1772721335518574000,1.570573974609375,0.11498069763183594,-0.03925222158432007,0.022266149520874023
1772721335537170400,1.58917041015625,0.358673095703125,-0.06555640697479248,-0.009202852845191956
1772721335555766800,1.607766845703125,-0.012714385986328125,0.05317792296409607,0.0034038275480270386
1772721335574363000,1.62636279296875,-0.2437734603881836,0.07044598460197449,0.04248221963644028
1772721335592959000,1.644958984375,-0.1267385482788086,0.027008607983589172,0.017355531454086304
1772721335611555300,1.663555419921875,0.11931324005126953,-0.05368277430534363,-0.058719322085380554
1772721335630151400,1.6821513671875,0.1818714141845703,0.012459233403205872,-0.0855603963136673
1772721335648747500,1.70074755859375,-0.0015277862548828125,0.09181439876556396,-0.015415579080581665
1772721335667344000,1.71934375,-0.04911613464355469,0.028333410620689392,0.015298798680305481
1772721335685940000,1.73793994140625,-0.05559825897216797,-0.02981303632259369,0.025943443179130554
1772721335704536300,1.756536376953125,0.040771484375,-0.06823059916496277,-0.0711962878704071
1772721335723132400,1.77513232421875,0.09491729736328125,-0.031121879816055298,0.018171250820159912
1772721335741728800,1.793728759765625,0.006191253662109375,-0.006169557571411133,0.07153268158435822
1772721335760324900,1.812324951171875,-0.06428813934326172,-0.015762537717819214,0.004518434405326843
1772721335778921000,1.8309208984375,-0.010782241821289062,-0.033878520131111145,-0.029456526041030884
1772721335797517300,1.849517333984375,-0.03528308868408203,-0.04072834551334381,-0.002307608723640442
1772721335816113400,1.868113525390625,-0.13684749603271484,0.034641653299331665,0.01999548077583313
1772721335834709500,1.88670947265625,-0.10270500183105469,0.04049904644489288,0.03119567036628723
1772721335853305900,1.905305908203125,0.07582855224609375,-0.003363311290740967,-0.018435999751091003
1772721335871902000,1.92390185546875,0.13037490844726562,-0.015024974942207336,0.04816734790802002
1772721335890498300,1.942498291015625,0.0077877044677734375,-0.003027617931365967,0.004919528961181641
1772721335909094400,1.961094482421875,-0.19522476196289062,0.06480373442173004,0.008970782160758972
1772721335927690500,1.9796904296875,-0.06454753875732422,0.030349746346473694,-0.005728498101234436
1772721335946286800,1.998286865234375,0.09043216705322266,-0.016837596893310547,-0.041402220726013184
1772721335964883000,2.016883056640625,0.22032546997070312,-0.05434669554233551,-0.05684742331504822
1772721335983479300,2.035479248046875,0.011754989624023438,0.03374181687831879,0.026777535676956177
1772721336002075400,2.054075439453125,-0.17329692840576172,-0.0009066164493560791,-0.004431530833244324
1772721336020671500,2.07267138671875,-0.0796823501586914,-0.03043234348297119,0.014663368463516235
1772721336039267800,2.091267822265625,0.055794715881347656,-0.07647936046123505,-0.028987392783164978
1772721336057864000,2.109864013671875,0.033928871154785156,-0.06283500790596008,0.010831326246261597
1772721336076460000,2.1284599609375,-0.05338096618652344,-0.015100643038749695,0.010744422674179077
1772721336095056400,2.147056396484375,-0.053414344787597656,0.013642489910125732,-0.04250943660736084
1772721336113652500,2.165652587890625,0.05924224853515625,-0.008253276348114014,-0.08287078142166138
1772721336132248800,2.184248779296875,0.14655017852783203,-0.009912475943565369,-0.011218249797821045
1772721336150845000,2.202844970703125,0.0052890777587890625,-0.026684686541557312,0.03395691514015198
1772721336169441300,2.221441162109375,-0.08895015716552734,-0.05561839044094086,0.056585103273391724
1772721336188037400,2.240037353515625,0.04806804656982422,-0.09686818718910217,0.032275840640068054
1772721336206633500,2.258633544921875,0.0808572769165039,-0.06106899678707123,0.06492261588573456
1772721336225229600,2.2772294921875,-0.0862131118774414,-0.03052811324596405,0.07024446129798889
1772721336243826000,2.295825927734375,-0.1068887710571289,-0.0017355531454086304,0.0039907097816467285
1772721336262422000,2.314422119140625,0.07668209075927734,-0.02170105278491974,0.006243064999580383
1772721336281018000,2.33301806640625,0.17760848999023438,-0.002020895481109619,-0.015457957983016968
1772721336299614500,2.351614501953125,-0.008539199829101562,0.03364986181259155,0.07542428374290466
1772721336318210600,2.37021044921875,-0.25585460662841797,0.05443057417869568,0.11985938996076584
1772721336336807000,2.388806884765625,-0.1473407745361328,0.01743285357952118,0.057537466287612915
1772721336355403000,2.407403076171875,0.2530250549316406,-0.04346172511577606,-0.08726993203163147
1772721336373999400,2.425999267578125,0.264678955078125,0.00855022668838501,-0.05067834258079529
1772721336392595500,2.444595458984375,-0.016119003295898438,0.016467422246932983,-0.03427864611148834
1772721336411191600,2.463191650390625,-0.17270374298095703,-0.011435449123382568,-0.06103318929672241
1772721336429788000,2.481787841796875,0.003932952880859375,-0.05200020968914032,-0.05811411142349243
1772721336448384000,2.500384033203125,0.2490386962890625,-0.06703990697860718,-0.011729001998901367
1772721336466980000,2.51897998046875,-0.00414276123046875,-0.036696866154670715,0.046287551522254944
1772721336485576400,2.537576416015625,-0.2692880630493164,-0.009481549263000488,0.05300748348236084
1772721336504172500,2.556172607421875,-0.06157493591308594,-0.09736379235982895,-0.0501834899187088
1772721336522768600,2.5747685546875,0.09157276153564453,-0.0077285319566726685,-0.03874804079532623
1772721336541365000,2.593364990234375,-0.04002952575683594,0.04486273229122162,-0.06370134651660919
1772721336559961000,2.611961181640625,-0.050232887268066406,-0.007035598158836365,-0.0736188292503357
1772721336578557400,2.630557373046875,0.11905097961425781,-0.0025716274976730347,-0.021942138671875
1772721336597153500,2.649153564453125,-0.08610916137695312,0.03465436398983002,0.08898210525512695
1772721336615749600,2.66774951171875,-0.21790695190429688,0.015107497572898865,0.003940582275390625
1772721336634346000,2.686345947265625,-0.09379768371582031,0.002726227045059204,0.03981336951255798
1772721336652942000,2.704942138671875,0.13175296783447266,-0.06152251362800598,-0.044852957129478455
1772721336671538400,2.723538330078125,0.1364459991455078,0.040604472160339355,0.07661362737417221
1772721336690134500,2.742134521484375,-0.03452587127685547,0.03159259259700775,0.031315192580223083
1772721336708730600,2.760730712890625,-0.017076492309570312,0.04950593411922455,0.010247766971588135
1772721336727327000,2.779326904296875,-0.05029869079589844,0.03340834379196167,0.03961467742919922
1772721336745923000,2.797923095703125,-0.059932708740234375,0.018542230129241943,-0.042488232254981995
1772721336764519200,2.816519287109375,0.00048542022705078125,0.04888847470283508,-0.10649484395980835
1772721336783115500,2.835115478515625,0.052689552307128906,0.0963733047246933,-0.07533000409603119
1772721336801711600,2.853711669921875,-0.007161140441894531,0.06171697378158569,-0.03876248002052307
1772721336820307700,2.8723076171875,0.08009052276611328,0.02054455876350403,-0.043321624398231506
1772721336838904000,2.890904052734375,0.14570045471191406,0.009420618414878845,0.04585261642932892
1772721336857500200,2.909500244140625,-0.09339237213134766,0.031077787280082703,0.08638878166675568
1772721336876096300,2.92809619140625,-0.09530830383300781,0.0056482404470443726,0.035450950264930725
1772721336894692600,2.946692626953125,-0.012842178344726562,-0.009039998054504395,0.002231687307357788
1772721336913288700,2.965288818359375,0.1662912368774414,-0.018681690096855164,-0.02083010971546173
1772721336931884800,2.983884765625,0.16672706604003906,-0.01621416211128235,0.017776906490325928
1772721336950481200,3.002481201171875,-0.11437606811523438,0.013474315404891968,0.026535585522651672
1772721336969077200,3.0210771484375,-0.1776561737060547,-0.00005626678466796875,-0.022113293409347534
1772721336987673600,3.039673583984375,0.04857349395751953,-0.05012015998363495,0.002938985824584961
1772721337006269700,3.058269775390625,0.11396312713623047,-0.04284755885601044,0.09191690385341644
1772721337024865800,3.07686572265625,-0.05457878112792969,-0.015469267964363098,0.07110439240932465
1772721337043462100,3.095462158203125,-0.11879253387451172,0.022821739315986633,0.039896875619888306
1772721337062058200,3.114058349609375,-0.007495880126953125,-0.034476667642593384,0.021842792630195618
1772721337080654600,3.132654541015625,0.015760421752929688,-0.023514240980148315,0.048098862171173096
1772721337099250700,3.151250732421875,0.05056571960449219,-0.04536175727844238,-0.0007721781730651855
1772721337117846800,3.1698466796875,0.17109394073486328,-0.04807367920875549,-0.010941743850708008
1772721337136443100,3.188443115234375,-0.03786659240722656,-0.02664978802204132,0.02544473111629486
1772721337155039200,3.207039306640625,-0.11988067626953125,-0.00495988130569458,0.014741376042366028
1772721337173635300,3.22563525390625,0.0242462158203125,-0.04633729159832001,-0.007151573896408081
1772721337192231700,3.244231689453125,0.17336559295654297,-0.0060066282749176025,0.0010437816381454468
1772721337210827800,3.262827880859375,0.03976726531982422,-0.004008859395980835,0.02221435308456421
1772721337229423900,3.281423828125,-0.16327667236328125,0.06033775210380554,-0.013246983289718628
1772721337248020200,3.300020263671875,-0.14806747436523438,0.06037965416908264,0.015944167971611023
1772721337266616300,3.3186162109375,0.03314685821533203,-0.016663551330566406,-0.02252309024333954
1772721337285212400,3.33721240234375,0.112335205078125,0.007441282272338867,-0.07413384318351746
1772721337303808800,3.355808837890625,0.053284645080566406,0.03974154591560364,-0.05618004500865936
1772721337322404900,3.37440478515625,-0.1418600082397461,0.058526694774627686,-0.0511336475610733
1772721337341001000,3.3930009765625,-0.15858840942382812,0.04693104326725006,-0.008641466498374939
1772721337359597300,3.411597412109375,0.1441192626953125,-0.07736721634864807,-0.06325764954090118
1772721337378193400,3.430193359375,0.24219226837158203,-0.06977136433124542,0.009334385395050049
1772721337396789500,3.44878955078125,0.008770942687988281,-0.018893957138061523,0.032200887799263
1772721337415385900,3.4673857421875,-0.11743736267089844,-0.004086494445800781,0.05313701927661896
1772721337433982000,3.48598193359375,-0.08021068572998047,-0.01244683563709259,0.050103992223739624
1772721337452578000,3.504578125,0.1261129379272461,0.027097508311271667,-0.011127069592475891
1772721337471174400,3.52317431640625,0.10743904113769531,-0.011985152959823608,-0.019301921129226685
1772721337489770500,3.5417705078125,-0.05591297149658203,-0.03792516887187958,-0.06032632291316986
1772721337508366600,3.56036669921875,-0.14001846313476562,-0.032290518283843994,-0.13464780151844025
1772721337526963000,3.578962890625,-0.11222267150878906,-0.048444658517837524,0.042943693697452545
1772721337545559000,3.59755908203125,-0.10321331024169922,0.04661087691783905,-0.05347375571727753
1772721337564155100,3.616155029296875,0.05609130859375,-0.006956040859222412,0.001393735408782959
1772721337582751500,3.63475146484375,0.16679096221923828,-0.06610743701457977,0.05867066979408264
1772721337601347600,3.65334765625,-0.036045074462890625,-0.10282237082719803,0.11545778810977936
1772721337619943700,3.671943603515625,-0.1242513656616211,-0.060854315757751465,0.03115430474281311
1772721337638539800,3.690539794921875,-0.02803516387939453,0.010977312922477722,-0.006075009703636169
1772721337657136000,3.70913623046875,0.08080101013183594,-0.004562303423881531,0.007176563143730164
1772721337675732200,3.727732177734375,-0.02606678009033203,0.018274158239364624,-0.007357865571975708
1772721337694328300,3.746328369140625,-0.04687690734863281,0.06763975322246552,-0.09205086529254913
1772721337712924700,3.764924560546875,0.016490936279296875,0.021722927689552307,-0.058351069688797
1772721337731520800,3.783520751953125,0.026271820068359375,0.027602434158325195,-0.09321661293506622
1772721337750116900,3.802116943359375,-0.10074234008789062,0.038385435938835144,-0.00004215538501739502
1772721337768713200,3.820713134765625,-0.128448486328125,0.06965117156505585,0.003732159733772278
1772721337787309300,3.839309326171875,-0.0670614242553711,0.0190192312002182,0.04178577661514282
1772721337805905400,3.857905517578125,0.13747882843017578,-0.059840887784957886,-0.03314456343650818
1772721337824501800,3.876501708984375,0.27953433990478516,-0.029885008931159973,-0.017625272274017334
1772721337843097900,3.895097900390625,0.004660606384277344,0.022148922085762024,0.06222134828567505
1772721337861694000,3.91369384765625,-0.26348018646240234,0.05921672284603119,0.044567957520484924
1772721337880290300,3.932290283203125,-0.15713119506835938,0.024690866470336914,0.0636809915304184
1772721337898886400,3.950886474609375,0.2421560287475586,-0.0811934694647789,-0.03678005933761597
1772721337917482500,3.969482421875,0.3265571594238281,0.0012259334325790405,0.014757618308067322
1772721337936078800,3.988078857421875,-0.03708457946777344,0.06467802822589874,-0.015275225043296814
1772721337954675000,4.006675048828125,-0.30681324005126953,0.08683742582798004,-0.040705740451812744
1772721337973271000,4.02527099609375,-0.18161582946777344,0.00037410855293273926,-0.009578466415405273
1772721337991867100,4.0438671875,0.11733341217041016,-0.046084120869636536,-0.05486416816711426
1772721338010463500,4.06246337890625,0.29549503326416016,-0.10519929975271225,-0.02900122106075287
1772721338029059600,4.0810595703125,-0.025333404541015625,0.011402055621147156,0.003274977207183838
1772721338047655700,4.09965576171875,-0.2577533721923828,0.015807300806045532,-0.026042640209197998
1772721338066251800,4.118251708984375,-0.06678009033203125,-0.05698995292186737,0.07241907715797424
1772721338084848000,4.13684814453125,0.20012283325195312,-0.1243259385228157,0.03150038421154022
1772721338103444200,4.1554443359375,0.16192913055419922,-0.07162084430456161,0.033088937401771545
1772721338122040300,4.174040283203125,-0.058872222900390625,0.02059014141559601,-0.011939197778701782
1772721338140636700,4.19263671875,-0.08486270904541016,0.03835687041282654,-0.016569361090660095
1772721338159232800,4.211232666015625,-0.008503913879394531,0.020540237426757812,-0.024930357933044434
1772721338177828900,4.229828857421875,-0.011720657348632812,0.04589654505252838,0.028588443994522095
1772721338196425200,4.24842529296875,-0.008154869079589844,0.019992753863334656,0.07254885137081146
1772721338215021300,4.267021240234375,-0.12325000762939453,0.011966630816459656,0.018919900059700012
1772721338233617400,4.285617431640625,-0.10110092163085938,-0.03546607494354248,-0.015830621123313904
1772721338252213800,4.3042138671875,0.04342174530029297,-0.03338438272476196,-0.07764308154582977
1772721338270809900,4.322809814453125,0.087432861328125,0.046023085713386536,0.008010268211364746
1772721338289406000,4.341406005859375,-0.012182235717773438,0.014140263199806213,0.0038584470748901367
1772721338308002300,4.360002197265625,0.07050704956054688,0.0026439279317855835,-0.02787075936794281
1772721338326598400,4.378598388671875,0.18082332611083984,0.016663357615470886,0.01869216561317444
1772721338345194500,4.397194580078125,0.0062046051025390625,0.030877605080604553,0.0813564658164978
1772721338363790600,4.41579052734375,-0.028388023376464844,0.022596925497055054,0.03944970667362213
1772721338382386700,4.43438671875,0.10488414764404297,-0.043377652764320374,0.012317091226577759
1772721338400983000,4.452983154296875,0.009848594665527344,0.003959640860557556,-0.008697688579559326
1772721338419579100,4.4715791015625,-0.1666402816772461,0.0479949414730072,-0.04068131744861603
1772721338438175200,4.49017529296875,-0.23066997528076172,0.048203080892562866,-0.11267745494842529
1772721338456771600,4.508771484375,0.0044078826904296875,-0.003996044397354126,-0.10841026902198792
1772721338475367700,4.52736767578125,0.1381378173828125,0.014520853757858276,-0.14046400785446167
1772721338493963800,4.5459638671875,0.011887550354003906,0.03098343312740326,0.0034899264574050903
1772721338512560000,4.56456005859375,-0.05259513854980469,-0.004444554448127747,0.06996481120586395
1772721338531156200,4.58315625,-0.04265403747558594,-0.035740479826927185,0.08321397006511688
1772721338549752300,4.60175244140625,0.01914501190185547,-0.05841268599033356,0.07994340360164642
1772721338568348400,4.620348388671875,0.037001609802246094,-0.0837908387184143,0.11020583659410477
1772721338586944800,4.63894482421875,0.005177497863769531,-0.04258906841278076,0.041720278561115265
1772721338605540900,4.657540771484375,-0.03562736511230469,-0.00858461856842041,0.007035493850708008
1772721338624137000,4.676136962890625,-0.030080795288085938,-0.03795413672924042,-0.0008586496114730835
1772721338642733000,4.694733154296875,0.00016307830810546875,-0.03728979825973511,0.020549356937408447
1772721338661329200,4.7133291015625,0.0059604644775390625,-0.020047873258590698,-0.018833518028259277
1772721338679925500,4.731925537109375,0.00347137451171875,0.00041271746158599854,-0.002707362174987793
1772721338698521600,4.750521484375,-0.0850381851196289,0.02055579423904419,-0.039291784167289734
1772721338717117700,4.76911767578125,-0.029405593872070312,0.01251085102558136,-0.11451970040798187
1772721338735714000,4.787714111328125,0.13141345977783203,-0.0019542723894119263,-0.13066326081752777
1772721338754310100,4.80631005859375,0.08470726013183594,0.004281595349311829,-0.06785687804222107
1772721338772906200,4.82490625,-0.09526443481445312,0.02254810929298401,0.09204894304275513
1772721338791502600,4.843502685546875,-0.12409400939941406,-0.023251056671142578,0.0968581885099411
1772721338810098700,4.8620986328125,0.021436691284179688,-0.03934642672538757,0.03336814045906067
1772721338828694800,4.88069482421875,0.1371469497680664,-0.047577664256095886,0.027242794632911682
1772721338847291000,4.899290771484375,-0.008732795715332031,-0.009208589792251587,-0.04299056529998779
1772721338865887000,4.917886962890625,-0.08827781677246094,0.012461632490158081,0.011147350072860718
1772721338884483300,4.9364833984375,0.018279075622558594,0.007069051265716553,0.027428045868873596
1772721338903079400,4.955079345703125,0.07727336883544922,-0.024427324533462524,0.013424709439277649
1772721338921675500,4.973675537109375,0.03619194030761719,0.02200894057750702,-0.0242956280708313
1772721338940271900,4.99227197265625,-0.057389259338378906,0.01404505968093872,0.01885630190372467
1772721338958868000,5.010867919921875,-0.07692527770996094,0.04847143590450287,0.046640798449516296
1772721338977464000,5.029464111328125,0.08206367492675781,-0.022394001483917236,0.022161439061164856
1772721338996060200,5.04806005859375,0.1080770492553711,0.001039549708366394,0.019095569849014282
1772721339014656300,5.06665625,-0.07735252380371094,0.01769500970840454,-0.03597690165042877
1772721339033252600,5.085252685546875,-0.11402416229248047,0.0018187016248703003,-0.01883910596370697
1772721339051848700,5.1038486328125,0.038036346435546875,-0.038544461131095886,0.015517935156822205
1772721339070444800,5.12244482421875,0.14263057708740234,-0.04388245940208435,0.023384392261505127
1772721339089041200,5.141041259765625,0.052428245544433594,-0.028195500373840332,0.020475640892982483
1772721339107637200,5.15963720703125,-0.05894660949707031,-0.0003911703824996948,0.016034334897994995
1772721339126233300,5.1782333984375,-0.053214073181152344,0.015052035450935364,0.003005668520927429
1772721339144829400,5.196829345703125,-0.05243873596191406,0.04088033735752106,0.011599108576774597
1772721339163425500,5.215425537109375,-0.07983779907226562,0.07854612171649933,-0.010592073202133179
1772721339182022000,5.23402197265625,-0.0056858062744140625,0.035637229681015015,-0.07316833734512329
1772721339200618000,5.252617919921875,0.06644153594970703,0.03929533064365387,-0.07606852054595947
1772721339219214000,5.271214111328125,-0.031230926513671875,0.02691727876663208,-0.05222582817077637
1772721339237810400,5.289810546875,-0.05801868438720703,0.010980039834976196,-0.015968024730682373
1772721339256406500,5.308406494140625,-0.011592864990234375,-0.007505834102630615,0.024877727031707764
1772721339275002600,5.327002685546875,0.1454629898071289,-0.06765058636665344,0.020460844039916992
1772721339293598700,5.3455986328125,0.17131805419921875,-0.017011374235153198,0.07809999585151672
1772721339312194800,5.36419482421875,-0.02201366424560547,0.01647046208381653,0.07805556058883667
1772721339330791200,5.382791259765625,-0.1642160415649414,0.012340724468231201,0.10465013980865479
1772721339349387300,5.40138720703125,0.0017223358154296875,0.016859203577041626,0.023397117853164673
1772721339367983400,5.4199833984375,0.1783456802368164,-0.05623546242713928,-0.0723017156124115
1772721339386579500,5.438579345703125,0.0005626678466796875,0.05750548839569092,-0.04937690496444702
1772721339405175600,5.457175537109375,-0.13694381713867188,0.08161486685276031,-0.03231757879257202
1772721339423772000,5.47577197265625,-0.10417747497558594,0.07844991981983185,-0.056787118315696716
1772721339442368000,5.494367919921875,-0.07411575317382812,0.05960504710674286,-0.04796752333641052
1772721339460964000,5.512964111328125,-0.03410530090332031,-0.0030253976583480835,-0.1297333836555481
1772721339479560200,5.531560302734375,0.03927803039550781,-0.033008888363838196,-0.1218189001083374
1772721339498156500,5.550156494140625,0.0659170150756836,-0.009856760501861572,-0.027593642473220825
1772721339516752600,5.568752685546875,-0.051552772521972656,-0.0065156519412994385,0.009930610656738281
1772721339535348700,5.5873486328125,-0.06786727905273438,-0.00744609534740448,0.0875895768404007
1772721339553944800,5.60594482421875,0.07470417022705078,-0.057150378823280334,0.1205112487077713
1772721339572541000,5.624541015625,0.12785720825195312,-0.056044504046440125,-0.002768993377685547
1772721339591137300,5.64313720703125,0.10688972473144531,-0.06258159130811691,0.004633039236068726
1772721339609733400,5.6617333984375,-0.01715564727783203,-0.006698578596115112,0.04236578941345215
1772721339628329500,5.68032958984375,-0.046311378479003906,-0.02531096339225769,0.0396597683429718
1772721339646925600,5.698925537109375,0.1026296615600586,-0.014800846576690674,0.055266767740249634
1772721339665521700,5.717521728515625,-0.00716400146484375,0.015632078051567078,0.08940248191356659
1772721339684118000,5.736117919921875,-0.06266498565673828,-0.016258537769317627,0.09620453417301178
1772721339702714000,5.754714111328125,-0.035758018493652344,0.031288474798202515,0.04548579454421997
1772721339721310200,5.773310302734375,0.07045173645019531,-0.017905086278915405,-0.05557882785797119
1772721339739906300,5.79190625,0.05584526062011719,0.001558557152748108,-0.04517573118209839
1772721339758502400,5.81050244140625,-0.04481029510498047,0.015944138169288635,-0.08333474397659302
1772721339777098800,5.8290986328125,0.032324790954589844,-0.011884450912475586,-0.04003274440765381
1772721339795694800,5.84769482421875,0.2529106140136719,-0.0411037802696228,-0.07029174268245697
1772721339814291000,5.866291015625,0.042789459228515625,-0.00923524796962738,0.06942473351955414
1772721339832887000,5.884886962890625,-0.31827449798583984,-0.0023357421159744263,0.09033003449440002
1772721339851483100,5.903483154296875,-0.05220603942871094,-0.07811364531517029,0.015568897128105164
1772721339870079500,5.92207958984375,0.1992807388305664,-0.07737518846988678,0.007452055811882019
1772721339888675600,5.940675537109375,-0.029091835021972656,0.005069106817245483,-0.010538727045059204
1772721339907271700,5.959271728515625,-0.07907485961914062,-0.030888453125953674,0.0011781156063079834
1772721339925868000,5.977867919921875,0.09142112731933594,-0.006421774625778198,-0.051103994250297546
1772721339944464100,5.996464111328125,0.10756969451904297,-0.02902883291244507,-0.05487862229347229
1772721339963060200,6.015060302734375,-0.061659812927246094,0.013540461659431458,-0.021126866340637207
1772721339981656300,6.03365625,-0.13616943359375,-0.007059022784233093,0.041917771100997925
1772721340000252400,6.05225244140625,0.016539573669433594,-0.03574194014072418,-0.03735503554344177
1772721340018848800,6.070848876953125,0.1594371795654297,-0.043296560645103455,-0.013011336326599121
1772721340037444900,6.08944482421875,0.06270408630371094,-0.06395569443702698,0.08601833879947662
1772721340056041000,6.108041015625,-0.1654500961303711,-0.06276199221611023,-0.005723342299461365
1772721340074637000,6.126636962890625,-0.1101675033569336,-0.08364839851856232,-0.05425284802913666
1772721340093233200,6.145233154296875,0.11710548400878906,-0.052290141582489014,-0.027499809861183167
1772721340111829500,6.16382958984375,0.03127002716064453,-0.060575246810913086,-0.004273250699043274
1772721340130425600,6.182425537109375,-0.1010141372680664,0.018970385193824768,0.016001224517822266
1772721340149021700,6.201021728515625,-0.04834556579589844,-0.04709036648273468,0.06157323718070984
1772721340167617800,6.21961767578125,0.027281761169433594,-0.05483219027519226,0.018213674426078796
1772721340186214000,6.2382138671875,0.07767581939697266,-0.04003134369850159,-0.05724117159843445
1772721340204810000,6.25681005859375,-0.008835792541503906,0.05344298481941223,-0.07337886095046997
1772721340223406300,6.27540625,-0.09689140319824219,0.0863310843706131,-0.03485098481178284
1772721340242002400,6.29400244140625,-0.045429229736328125,0.02209426462650299,-0.006822347640991211
1772721340260598500,6.3125986328125,0.15674972534179688,-0.0420222282409668,-0.042915865778923035
1772721340279194600,6.331194580078125,0.06323432922363281,0.03840339183807373,-0.06370145082473755
1772721340297790700,6.349790771484375,-0.20779991149902344,0.11432799696922302,-0.12014631927013397
1772721340316387000,6.368386962890625,-0.18950176239013672,0.09702664613723755,-0.06950518488883972
1772721340334983200,6.386983154296875,0.09431934356689453,-0.03423120081424713,-0.17160841822624207
1772721340353579300,6.405579345703125,0.18018341064453125,0.015237361192703247,-0.021483317017555237
1772721340372175400,6.42417529296875,0.022556304931640625,-0.003678351640701294,0.134001225233078
1772721340390771500,6.442771484375,-0.12135028839111328,-0.06249278783798218,0.10861536860466003
1772721340409367800,6.461367919921875,-0.08470344543457031,-0.04702010750770569,0.07421897351741791
1772721340427964000,6.4799638671875,-0.03913116455078125,-0.006190985441207886,0.05081513524055481
1772721340446560000,6.49856005859375,0.03890800476074219,0.020191386342048645,-0.008082330226898193
1772721340465156400,6.51715625,0.2392711639404297,-0.07270132005214691,0.04723621904850006
1772721340483752400,6.53575244140625,0.13060569763183594,0.0046445876359939575,0.0096045583486557
1772721340502348500,6.5543486328125,-0.013302803039550781,-0.0028018057346343994,0.04891473054885864
1772721340520944600,6.572944580078125,-0.1015329360961914,-0.0012319684028625488,0.09784021973609924
1772721340539540700,6.591540771484375,-0.15640544891357422,0.005175739526748657,0.03232303261756897
1772721340558137000,6.61013720703125,0.03921318054199219,0.021917104721069336,-0.05011823773384094
1772721340576733200,6.628733154296875,0.15104961395263672,-0.010716885328292847,-0.048005759716033936
1772721340595329300,6.647329345703125,-0.02764892578125,-0.004832714796066284,-0.04595924913883209
1772721340613925400,6.66592529296875,-0.26467323303222656,0.04159390926361084,0.01926647126674652
1772721340632521500,6.684521484375,-0.0753631591796875,0.0028457343578338623,-0.002648070454597473
1772721340651117800,6.703117919921875,0.16800785064697266,0.007472768425941467,0.059332460165023804
1772721340669714000,6.7217138671875,0.11978530883789062,0.019731074571609497,0.04908500611782074
1772721340688310000,6.74031005859375,-0.04943084716796875,0.026180386543273926,-0.029797762632369995
1772721340706906000,6.758906005859375,0.020318031311035156,0.01628926396369934,0.005314737558364868
1772721340725502200,6.777502197265625,0.13364696502685547,0.057628482580184937,-0.029762476682662964
1772721340744098600,6.7960986328125,-0.04047393798828125,0.0771784782409668,-0.04049693048000336
1772721340762694700,6.814694580078125,-0.14030170440673828,0.04753461480140686,-0.029293864965438843
1772721340781290800,6.833290771484375,0.02890777587890625,-0.018158823251724243,-0.04223407804965973
1772721340799887000,6.85188720703125,0.2258596420288086,-0.002176940441131592,-0.0035607218742370605
1772721340818483200,6.870483154296875,0.011045455932617188,0.04221022129058838,0.01566985249519348
1772721340837079300,6.889079345703125,-0.2767324447631836,0.08218434453010559,-0.0020654648542404175
1772721340855675400,6.90767529296875,-0.055568695068359375,-0.012243211269378662,0.03542913496494293
1772721340874271500,6.926271484375,0.19049358367919922,0.010875329375267029,0.02143120765686035
1772721340892867800,6.944867919921875,0.21094417572021484,-0.005095571279525757,-0.0020605623722076416
1772721340911464000,6.9634638671875,0.008663177490234375,0.033005326986312866,0.029333874583244324
1772721340930060000,6.98206005859375,-0.16224098205566406,-0.010819733142852783,0.01519283652305603
1772721340948656400,7.000656494140625,0.047402381896972656,-0.09911738336086273,-0.034616053104400635
1772721340967252500,7.01925244140625,0.0859518051147461,-0.04124763607978821,0.03148449957370758
1772721340985848600,7.0378486328125,0.0739145278930664,-0.03860676288604736,-0.017031461000442505
1772721341004444700,7.056444580078125,0.09020614624023438,-0.02005825936794281,0.012415573000907898
1772721341023040800,7.075040771484375,-0.08335590362548828,-0.0336633026599884,0.12328456342220306
1772721341041636900,7.093636962890625,-0.2244129180908203,0.011690318584442139,-0.028098851442337036
1772721341060233200,7.112233154296875,0.05763053894042969,-0.06591108441352844,-0.17257824540138245
1772721341078829300,7.130829345703125,0.4116659164428711,-0.09773997962474823,-0.06134264916181564
1772721341097425400,7.14942529296875,0.2208251953125,0.021214842796325684,-0.027950093150138855
1772721341116021800,7.168021728515625,-0.20035457611083984,0.0045525431632995605,0.0030010417103767395
1772721341134617900,7.186617919921875,-0.3177623748779297,0.02178630232810974,-0.021279655396938324
1772721341153214000,7.2052138671875,-0.17133331298828125,-0.014703512191772461,-0.0032773688435554504
1772721341171810300,7.223810302734375,0.23468589782714844,-0.060050904750823975,0.07330387085676193
1772721341190406400,7.242406494140625,-0.011540412902832031,-0.005416244268417358,-0.004730105400085449
1772721341209002500,7.26100244140625,-0.10604667663574219,0.01931673288345337,0.026672109961509705
1772721341227598800,7.279598876953125,0.022123336791992188,-0.03103160858154297,-0.058075934648513794
1772721341246195000,7.29819482421875,0.0338287353515625,0.002461075782775879,-0.03441791236400604
1772721341264791000,7.316791015625,-0.061614990234375,0.014186948537826538,-0.002730041742324829
1772721341283387400,7.335387451171875,-0.005889892578125,-0.026492387056350708,0.0485735647380352
1772721341301983500,7.3539833984375,0.06320667266845703,0.01008671522140503,0.008706435561180115
1772721341320579600,7.37257958984375,0.02743053436279297,0.018822550773620605,-0.03074514865875244
1772721341339176000,7.391176025390625,-0.022365570068359375,0.059303462505340576,-0.04628836363554001
1772721341357772000,7.40977197265625,-0.03310108184814453,-0.004586756229400635,-0.02657294273376465
1772721341376368000,7.4283681640625,0.11164665222167969,-0.03915202617645264,-0.028371714055538177
1772721341394964500,7.446964599609375,0.15047550201416016,-0.05788561701774597,0.020244114100933075
1772721341413560600,7.465560546875,-0.03675651550292969,0.016219615936279297,-0.015495769679546356
1772721341432156700,7.48415673828125,-0.12488651275634766,0.049497514963150024,0.021162666380405426
1772721341450753000,7.5027529296875,-0.13473987579345703,0.009547948837280273,0.0405508354306221
1772721341469349000,7.52134912109375,-0.019957542419433594,-0.04720917344093323,-0.02182777225971222
1772721341487945200,7.5399453125,0.31224918365478516,-0.13143929839134216,-0.13273534178733826
1772721341506541600,7.55854150390625,0.18759632110595703,-0.03555026650428772,-0.007830195128917694
1772721341525137700,7.5771376953125,-0.2591667175292969,0.017618119716644287,0.02507305145263672
1772721341543733800,7.595733642578125,-0.22722244262695312,0.024998784065246582,0.044374123215675354
1772721341562330000,7.614330078125,0.14304065704345703,-0.03589089214801788,0.009435191750526428
1772721341580926200,7.63292626953125,0.21630859375,0.004114300012588501,-0.002143546938896179
1772721341599522600,7.6515224609375,0.057109832763671875,-0.005826979875564575,-0.03815916180610657
1772721341618118700,7.67011865234375,-0.14760780334472656,0.03960639238357544,-0.0463794469833374
1772721341636715000,7.688715087890625,-0.12682723999023438,0.010963886976242065,-0.03358784317970276
1772721341655311000,7.70731103515625,0.044074058532714844,-0.01652824878692627,0.01871795952320099
1772721341673907200,7.7259072265625,0.061065673828125,-0.00299757719039917,0.040014997124671936
1772721341692503600,7.744503662109375,0.04035663604736328,0.002692699432373047,0.023332104086875916
1772721341711099600,7.763099609375,0.013493537902832031,-0.012301474809646606,-0.03614586591720581
1772721341729695700,7.78169580078125,0.007491111755371094,-0.013147592544555664,-0.07169248163700104
1772721341748292000,7.8002919921875,0.08624076843261719,-0.008698701858520508,-0.008445516228675842
1772721341766888400,7.818888427734375,0.0062122344970703125,0.018660515546798706,-0.040670767426490784
1772721341785484500,7.837484619140625,0.022500991821289062,0.007029592990875244,-0.0041717663407325745
1772721341804080600,7.85608056640625,0.011983871459960938,-0.009767025709152222,0.053063005208969116
1772721341822677000,7.874677001953125,-0.18248844146728516,0.022871404886245728,0.08283045887947083
1772721341841273000,7.893273193359375,-0.29024791717529297,0.022415459156036377,0.03321334719657898
1772721341859869200,7.911869140625,0.037448883056640625,-0.023581936955451965,-0.018999487161636353
1772721341878465500,7.930465576171875,0.41219425201416016,-0.07018032670021057,-0.11057918518781662
1772721341897062000,7.949061767578125,0.18506526947021484,0.014757364988327026,-0.012128345668315887
1772721341915658000,7.967657958984375,-0.3189659118652344,0.035754114389419556,0.0003114268183708191
1772721341934254000,7.986254150390625,-0.2709178924560547,0.015278428792953491,0.05216754227876663
1772721341952850400,8.004850341796875,0.13573360443115234,-0.04290315508842468,0.04714705049991608
1772721341971446500,8.023446533203124,0.33773326873779297,-0.03890515863895416,0.05562721937894821
1772721341990043000,8.04204296875,0.056494712829589844,-0.02699349820613861,0.019660212099552155
1772721342008639000,8.060638916015625,-0.0942544937133789,-0.027231022715568542,-0.0013312473893165588
1772721342027235300,8.0792353515625,-0.0908041000366211,-0.051016733050346375,0.004864826798439026
1772721342045831400,8.09783154296875,-0.07282161712646484,0.010385885834693909,0.029493648558855057
1772721342064427500,8.116427490234376,-0.034229278564453125,0.014433309435844421,0.01627107337117195
1772721342083024000,8.13502392578125,0.0998697280883789,0.012597516179084778,-0.015166252851486206
1772721342101620200,8.1536201171875,0.12342071533203125,0.028271809220314026,0.03499244153499603
1772721342120216300,8.17221630859375,0.07861614227294922,0.05140766501426697,0.010524634271860123
1772721342138812400,8.1908125,-0.1491985321044922,0.07718488574028015,0.0029042214155197144
1772721342157408800,8.20940869140625,-0.2381114959716797,0.06524467468261719,-0.04852995276451111
1772721342176004900,8.2280048828125,0.022192955017089844,0.023901700973510742,-0.08364539593458176
1772721342194601200,8.246601318359374,0.18298816680908203,0.009786352515220642,-0.049447301775217056
1772721342213197300,8.265197265625,0.15067291259765625,0.027840137481689453,-0.015150431543588638
1772721342231793700,8.283793701171875,-0.049076080322265625,0.04474318027496338,0.05954279750585556
1772721342250389800,8.3023896484375,-0.10483455657958984,0.016285955905914307,0.05399153754115105
1772721342268986000,8.320986083984375,0.08426761627197266,-0.03893256187438965,0.028792070224881172
1772721342287582200,8.339582275390624,0.14739322662353516,-0.03392970561981201,0.03502465412020683
1772721342306178600,8.358178466796875,-0.06026458740234375,-0.0013702213764190674,-0.007338179275393486
1772721342324775000,8.37677490234375,-0.07944297790527344,0.02203524112701416,-0.04616226255893707
1772721342343371000,8.39537109375,0.06301689147949219,0.013697713613510132,-0.06854940950870514
1772721342361967000,8.413967041015624,0.017276763916015625,0.029337406158447266,-0.06516952812671661
1772721342380563500,8.4325634765625,-0.13231277465820312,0.01209944486618042,-0.05188750475645065
1772721342399159800,8.451159912109375,0.009134292602539062,-0.0010283291339874268,-0.02914261817932129
1772721342417756000,8.469755859375,0.1390085220336914,-0.0037248432636260986,0.011875759810209274
1772721342436352300,8.488352294921874,0.0776968002319336,-0.010871589183807373,0.004106290638446808
1772721342454948400,8.5069482421875,-0.05687713623046875,-0.057157665491104126,0.0642937570810318
1772721342473544700,8.525544677734375,0.02127361297607422,-0.09887313842773438,0.025948541238904
1772721342492141000,8.54414111328125,0.10065460205078125,-0.07560591399669647,0.041752688586711884
1772721342510737200,8.562737060546874,-0.05187225341796875,-0.04729098081588745,0.07656096667051315
1772721342529333500,8.58133349609375,-0.11428546905517578,-0.020744532346725464,0.10425055027008057
1772721342547929600,8.5999296875,-0.008513450622558594,-0.03189116716384888,0.0090296920388937
1772721342566526000,8.61852587890625,0.21317672729492188,-0.020075082778930664,-0.05971381068229675
1772721342585122300,8.637122314453125,0.04105949401855469,0.04506656527519226,-0.02449749782681465
1772721342603718700,8.65571875,-0.026266098022460938,0.017060518264770508,0.05512583255767822
1772721342622314800,8.674314697265626,-0.06657123565673828,0.026605427265167236,0.04662802070379257
1772721342640911000,8.6929111328125,-0.13857269287109375,0.021575510501861572,0.06405603140592575
1772721342659507200,8.711507080078125,0.022606849670410156,-0.052863359451293945,0.02969072386622429
1772721342678103600,8.730103515625,0.23406314849853516,0.01453891396522522,-0.020262401551008224
1772721342696700000,8.748699951171876,0.1300811767578125,0.0765542984008789,-0.022087179124355316
1772721342715296300,8.767296142578125,-0.12145233154296875,0.09330162405967712,-0.07858570665121078
1772721342733892400,8.785892333984375,-0.058426856994628906,-0.002082645893096924,-0.11120966076850891
1772721342752488700,8.80448876953125,0.11941337585449219,-0.02580583095550537,-0.057936981320381165
1772721342771085000,8.8230849609375,0.06526660919189453,0.00042638182640075684,0.024108516052365303
1772721342789681400,8.841681396484375,0.11245059967041016,-0.0224229097366333,0.019439300522208214
1772721342808277500,8.860277587890625,0.019918441772460938,0.011950135231018066,0.0010243654251098633
1772721342826873900,8.878873779296875,-0.1943511962890625,0.01649695634841919,0.02172575145959854
1772721342845470200,8.89747021484375,-0.25695133209228516,0.026243120431900024,0.017173197120428085
1772721342864066600,8.916066650390626,0.030353546142578125,-0.030032724142074585,0.05342864617705345
1772721342882663000,8.934662841796875,0.2652597427368164,-0.032947152853012085,-0.11269904673099518
1772721342901259300,8.95325927734375,0.08799934387207031,0.03952246904373169,-0.07498528063297272
1772721342919855400,8.97185546875,-0.1662158966064453,0.0351715087890625,-0.05754168704152107
1772721342938451700,8.99045166015625,-0.07154369354248047,-0.009896785020828247,0.06445096433162689
1772721342957048000,9.009048095703125,0.04703044891357422,-0.03735917806625366,0.07980091124773026
1772721342975644400,9.02764453125,0.0733327865600586,-0.03466030955314636,0.013213813304901123
1772721342994240800,9.04624072265625,0.005511283874511719,-0.020334601402282715,0.007776699960231781
1772721343012837000,9.064837158203124,0.010179519653320312,-0.04223582148551941,0.06055989861488342
1772721343031433200,9.08343310546875,0.05753326416015625,-0.045354634523391724,-0.0024794191122055054
1772721343050029600,9.102029541015625,0.2119913101196289,-0.05679267644882202,-0.05903741344809532
1772721343068626200,9.120626220703125,0.20556068420410156,-0.015580475330352783,0.03631378710269928
1772721343087222500,9.139222412109374,-0.08228302001953125,0.03160279989242554,0.07998280227184296
1772721343105819000,9.15781884765625,-0.3180971145629883,0.05302029848098755,0.045961689203977585
1772721343124415200,9.176415283203125,-0.14236068725585938,-0.0015227794647216797,-0.005070354789495468
1772721343143011300,9.19501123046875,0.16053009033203125,-0.056011587381362915,-0.05640190467238426
1772721343161607700,9.213607666015625,0.19174766540527344,-0.06373974680900574,-0.08131900429725647
1772721343180204000,9.2322041015625,0.01762676239013672,0.00968945026397705,-0.04209461063146591
1772721343198800400,9.25080029296875,-0.21868228912353516,0.01269465684890747,0.06405656784772873
1772721343217396700,9.269396728515625,0.23830890655517578,0.0006507635116577148,0.08504839241504669
1772721343235993000,9.2879931640625,0.7106599807739258,-0.007949769496917725,0.03645888715982437
1772721343254589700,9.306589599609374,0.3283834457397461,-0.016014665365219116,0.005664896219968796
1772721343273186000,9.32518603515625,-0.4953756332397461,0.012541800737380981,-0.0027986597269773483
1772721343291782400,9.343782470703125,-0.6740970611572266,0.032171010971069336,-0.013154648244380951
1772721343310378800,9.362378662109375,0.04601764678955078,0.020332425832748413,0.011726327240467072
1772721343328975000,9.38097509765625,0.7257232666015625,0.010297507047653198,0.028170043602585793
1772721343347571500,9.399571533203124,0.49334239959716797,0.02449396252632141,0.019400764256715775
1772721343366167800,9.418167724609376,-0.33756446838378906,0.01552852988243103,-0.023926807567477226
1772721343384764200,9.43676416015625,-0.7878570556640625,0.021440833806991577,-0.040414661169052124
1772721343403360500,9.455360595703125,-0.3737802505493164,0.023741722106933594,-0.05089779570698738
1772721343421956900,9.473956787109374,0.06696605682373047,0.009666889905929565,-0.075107142329216
1772721343440553200,9.49255322265625,-0.01919841766357422,-0.028655022382736206,-0.08325693756341934
1772721343459149600,9.511149658203125,-0.010268211364746094,-0.06078749895095825,-0.04490106552839279
1772721343477746200,9.52974609375,-0.0030364990234375,-0.07684683799743652,0.0012904666364192963
1772721343496342500,9.548342529296875,-0.04149341583251953,-0.05610157549381256,0.04877990484237671
1772721343514939000,9.56693896484375,-0.008482933044433594,-0.08339495956897736,0.0935918465256691
1772721343533535200,9.58553515625,0.011427879333496094,-0.08658856153488159,0.08048788458108902
1772721343552131800,9.6041318359375,0.2859821319580078,-0.10710066556930542,0.032151564955711365
1772721343570728200,9.622728271484375,0.7168416976928711,-0.09948526322841644,-0.01708986423909664
1772721343589324500,9.641324462890625,0.0858755111694336,-0.054896533489227295,-0.019426731392741203
1772721343607921200,9.659921142578124,-0.7313089370727539,-0.03490300476551056,0.023284710943698883
1772721343626517500,9.678517578125,-0.6478385925292969,-0.038634926080703735,0.027569372206926346
1772721343645113900,9.69711376953125,0.165191650390625,-0.057144373655319214,0.03328898549079895
1772721343663710200,9.715710205078125,0.7088861465454102,-0.02243340015411377,0.02376023307442665
1772721343682306800,9.734306884765624,0.40263843536376953,-0.007044002413749695,0.016752663999795914
1772721343700903200,9.752903076171876,-0.3396797180175781,-0.006988942623138428,0.03579328954219818
1772721343719499500,9.77149951171875,-0.6242647171020508,-0.00351029634475708,0.05891156941652298
1772721343738096000,9.79009619140625,-0.20196914672851562,-0.004429906606674194,0.046665698289871216
1772721343756692500,9.8086923828125,0.4230937957763672,-0.01619124412536621,-0.006300702691078186
1772721343775289000,9.8272890625,0.20686626434326172,0.00579032301902771,0.0012107118964195251
1772721343793885400,9.845885498046876,0.050024986267089844,0.043157219886779785,0.024691030383110046
1772721343812481800,9.864481689453125,-0.015654563903808594,0.010258108377456665,-0.029329940676689148
1772721343831078400,9.883078369140625,-0.10149288177490234,0.00951695442199707,-0.03957896679639816
1772721343849674800,9.9016748046875,-0.17497730255126953,0.025690555572509766,-0.06432077288627625
1772721343868271400,9.920271240234374,-0.08835411071777344,0.008423149585723877,-0.08180210739374161
1772721343886867700,9.93886767578125,0.10007572174072266,-0.03330051898956299,-0.07906845957040787
1772721343905464000,9.957464111328125,0.18871021270751953,-0.02669033408164978,-0.03778156638145447
1772721343924060700,9.976060791015625,0.08783149719238281,-0.014863014221191406,-0.0019450932741165161
1772721343942657000,9.994656982421875,-0.11213207244873047,-0.006088137626647949,0.05448317900300026
1772721343961253600,10.013253662109374,-0.20479965209960938,-0.017807453870773315,0.034331243485212326
1772721343979850000,10.03185009765625,-0.042552947998046875,-0.05331960320472717,0.020878762006759644
1772721343998446600,10.050446533203125,0.10558891296386719,-0.06652432680130005,-0.01596268266439438
1772721344017043000,10.06904296875,0.07393741607666016,-0.017550885677337646,-0.040941208600997925
1772721344035639600,10.0876396484375,0.013324737548828125,0.01597011089324951,-0.06280095130205154
1772721344054236000,10.10623583984375,0.0083160400390625,0.0025092661380767822,-0.02253107726573944
1772721344072832500,10.12483251953125,-0.05050849914550781,0.0052488744258880615,0.019051115959882736
1772721344091428900,10.143428955078125,-0.08005905151367188,-0.01809445023536682,0.02000393718481064
1772721344110025500,10.162025390625,0.0452728271484375,-0.03470197319984436,0.026544690132141113
1772721344128621800,10.180621826171874,0.07843399047851562,-0.021614402532577515,0.02031557634472847
1772721344147218400,10.199218505859376,-0.07709789276123047,0.0008597970008850098,0.016704007983207703
1772721344165814800,10.217814697265625,-0.1056509017944336,-0.015891551971435547,-0.007608719170093536
1772721344184411400,10.236411376953125,0.036808013916015625,-0.011666417121887207,-0.021903477609157562
1772721344203008000,10.255008056640625,0.0819406509399414,0.021341145038604736,-0.01978486031293869
1772721344221604600,10.2736044921875,0.0068264007568359375,0.01981613039970398,-0.018934890627861023
1772721344240201000,10.292200927734376,-0.0726776123046875,0.010533779859542847,-0.0074422359466552734
1772721344258797600,10.310797607421875,-0.06553840637207031,-0.000604480504989624,0.01961550861597061
1772721344277394000,10.329393798828125,-0.0014400482177734375,-0.01340097188949585,-0.001338176429271698
1772721344295990500,10.347990478515625,0.126861572265625,-0.03492319583892822,-0.014783069491386414
1772721344314587100,10.366587158203124,0.1246328353881836,-0.018790125846862793,-0.0027217045426368713
1772721344333183500,10.38518359375,-0.054637908935546875,0.03771981596946716,0.025656335055828094
1772721344351780000,10.403780029296875,-0.20198535919189453,0.08465537428855896,0.07312986254692078
1772721344370376400,10.42237646484375,-0.05247974395751953,0.05486992001533508,0.077578105032444
1772721344388973000,10.44097314453125,0.21614646911621094,0.009010285139083862,0.0594162717461586
1772721344407569700,10.459569580078124,0.17928409576416016,0.024488359689712524,0.047512397170066833
1772721344426166300,10.478166259765626,-0.027170181274414062,0.03812950849533081,-0.005329445004463196
1772721344444762600,10.4967626953125,-0.07840347290039062,0.04131695628166199,-0.04758259654045105
1772721344463359200,10.515359130859375,-0.045655250549316406,0.009171128273010254,-0.04141873121261597
1772721344481955800,10.533955810546875,-0.08159255981445312,-0.006464362144470215,-0.025186367332935333
1772721344500552400,10.552552490234374,-0.003975868225097656,-0.04823124408721924,-0.03820545971393585
1772721344519149000,10.571149169921876,0.19455814361572266,-0.07907000184059143,-0.004602357745170593
1772721344537745400,10.589745361328125,0.1361846923828125,-0.0639016181230545,0.026530597358942032
1772721344556342000,10.608342041015625,-0.15299320220947266,-0.01470765471458435,0.044637471437454224
1772721344574938600,10.626938720703125,-0.17874813079833984,-0.05000004172325134,0.02532000094652176
1772721344593535200,10.64553515625,0.06409835815429688,-0.07328447699546814,0.02776220813393593
1772721344612131800,10.6641318359375,0.13277816772460938,-0.05911681056022644,0.027627915143966675
1772721344630728200,10.682728271484375,0.04328727722167969,-0.019073933362960815,0.003926992416381836
1772721344649324800,10.70132470703125,-0.07360363006591797,0.0157967209815979,-0.019432462751865387
1772721344667921400,10.71992138671875,-0.06963634490966797,0.038432568311691284,0.013937011361122131
1772721344686518000,10.73851806640625,0.008390426635742188,0.0010688304901123047,0.0413454994559288
1772721344705114600,10.757114501953126,-0.01645660400390625,-0.037756115198135376,0.03284760192036629
1772721344723711200,10.775711181640625,-0.007592201232910156,-0.057382941246032715,0.035820141434669495
1772721344742307800,10.794307861328125,-0.04130077362060547,-0.05065545439720154,0.051279399544000626
1772721344760904200,10.812904296875,-0.11476612091064453,-0.007287651300430298,0.039953626692295074
1772721344779500800,10.831500732421874,-0.04978656768798828,-0.011566698551177979,0.030428215861320496
1772721344798097400,10.850097412109376,0.2460460662841797,-0.013696432113647461,-0.014890890568494797
1772721344816694000,10.868694091796876,0.33629798889160156,-0.007633507251739502,0.03241744637489319
1772721344835290600,10.88729052734375,-0.020379066467285156,0.0033741891384124756,0.004834558814764023
1772721344853887200,10.90588720703125,-0.19249439239501953,-0.03868025541305542,-0.0409712977707386
