time,seconds_elapsed,z,y,x
1772721333975089400,0.02708935546875,-0.008628465235233307,0.0034361144062131643,0.0513126403093338
1772721333993685500,0.045685546875,-0.0016035200096666813,0.019929463043808937,0.07116574794054031
1772721334012281900,0.06428173828125,0.004505127668380737,0.011682788841426373,-0.010079269297420979
1772721334030878000,0.0828779296875,0.012140937149524689,0.024205517023801804,-0.05192350596189499
1772721334049474300,0.101474365234375,0.012751801870763302,0.01107192412018776,-0.03756818547844887
1772721334068070400,0.1200703125,0.023136503994464874,0.014737112447619438,0.01954767294228077
1772721334086666800,0.138666748046875,0.024663666263222694,0.013515383005142212,0.0409279391169548
1772721334105262800,0.157262939453125,0.03474293276667595,0.004046979360282421,-0.011300998739898205
1772721334123859000,0.17585888671875,0.03657552972435951,0.009850194677710533,-0.04550942778587341
1772721334142455300,0.194455322265625,0.02893971838057041,0.008017600513994694,-0.04001164436340332
1772721334161051400,0.213051513671875,0.020998476073145866,0.008017600513994694,-0.0030543238390237093
1772721334179647700,0.231647705078125,0.025274530053138733,0.01779143698513508,0.015577051788568497
1772721334198243800,0.250243896484375,0.022525638341903687,0.008323032408952713,-0.018325943499803543
1772721334216840200,0.268840087890625,0.024663666263222694,0.014737112447619438,-0.026572618633508682
1772721334235436300,0.287436279296875,0.021609341725707054,0.014737112447619438,-0.03023780696094036
1772721334254032400,0.306032470703125,0.01824958436191082,0.007406735327094793,-0.031154103577136993
1772721334272628700,0.324628662109375,0.022525638341903687,-0.0023671009112149477,-0.0204639695584774
1772721334291224800,0.343224853515625,0.014889828860759735,-0.01183550525456667,-0.0015271619195118546
1772721334309821200,0.3618212890625,0.015806125476956367,0.0058795735239982605,0.005192350596189499
1772721334328417300,0.380417236328125,0.010919207707047462,0.008628465235233307,-0.023518294095993042
1772721334347013600,0.399013671875,0.004505127668380737,0.0025198173243552446,-0.03451386094093323
1772721334365609700,0.417609619140625,0.002061668550595641,0.00923932995647192,-0.008246674202382565
1772721334384205800,0.436205810546875,-0.0022143847309052944,0.011682788841426373,0.005803215317428112
1772721334402802200,0.45480224609375,0.001450803829357028,0.02176205813884735,0.008552107028663158
1772721334421398300,0.473398193359375,0.009392046369612217,0.03306305781006813,-0.002443459117785096
1772721334439994400,0.491994384765625,0.004810560029000044,0.040088001638650894,-0.014049889519810677
1772721334458590700,0.5105908203125,-0.012904518283903599,-0.011224640533328056,-0.024740023538470268
1772721334477187000,0.52918701171875,-0.013209951110184193,-0.025274530053138733,0.022296564653515816
1772721334495783200,0.547783203125,-0.015958841890096664,-0.011224640533328056,0.04734202101826668
1772721334514379300,0.566379150390625,-0.021151192486286163,-0.007864884100854397,0.004581485874950886
1772721334532975600,0.5849755859375,-0.03306305781006813,-0.002061668550595641,-0.010995565913617611
1772721334551571700,0.60357177734375,-0.03153589367866516,-0.00022907429956831038,0.02107483521103859
1772721334570167800,0.622167724609375,-0.014431680552661419,0.0019089524867013097,0.043982263654470444
1772721334588764200,0.64076416015625,-0.0009926552884280682,-0.009086613543331623,0.022296564653515816
1772721334607360300,0.6593603515625,0.0017562361899763346,-0.016416991129517555,-0.001221729558892548
1772721334625956600,0.67795654296875,0.00511599238961935,-0.017027854919433594,0.007330377586185932
1772721334644552700,0.696552734375,0.004810560029000044,-0.012140937149524689,0.022907428443431854
1772721334663149000,0.715149169921875,0.008781181648373604,-0.01030834298580885,0.01740964688360691
1772721334681745200,0.7337451171875,0.014889828860759735,-0.020693045109510422,0.001832594396546483
1772721334700341200,0.75234130859375,0.02496909722685814,-0.028634287416934967,0
1772721334718937600,0.7709375,0.03352120518684387,-0.028328854590654373,0.008246674202382565
1772721334737533700,0.78953369140625,0.03962985426187515,-0.0295505840331316,0.007024944759905338
1772721334756130000,0.808130126953125,0.03627009689807892,-0.027107125148177147,0.011300998739898205
1772721334774726100,0.82672607421875,0.05062541738152504,-0.044211339205503464,-0.007024944759905338
1772721334793322500,0.845322509765625,0.046654798090457916,-0.03840812295675278,0.002443459117785096
1772721334811918600,0.863918701171875,0.044211339205503464,-0.023747367784380913,0.014660755172371864
1772721334830514700,0.8825146484375,0.03352120518684387,-0.036880962550640106,-0.013439024798572063
1772721334849111000,0.901111083984375,0.03413207083940506,-0.050930850207805634,-0.0030543238390237093
1772721334867707100,0.91970703125,0.03810269013047218,-0.04634936526417732,0.022907428443431854
1772721334886303500,0.938303466796875,0.04298960790038109,-0.028634287416934967,0.029626941308379173
1772721334904899600,0.956899658203125,0.03627009689807892,-0.030466880649328232,-0.007941242307424545
1772721334923496000,0.975495849609375,0.03627009689807892,-0.034437503665685654,-0.021380268037319183
1772721334942092000,0.994092041015625,0.05306887626647949,-0.06467530876398087,-0.005192350596189499
1772721334960688000,1.012688232421875,0.08483384549617767,-0.12087486684322357,0.02260199747979641
1772721334979284500,1.031284423828125,0.10865757614374161,-0.15263983607292175,0.0409279391169548
1772721334997880600,1.049880615234375,0.1089630052447319,-0.16730059683322906,0.036651886999607086
1772721335016476700,1.0684765625,0.09246965497732162,-0.1547778695821762,0.0256563201546669
1772721335035073000,1.087072998046875,0.05520690605044365,-0.12362375855445862,0.02718348242342472
1772721335053669000,1.105669189453125,0.002061668550595641,-0.060093823820352554,0.04062250629067421
1772721335072265500,1.124265380859375,-0.03672824427485466,-0.006948587018996477,0.023823726922273636
1772721335090861600,1.142861572265625,-0.054443322122097015,0.041004300117492676,-0.013133592903614044
1772721335109458000,1.1614580078125,-0.05841394513845444,0.04222602769732475,-0.02626718580722809
1772721335128054000,1.180053955078125,-0.04558578506112099,0.060551971197128296,0.015271619893610477
1772721335146650000,1.198650146484375,-0.038560837507247925,0.06421715766191483,0.013133592903614044
1772721335165246500,1.21724658203125,-0.02909243479371071,0.049861837178468704,-0.023212861269712448
1772721335183842600,1.235842529296875,-0.025732679292559624,0.011377356946468353,-0.031154103577136993
1772721335202439000,1.25443896484375,-0.010461059398949146,-0.0035888305865228176,0.007330377586185932
1772721335221035000,1.273034912109375,-0.0019089524867013097,-0.004810560029000044,0.0204639695584774
1772721335239631400,1.29163134765625,0.0035888305865228176,-0.009697478264570236,0.000305432389723137
1772721335258227500,1.3102275390625,0.004199695307761431,-0.011530072428286076,-0.01954767294228077
1772721335276823600,1.328823486328125,0.01030834298580885,0.01718057133257389,-0.000610864779446274
1772721335295420000,1.347419921875,0.013973532244563103,0.033979352563619614,-0.0054977829568088055
1772721335314016000,1.36601611328125,0.006337722297757864,0.03367391973733902,-0.023823726922273636
1772721335332612000,1.384612060546875,0.00847574882209301,0.01565340906381607,-0.023823726922273636
1772721335351208400,1.40320849609375,0.027717988938093185,0.029703300446271896,0
1772721335369804500,1.421804443359375,0.042684175074100494,0.0449749194085598,-0.006414080038666725
1772721335388401000,1.44040087890625,0.042073313146829605,0.05261072888970375,-0.03023780696094036
1772721335406997000,1.4589970703125,0.025579962879419327,0.06910407543182373,-0.03543015569448471
1772721335425593300,1.47759326171875,0.01977674663066864,0.07490729540586472,-0.040317077189683914
1772721335444189400,1.496189453125,0.017944153398275375,0.07643445581197739,-0.023212861269712448
1772721335462785500,1.51478564453125,0.020998476073145866,0.06207913160324097,-0.005803215317428112
1772721335481382000,1.5333818359375,0.010613775812089443,0.06085740402340889,-0.008552107028663158
1772721335499978000,1.55197802734375,0.0023671009112149477,0.053832460194826126,-0.03298669680953026
1772721335518574000,1.570573974609375,-0.013515383005142212,0.031230462715029716,-0.03298669680953026
1772721335537170400,1.58917041015625,-0.010766491293907166,0.034895651042461395,0.021380268037319183
1772721335555766800,1.607766845703125,-0.003741546766832471,0.028176138177514076,0.02412915788590908
1772721335574363000,1.62636279296875,-0.006490438245236874,0.02909243479371071,-0.010995565913617611
1772721335592959000,1.644958984375,-0.015347977168858051,0.039477135986089706,-0.0256563201546669
1772721335611555300,1.663555419921875,-0.017486004158854485,0.024510949850082397,-0.018631376326084137
1772721335630151400,1.6821513671875,0.0029779658652842045,0.018096869811415672,0.007330377586185932
1772721335648747500,1.70074755859375,0.014278964139521122,0.0016035200096666813,0.003970621153712273
1772721335667344000,1.71934375,0.01183550525456667,-0.0057268571108579636,-0.004581485874950886
1772721335685940000,1.73793994140625,0.0057268571108579636,-0.000839939049910754,-0.007635809946805239
1772721335704536300,1.756536376953125,0.01611155830323696,-0.008170315995812416,-0.007024944759905338
1772721335723132400,1.77513232421875,0.025274530053138733,-0.01977674663066864,0.002443459117785096
1772721335741728800,1.793728759765625,0.017333287745714188,-0.018555017188191414,0.0009162971982732415
1772721335760324900,1.812324951171875,0.008781181648373604,-0.008170315995812416,0.0015271619195118546
1772721335778921000,1.8309208984375,0.0005345066892914474,-0.010613775812089443,0.001832594396546483
1772721335797517300,1.849517333984375,-0.00038179047987796366,0.004963276442140341,0.006414080038666725
1772721335816113400,1.868113525390625,-0.0025198173243552446,0.019013166427612305,-0.007024944759905338
1772721335834709500,1.88670947265625,-0.011988221667706966,0.019929463043808937,-0.023823726922273636
1772721335853305900,1.905305908203125,-0.015042545273900032,0.02084576152265072,-0.012217295356094837
1772721335871902000,1.92390185546875,-0.022983787581324577,0.022678354755043983,0.010995565913617611
1772721335890498300,1.942498291015625,-0.021151192486286163,0.03367391973733902,0.02260199747979641
1772721335909094400,1.961094482421875,-0.019624030217528343,0.03550651669502258,-0.0027488914784044027
1772721335927690500,1.9796904296875,-0.0193185992538929,0.036422811448574066,-0.017715077847242355
1772721335946286800,1.998286865234375,-0.018402300775051117,0.021456625312566757,-0.013439024798572063
1772721335964883000,2.016883056640625,-0.004352411720901728,0.015958841890096664,0.016187917441129684
1772721335983479300,2.035479248046875,0.0029779658652842045,0.0193185992538929,0.02871064469218254
1772721336002075400,2.054075439453125,0.0011453714687377214,0.019624030217528343,0.0021380267571657896
1772721336020671500,2.07267138671875,-0.004963276442140341,0.030314164236187935,-0.004886918235570192
1772721336039267800,2.091267822265625,0.0023671009112149477,0.04039343446493149,-0.001221729558892548
1772721336057864000,2.109864013671875,0.01030834298580885,0.04405862092971802,0.0027488914784044027
1772721336076460000,2.1284599609375,0.018860450014472008,0.04741837829351425,-0.000610864779446274
1772721336095056400,2.147056396484375,0.020387612283229828,0.03428478538990021,-0.011606430634856224
1772721336113652500,2.165652587890625,0.02893971838057041,0.015347977168858051,-0.010690134018659592
1772721336132248800,2.184248779296875,0.03504836559295654,0.004352411720901728,0.006414080038666725
1772721336150845000,2.202844970703125,0.0319940410554409,-0.0035888305865228176,0.008857538923621178
1772721336169441300,2.221441162109375,0.026801692321896553,-0.012751801870763302,-0.007635809946805239
1772721336188037400,2.240037353515625,0.02130390889942646,-0.020998476073145866,-0.006108647678047419
1772721336206633500,2.258633544921875,0.018860450014472008,-0.01000291109085083,0.01282816007733345
1772721336225229600,2.2772294921875,0.006948587018996477,-0.0023671009112149477,0.003970621153712273
1772721336243826000,2.295825927734375,0.0017562361899763346,0.0006872228696011007,-0.012522728182375431
1772721336262422000,2.314422119140625,-0.015347977168858051,-0.007864884100854397,-0.009773836471140385
1772721336281018000,2.33301806640625,-0.01779143698513508,-0.010613775812089443,0.013439024798572063
1772721336299614500,2.351614501953125,-0.021456625312566757,0.013515383005142212,0.023212861269712448
1772721336318210600,2.37021044921875,-0.028176138177514076,0.03245219215750694,-0.005803215317428112
1772721336336807000,2.388806884765625,-0.03428478538990021,0.026343543082475662,-0.028099779039621353
1772721336355403000,2.407403076171875,-0.026648975908756256,0.0019089524867013097,-0.003359756199643016
1772721336373999400,2.425999267578125,-0.019929463043808937,-0.014278964139521122,0.03023780696094036
1772721336392595500,2.444595458984375,-0.012293653562664986,-0.015806125476956367,0.030543239787220955
1772721336411191600,2.463191650390625,-0.006490438245236874,-0.029245151206851006,0.0009162971982732415
1772721336429788000,2.481787841796875,0.002061668550595641,-0.053985174745321274,-0.013133592903614044
1772721336448384000,2.500384033203125,0.006337722297757864,-0.05581776797771454,0.018325943499803543
1772721336466980000,2.51897998046875,0.004505127668380737,-0.029856016859412193,0.032070402055978775
1772721336485576400,2.537576416015625,-0.004963276442140341,-0.025274530053138733,-0.0009162971982732415
1772721336504172500,2.556172607421875,-0.0022143847309052944,-0.024052800610661507,-0.01282816007733345
1772721336522768600,2.5747685546875,0.006948587018996477,-0.01763872057199478,0.005192350596189499
1772721336541365000,2.593364990234375,0.014278964139521122,-0.0243582334369421,-0.003359756199643016
1772721336559961000,2.611961181640625,0.015806125476956367,-0.04146244749426842,-0.014966187067329884
1772721336578557400,2.630557373046875,0.01672242395579815,-0.029856016859412193,0.004276053514331579
1772721336597153500,2.649153564453125,0.003283398225903511,-0.006337722297757864,0.003665188793092966
1772721336615749600,2.66774951171875,-0.0022143847309052944,0.01718057133257389,-0.019853105768561363
1772721336634346000,2.686345947265625,-0.01718057133257389,0.01626427471637726,-0.033597562462091446
1772721336652942000,2.704942138671875,-0.011988221667706966,0.007406735327094793,-0.019242240116000175
1772721336671538400,2.723538330078125,-0.01565340906381607,0.006185005884617567,0.000305432389723137
1772721336690134500,2.742134521484375,-0.026648975908756256,-0.00022907429956831038,-0.004276053514331579
1772721336708730600,2.760730712890625,-0.03061959706246853,0.009850194677710533,-0.005192350596189499
1772721336727327000,2.779326904296875,-0.03581194952130318,0.019624030217528343,-0.00946840364485979
1772721336745923000,2.797923095703125,-0.029703300446271896,0.02848157100379467,-0.015577051788568497
1772721336764519200,2.816519287109375,-0.012293653562664986,0.024816380813717842,-0.021685699000954628
1772721336783115500,2.835115478515625,-0.0006872228696011007,0.03061959706246853,-0.014660755172371864
1772721336801711600,2.853711669921875,0.00511599238961935,0.033368486911058426,-0.015577051788568497
1772721336820307700,2.8723076171875,0.011530072428286076,0.016569707542657852,-0.01435532234609127
1772721336838904000,2.890904052734375,0.020998476073145866,0.013820815831422806,0.012522728182375431
1772721336857500200,2.909500244140625,0.01824958436191082,0.00679587060585618,-0.0021380267571657896
1772721336876096300,2.92809619140625,0.019471315667033195,0.011988221667706966,-0.014660755172371864
1772721336894692600,2.946692626953125,0.020693045109510422,0.007406735327094793,-0.01893680728971958
1772721336913288700,2.965288818359375,0.024663666263222694,-0.006948587018996477,-0.006108647678047419
1772721336931884800,2.983884765625,0.027717988938093185,-0.010613775812089443,0.02260199747979641
1772721336950481200,3.002481201171875,0.025274530053138733,-0.006948587018996477,0.011300998739898205
1772721336969077200,3.0210771484375,0.02283107116818428,-0.005421424750238657,-0.012217295356094837
1772721336987673600,3.039673583984375,0.02283107116818428,-0.002672533504664898,-0.007635809946805239
1772721337006269700,3.058269775390625,0.013668099418282509,-0.0005345066892914474,0.010995565913617611
1772721337024865800,3.07686572265625,0.0066431546583771706,0.008323032408952713,0.010690134018659592
1772721337043462100,3.095462158203125,0.001450803829357028,0.007101302966475487,-0.006108647678047419
1772721337062058200,3.114058349609375,-0.004657844081521034,0.01259908638894558,-0.008246674202382565
1772721337080654600,3.132654541015625,-0.01259908638894558,0.02084576152265072,-0.001221729558892548
1772721337099250700,3.151250732421875,-0.019624030217528343,0.003741546766832471,-0.004581485874950886
1772721337117846800,3.1698466796875,-0.01718057133257389,-0.009086613543331623,0.017104214057326317
1772721337136443100,3.188443115234375,-0.01870773360133171,-0.007254019379615784,0.015577051788568497
1772721337155039200,3.207039306640625,-0.02084576152265072,-0.00603228947147727,-0.0027488914784044027
1772721337173635300,3.22563525390625,-0.024816380813717842,-0.023441936820745468,-0.0009162971982732415
1772721337192231700,3.244231689453125,-0.02695440873503685,-0.03627009689807892,0.017715077847242355
1772721337210827800,3.262827880859375,-0.028176138177514076,-0.027717988938093185,0.02412915788590908
1772721337229423900,3.281423828125,-0.019013166427612305,-0.015806125476956367,0.008857538923621178
1772721337248020200,3.300020263671875,-0.015958841890096664,-0.007254019379615784,-0.008552107028663158
1772721337266616300,3.3186162109375,-0.01626427471637726,-0.011224640533328056,-0.009773836471140385
1772721337285212400,3.33721240234375,-0.0034361144062131643,-0.014278964139521122,0.004886918235570192
1772721337303808800,3.355808837890625,0.007864884100854397,-0.012140937149524689,0.014660755172371864
1772721337322404900,3.37440478515625,0.015500693581998348,-0.0035888305865228176,-0.001832594396546483
1772721337341001000,3.3930009765625,0.008781181648373604,-0.003894262947142124,-0.023518294095993042
1772721337359597300,3.411597412109375,0.00511599238961935,-0.022220205515623093,-0.010384701192378998
1772721337378193400,3.430193359375,0.006948587018996477,-0.0322994738817215,0.019853105768561363
1772721337396789500,3.44878955078125,0.009697478264570236,-0.03962985426187515,0.021685699000954628
1772721337415385900,3.4673857421875,0.005421424750238657,-0.03840812295675278,0.0054977829568088055
1772721337433982000,3.48598193359375,0.003283398225903511,-0.027107125148177147,-0.008857538923621178
1772721337452578000,3.504578125,-0.0009926552884280682,-0.02893971838057041,0.007024944759905338
1772721337471174400,3.52317431640625,-0.005574141163378954,-0.014584396965801716,0.030543239787220955
1772721337489770500,3.5417705078125,-0.00923932995647192,-0.010919207707047462,0.03634645417332649
1772721337508366600,3.56036669921875,0.0017562361899763346,-0.014889828860759735,0.01649334840476513
1772721337526963000,3.578962890625,0.0057268571108579636,0.007101302966475487,0.010079269297420979
1772721337545559000,3.59755908203125,0.01611155830323696,0.0025198173243552446,-0.002443459117785096
1772721337564155100,3.616155029296875,0.006337722297757864,-0.00847574882209301,-0.006414080038666725
1772721337582751500,3.63475146484375,-0.00007635809743078426,-0.004810560029000044,0.018325943499803543
1772721337601347600,3.65334765625,-0.0193185992538929,-0.000839939049910754,0.011300998739898205
1772721337619943700,3.671943603515625,-0.023594651371240616,0.003741546766832471,-0.0027488914784044027
1772721337638539800,3.690539794921875,-0.023594651371240616,-0.012140937149524689,-0.014049889519810677
1772721337657136000,3.70913623046875,-0.02328922040760517,-0.013057234697043896,0.0009162971982732415
1772721337675732200,3.727732177734375,-0.02023489587008953,-0.004505127668380737,0.004581485874950886
1772721337694328300,3.746328369140625,-0.008933897130191326,-0.001450803829357028,-0.0054977829568088055
1772721337712924700,3.764924560546875,-0.004963276442140341,0.0019089524867013097,-0.0030543238390237093
1772721337731520800,3.783520751953125,0.009392046369612217,0.012904518283903599,0.004581485874950886
1772721337750116900,3.802116943359375,0.010919207707047462,0.024510949850082397,-0.0030543238390237093
1772721337768713200,3.820713134765625,0.01611155830323696,0.037033677101135254,-0.015271619893610477
1772721337787309300,3.839309326171875,0.009086613543331623,0.0397825688123703,-0.02626718580722809
1772721337805905400,3.857905517578125,0.009697478264570236,0.024205517023801804,-0.014049889519810677
1772721337824501800,3.876501708984375,0.016416991129517555,0.0031306820455938578,0.015577051788568497
1772721337843097900,3.895097900390625,0.009086613543331623,0.0077121676877141,0.025961752980947495
1772721337861694000,3.91369384765625,0.005421424750238657,0.02390008419752121,-0.006414080038666725
1772721337880290300,3.932290283203125,-0.010461059398949146,0.02023489587008953,-0.03176496922969818
1772721337898886400,3.950886474609375,-0.008323032408952713,0.008933897130191326,-0.007024944759905338
1772721337917482500,3.969482421875,-0.0019089524867013097,0.00007635809743078426,0.03481929376721382
1772721337936078800,3.988078857421875,0.002061668550595641,0.004046979360282421,0.03756818547844887
1772721337954675000,4.006675048828125,0.0066431546583771706,0.006185005884617567,-0.003665188793092966
1772721337973271000,4.02527099609375,0.003894262947142124,0.012293653562664986,-0.027488915249705315
1772721337991867100,4.0438671875,0.00847574882209301,0.002825249684974551,-0.015577051788568497
1772721338010463500,4.06246337890625,0.014889828860759735,-0.0011453714687377214,0.025350889191031456
1772721338029059600,4.0810595703125,0.02130390889942646,0.007406735327094793,0.02779434807598591
1772721338047655700,4.09965576171875,0.021609341725707054,0.007406735327094793,-0.010995565913617611
1772721338066251800,4.118251708984375,0.00755945174023509,0.011682788841426373,-0.022907428443431854
1772721338084848000,4.13684814453125,-0.006185005884617567,-0.0005345066892914474,-0.004276053514331579
1772721338103444200,4.1554443359375,-0.0009926552884280682,-0.007864884100854397,0.01954767294228077
1772721338122040300,4.174040283203125,0.003894262947142124,-0.020998476073145866,0.007941242307424545
1772721338140636700,4.19263671875,0.01030834298580885,-0.019471315667033195,0.000610864779446274
1772721338159232800,4.211232666015625,0.010919207707047462,-0.015195261687040329,0.0015271619195118546
1772721338177828900,4.229828857421875,0.006337722297757864,-0.004505127668380737,0.005803215317428112
1772721338196425200,4.24842529296875,-0.0058795735239982605,0.018402300775051117,0.013439024798572063
1772721338215021300,4.267021240234375,-0.008017600513994694,0.03764454275369644,0.006414080038666725
1772721338233617400,4.285617431640625,-0.0058795735239982605,0.04069886729121208,-0.008857538923621178
1772721338252213800,4.3042138671875,0.004810560029000044,0.03214675933122635,-0.010384701192378998
1772721338270809900,4.322809814453125,0.01030834298580885,0.02848157100379467,-0.003970621153712273
1772721338289406000,4.341406005859375,0.013362666592001915,0.022678354755043983,-0.010079269297420979
1772721338308002300,4.360002197265625,0.018555017188191414,-0.01030834298580885,-0.021685699000954628
1772721338326598400,4.378598388671875,0.020998476073145866,-0.026801692321896553,-0.0009162971982732415
1772721338345194500,4.397194580078125,0.015806125476956367,-0.03932442143559456,-0.000305432389723137
1772721338363790600,4.41579052734375,0.005421424750238657,-0.05978839099407196,-0.010079269297420979
1772721338382386700,4.43438671875,0.003894262947142124,-0.0631481483578682,0.007635809946805239
1772721338400983000,4.452983154296875,0.012446369975805283,-0.04482220485806465,0.018325943499803543
1772721338419579100,4.4715791015625,0.018860450014472008,-0.024663666263222694,0.009162971749901772
1772721338438175200,4.49017529296875,0.02893971838057041,-0.01672242395579815,-0.014660755172371864
1772721338456771600,4.508771484375,0.03352120518684387,-0.01611155830323696,-0.017104214057326317
1772721338475367700,4.52736767578125,0.05123628303408623,-0.014889828860759735,-0.000610864779446274
1772721338493963800,4.5459638671875,0.06223184987902641,-0.008781181648373604,0.0030543238390237093
1772721338512560000,4.56456005859375,0.061620984226465225,-0.0017562361899763346,0.000610864779446274
1772721338531156200,4.58315625,0.049709122627973557,-0.005421424750238657,-0.008552107028663158
1772721338549752300,4.60175244140625,0.03871355578303337,-0.007864884100854397,-0.008552107028663158
1772721338568348400,4.620348388671875,0.020082179456949234,-0.001450803829357028,-0.0009162971982732415
1772721338586944800,4.63894482421875,0.00511599238961935,0.010766491293907166,0.008246674202382565
1772721338605540900,4.657540771484375,-0.008017600513994694,0.00038179047987796366,-0.0009162971982732415
1772721338624137000,4.676136962890625,-0.015347977168858051,0.0009926552884280682,-0.0021380267571657896
1772721338642733000,4.694733154296875,-0.01779143698513508,0.011377356946468353,-0.0015271619195118546
1772721338661329200,4.7133291015625,-0.015042545273900032,0.02084576152265072,0.0027488914784044027
1772721338679925500,4.731925537109375,-0.003741546766832471,0.03733910992741585,0.008552107028663158
1772721338698521600,4.750521484375,0.0035888305865228176,0.04436405375599861,0.0021380267571657896
1772721338717117700,4.76911767578125,0.013973532244563103,0.031230462715029716,-0.008246674202382565
1772721338735714000,4.787714111328125,0.027107125148177147,0.014431680552661419,0.003359756199643016
1772721338754310100,4.80631005859375,0.04024071618914604,0.008017600513994694,0.01435532234609127
1772721338772906200,4.82490625,0.037491824477910995,0.017486004158854485,0.003970621153712273
1772721338791502600,4.843502685546875,0.03260490670800209,0.027259841561317444,-0.012217295356094837
1772721338810098700,4.8620986328125,0.02283107116818428,0.02023489587008953,-0.014966187067329884
1772721338828694800,4.88069482421875,0.013057234697043896,0.025732679292559624,0.005192350596189499
1772721338847291000,4.899290771484375,0.009697478264570236,0.025121813639998436,0.000610864779446274
1772721338865887000,4.917886962890625,0.01030834298580885,0.026038112118840218,-0.012522728182375431
1772721338884483300,4.9364833984375,0.006948587018996477,0.022983787581324577,-0.011606430634856224
1772721338903079400,4.955079345703125,0.00755945174023509,0.02084576152265072,0.003970621153712273
1772721338921675500,4.973675537109375,0.012751801870763302,0.014431680552661419,0.006719512399286032
1772721338940271900,4.99227197265625,0.015195261687040329,0.022678354755043983,0.0054977829568088055
1772721338958868000,5.010867919921875,0.009697478264570236,0.021456625312566757,-0.007635809946805239
1772721338977464000,5.029464111328125,0.003283398225903511,0.004352411720901728,0.000610864779446274
1772721338996060200,5.04806005859375,0.000839939049910754,0.002825249684974551,0.014049889519810677
1772721339014656300,5.06665625,0.00603228947147727,0.0077121676877141,0.007024944759905338
1772721339033252600,5.085252685546875,0.009086613543331623,0.012293653562664986,-0.009773836471140385
1772721339051848700,5.1038486328125,0.002061668550595641,0.00679587060585618,-0.00946840364485979
1772721339070444800,5.12244482421875,-0.008628465235233307,0.0025198173243552446,0.010079269297420979
1772721339089041200,5.141041259765625,-0.01626427471637726,0.00038179047987796366,0.019242240116000175
1772721339107637200,5.15963720703125,-0.019013166427612305,-0.004505127668380737,0.008552107028663158
1772721339126233300,5.1782333984375,-0.013820815831422806,-0.001450803829357028,0.0027488914784044027
1772721339144829400,5.196829345703125,-0.005268708802759647,0.015347977168858051,0.001221729558892548
1772721339163425500,5.215425537109375,0.004505127668380737,0.024205517023801804,-0.005803215317428112
1772721339182022000,5.23402197265625,0.0191658828407526,0.019013166427612305,-0.007635809946805239
1772721339200618000,5.252617919921875,0.028328854590654373,0.02328922040760517,0.002443459117785096
1772721339219214000,5.271214111328125,0.03138317912817001,0.022983787581324577,0.000305432389723137
1772721339237810400,5.289810546875,0.030772313475608826,0.02390008419752121,-0.010384701192378998
1772721339256406500,5.308406494140625,0.020998476073145866,0.01565340906381607,-0.01802051067352295
1772721339275002600,5.327002685546875,0.018555017188191414,-0.000839939049910754,-0.008552107028663158
1772721339293598700,5.3455986328125,0.007254019379615784,-0.009392046369612217,0.013744457624852657
1772721339312194800,5.36419482421875,-0.006185005884617567,-0.009086613543331623,0.011606430634856224
1772721339330791200,5.382791259765625,-0.019624030217528343,-0.0011453714687377214,-0.003359756199643016
1772721339349387300,5.40138720703125,-0.03581194952130318,-0.015806125476956367,-0.009162971749901772
1772721339367983400,5.4199833984375,-0.03214675933122635,-0.027107125148177147,0.011300998739898205
1772721339386579500,5.438579345703125,-0.018096869811415672,-0.026190826669335365,0.015271619893610477
1772721339405175600,5.457175537109375,-0.00679587060585618,-0.023441936820745468,-0.0015271619195118546
1772721339423772000,5.47577197265625,0.004199695307761431,-0.004505127668380737,-0.009773836471140385
1772721339442368000,5.494367919921875,0.010613775812089443,0.019624030217528343,-0.01588248461484909
1772721339460964000,5.512964111328125,0.023747367784380913,0.022983787581324577,-0.024434590712189674
1772721339479560200,5.531560302734375,0.041157014667987823,0.026343543082475662,-0.019242240116000175
1772721339498156500,5.550156494140625,0.04940368980169296,0.03000873140990734,-0.011300998739898205
1772721339516752600,5.568752685546875,0.053374309092760086,0.03886627033352852,-0.015271619893610477
1772721339535348700,5.5873486328125,0.05123628303408623,0.03611737862229347,-0.031154103577136993
1772721339553944800,5.60594482421875,0.0322994738817215,0.04283689334988594,-0.0204639695584774
1772721339572541000,5.624541015625,0.02741255611181259,0.02390008419752121,-0.007024944759905338
1772721339591137300,5.64313720703125,0.014278964139521122,0.0016035200096666813,0.003665188793092966
1772721339609733400,5.6617333984375,0.002672533504664898,-0.008170315995812416,0.0009162971982732415
1772721339628329500,5.68032958984375,-0.010766491293907166,-0.026801692321896553,-0.014966187067329884
1772721339646925600,5.698925537109375,-0.02084576152265072,-0.025579962879419327,0.004886918235570192
1772721339665521700,5.717521728515625,-0.03306305781006813,-0.027717988938093185,0.005803215317428112
1772721339684118000,5.736117919921875,-0.0449749194085598,-0.015806125476956367,-0.001221729558892548
1772721339702714000,5.754714111328125,-0.0501672700047493,-0.01000291109085083,0.001832594396546483
1772721339721310200,5.773310302734375,-0.046196650713682175,-0.017944153398275375,0.014966187067329884
1772721339739906300,5.79190625,-0.04253146052360535,-0.012751801870763302,0.026572618633508682
1772721339758502400,5.81050244140625,-0.02909243479371071,-0.01611155830323696,0.01282816007733345
1772721339777098800,5.8290986328125,-0.022983787581324577,-0.027717988938093185,0.010384701192378998
1772721339795694800,5.84769482421875,-0.012904518283903599,-0.03138317912817001,0.04062250629067421
1772721339814291000,5.866291015625,-0.011377356946468353,-0.012446369975805283,0.05833758786320686
1772721339832887000,5.884886962890625,-0.02542724646627903,-0.011530072428286076,0.006719512399286032
1772721339851483100,5.903483154296875,-0.033979352563619614,-0.013057234697043896,-0.005803215317428112
1772721339870079500,5.92207958984375,-0.03611737862229347,-0.004810560029000044,0.028099779039621353
1772721339888675600,5.940675537109375,-0.025121813639998436,-0.0023671009112149477,0.027488915249705315
1772721339907271700,5.959271728515625,-0.02328922040760517,-0.013057234697043896,0.013439024798572063
1772721339925868000,5.977867919921875,-0.01779143698513508,-0.029856016859412193,0.022907428443431854
1772721339944464100,5.996464111328125,-0.010155626572668552,-0.0322994738817215,0.03909534588456154
1772721339963060200,6.015060302734375,-0.007406735327094793,-0.029245151206851006,0.03237583488225937
1772721339981656300,6.03365625,-0.016569707542657852,-0.0371863916516304,0.009162971749901772
1772721340000252400,6.05225244140625,-0.012293653562664986,-0.04176788032054901,0.007941242307424545
1772721340018848800,6.070848876953125,-0.007101302966475487,-0.0527634471654892,0.024434590712189674
1772721340037444900,6.08944482421875,-0.012293653562664986,-0.025274530053138733,0.050090912729501724
1772721340056041000,6.108041015625,-0.02176205813884735,-0.018555017188191414,0.03145953640341759
1772721340074637000,6.126636962890625,-0.02390008419752121,-0.030466880649328232,0.0009162971982732415
1772721340093233200,6.145233154296875,-0.02390008419752121,-0.03657552972435951,0.01588248461484909
1772721340111829500,6.16382958984375,-0.031230462715029716,-0.02802342176437378,0.025045456364750862
1772721340130425600,6.182425537109375,-0.03672824427485466,-0.014278964139521122,0.016187917441129684
1772721340149021700,6.201021728515625,-0.05047270283102989,0.008933897130191326,0.015577051788568497
1772721340167617800,6.21961767578125,-0.06146826967597008,0.006490438245236874,0.015271619893610477
1772721340186214000,6.2382138671875,-0.05566505342721939,0.0034361144062131643,0.025350889191031456
1772721340204810000,6.25681005859375,-0.04253146052360535,0.0006872228696011007,0.02718348242342472
1772721340223406300,6.27540625,-0.03061959706246853,0.007101302966475487,0.01435532234609127
1772721340242002400,6.29400244140625,-0.031230462715029716,0.0022143847309052944,0.008552107028663158
1772721340260598500,6.3125986328125,-0.02237292192876339,-0.0029779658652842045,0.024740023538470268
1772721340279194600,6.331194580078125,-0.0019089524867013097,0.00954476185142994,0.043982263654470444
1772721340297790700,6.349790771484375,0.021609341725707054,0.007406735327094793,0.013744457624852657
1772721340316387000,6.368386962890625,0.027717988938093185,-0.0029779658652842045,-0.025045456364750862
1772721340334983200,6.386983154296875,0.046654798090457916,-0.003894262947142124,-0.014660755172371864
1772721340353579300,6.405579345703125,0.06223184987902641,-0.00511599238961935,0.009773836471140385
1772721340372175400,6.42417529296875,0.05215258151292801,0.0016035200096666813,0.014966187067329884
1772721340390771500,6.442771484375,0.03627009689807892,0.0012980876490473747,-0.0030543238390237093
1772721340409367800,6.461367919921875,0.025274530053138733,-0.003283398225903511,-0.026572618633508682
1772721340427964000,6.4799638671875,0.016416991129517555,0.00007635809743078426,-0.03329212963581085
1772721340446560000,6.49856005859375,0.009392046369612217,-0.0005345066892914474,-0.02412915788590908
1772721340465156400,6.51715625,-0.00954476185142994,-0.01763872057199478,0.0027488914784044027
1772721340483752400,6.53575244140625,-0.00954476185142994,-0.0243582334369421,0.02932151034474373
1772721340502348500,6.5543486328125,-0.013515383005142212,-0.03260490670800209,0.02412915788590908
1772721340520944600,6.572944580078125,-0.019013166427612305,-0.023441936820745468,0.016798781231045723
1772721340539540700,6.591540771484375,-0.024510949850082397,-0.013057234697043896,-0.007941242307424545
1772721340558137000,6.61013720703125,-0.02756527252495289,-0.020387612283229828,-0.012522728182375431
1772721340576733200,6.628733154296875,-0.03153589367866516,-0.01183550525456667,0.017104214057326317
1772721340595329300,6.647329345703125,-0.025732679292559624,-0.00022907429956831038,0.013744457624852657
1772721340613925400,6.66592529296875,-0.021151192486286163,0.01870773360133171,-0.014660755172371864
1772721340632521500,6.684521484375,-0.017486004158854485,0.014126247726380825,-0.03451386094093323
1772721340651117800,6.703117919921875,-0.021456625312566757,0.009850194677710533,-0.011606430634856224
1772721340669714000,6.7217138671875,-0.027259841561317444,0.013820815831422806,0.003359756199643016
1772721340688310000,6.74031005859375,-0.022678354755043983,0.008933897130191326,-0.0015271619195118546
1772721340706906000,6.758906005859375,-0.022067490965127945,-0.0057268571108579636,-0.0030543238390237093
1772721340725502200,6.777502197265625,-0.01565340906381607,-0.011224640533328056,0.013133592903614044
1772721340744098600,6.7960986328125,-0.006185005884617567,-0.00603228947147727,0.009162971749901772
1772721340762694700,6.814694580078125,0.0005345066892914474,-0.0035888305865228176,-0.018631376326084137
1772721340781290800,6.833290771484375,0.006337722297757864,-0.015806125476956367,-0.025350889191031456
1772721340799887000,6.85188720703125,0.007864884100854397,-0.011530072428286076,0.006414080038666725
1772721340818483200,6.870483154296875,0.0066431546583771706,0.0031306820455938578,0.01954767294228077
1772721340837079300,6.889079345703125,0.007864884100854397,0.002825249684974551,-0.01893680728971958
1772721340855675400,6.90767529296875,0.007254019379615784,0.009850194677710533,-0.035735588520765305
1772721340874271500,6.926271484375,0.01000291109085083,0.008017600513994694,-0.010384701192378998
1772721340892867800,6.944867919921875,0.00511599238961935,-0.002061668550595641,0.016798781231045723
1772721340911464000,6.9634638671875,-0.0006872228696011007,0.006490438245236874,0.023212861269712448
1772721340930060000,6.98206005859375,-0.015347977168858051,-0.00511599238961935,-0.004276053514331579
1772721340948656400,7.000656494140625,-0.019624030217528343,-0.008781181648373604,-0.0021380267571657896
1772721340967252500,7.01925244140625,-0.02328922040760517,-0.009697478264570236,0.012522728182375431
1772721340985848600,7.0378486328125,-0.028176138177514076,-0.029856016859412193,0.019242240116000175
1772721341004444700,7.056444580078125,-0.025121813639998436,-0.03565923124551773,0.024740023538470268
1772721341023040800,7.075040771484375,-0.03306305781006813,-0.00847574882209301,0.023823726922273636
1772721341041636900,7.093636962890625,-0.03214675933122635,-0.01824958436191082,-0.01802051067352295
1772721341060233200,7.112233154296875,-0.019624030217528343,-0.06559160351753235,-0.02932151034474373
1772721341078829300,7.130829345703125,-0.010155626572668552,-0.07780890166759491,0.021685699000954628
1772721341097425400,7.14942529296875,-0.00923932995647192,-0.07933606207370758,0.06017018109560013
1772721341116021800,7.168021728515625,-0.006185005884617567,-0.05917752534151077,0.043371398001909256
1772721341134617900,7.186617919921875,-0.008017600513994694,-0.056428633630275726,-0.004276053514331579
1772721341153214000,7.2052138671875,-0.008017600513994694,-0.04909825697541237,-0.0412333719432354
1772721341171810300,7.223810302734375,-0.01626427471637726,-0.009697478264570236,0.004886918235570192
1772721341190406400,7.242406494140625,-0.0193185992538929,0.004046979360282421,0.010079269297420979
1772721341209002500,7.26100244140625,-0.022678354755043983,0.010155626572668552,-0.0027488914784044027
1772721341227598800,7.279598876953125,-0.017486004158854485,0.007101302966475487,0
1772721341246195000,7.29819482421875,-0.008933897130191326,0.01259908638894558,0.007635809946805239
1772721341264791000,7.316791015625,-0.004963276442140341,0.014737112447619438,-0.006414080038666725
1772721341283387400,7.335387451171875,-0.010155626572668552,0.020540328696370125,-0.008246674202382565
1772721341301983500,7.3539833984375,-0.010766491293907166,0.024816380813717842,-0.0009162971982732415
1772721341320579600,7.37257958984375,-0.005574141163378954,0.027870705351233482,0.0030543238390237093
1772721341339176000,7.391176025390625,0.00022907429956831038,0.03061959706246853,-0.0009162971982732415
1772721341357772000,7.40977197265625,-0.00007635809743078426,0.019624030217528343,-0.008552107028663158
1772721341376368000,7.4283681640625,0.004199695307761431,-0.002061668550595641,-0.0054977829568088055
1772721341394964500,7.446964599609375,0.009697478264570236,-0.004199695307761431,0.014660755172371864
1772721341413560600,7.465560546875,0.01824958436191082,-0.0066431546583771706,0.010690134018659592
1772721341432156700,7.48415673828125,0.017944153398275375,0.0034361144062131643,-0.005803215317428112
1772721341450753000,7.5027529296875,0.004199695307761431,0.029703300446271896,-0.016187917441129684
1772721341469349000,7.52134912109375,-0.007101302966475487,0.02023489587008953,-0.025350889191031456
1772721341487945200,7.5399453125,0.00022907429956831038,0.004657844081521034,0.007941242307424545
1772721341506541600,7.55854150390625,0.009392046369612217,0.006185005884617567,0.04001164436340332
1772721341525137700,7.5771376953125,0.010613775812089443,0.018402300775051117,0.003970621153712273
1772721341543733800,7.595733642578125,0.0066431546583771706,0.019624030217528343,-0.032070402055978775
1772721341562330000,7.614330078125,0.003283398225903511,0.013515383005142212,-0.015271619893610477
1772721341580926200,7.63292626953125,0.007864884100854397,0.0077121676877141,0.013133592903614044
1772721341599522600,7.6515224609375,0.00755945174023509,0.008933897130191326,0.025350889191031456
1772721341618118700,7.67011865234375,0.009697478264570236,0.014126247726380825,0.007941242307424545
1772721341636715000,7.688715087890625,0.00847574882209301,0.010461059398949146,-0.013744457624852657
1772721341655311000,7.70731103515625,0.009392046369612217,0.012293653562664986,-0.008246674202382565
1772721341673907200,7.7259072265625,0.0066431546583771706,0.008323032408952713,0.0009162971982732415
1772721341692503600,7.744503662109375,0.006948587018996477,0.0031306820455938578,0.0021380267571657896
1772721341711099600,7.763099609375,0.008170315995812416,-0.0023671009112149477,0.003970621153712273
1772721341729695700,7.78169580078125,0.017027854919433594,-0.020693045109510422,-0.0021380267571657896
1772721341748292000,7.8002919921875,0.0191658828407526,-0.0243582334369421,0.007024944759905338
1772721341766888400,7.818888427734375,0.02283107116818428,-0.03260490670800209,0.004581485874950886
1772721341785484500,7.837484619140625,0.024052800610661507,-0.03871355578303337,0.0030543238390237093
1772721341804080600,7.85608056640625,0.024052800610661507,-0.02588539570569992,0.009773836471140385
1772721341822677000,7.874677001953125,0.02283107116818428,0.0012980876490473747,-0.0021380267571657896
1772721341841273000,7.893273193359375,0.01824958436191082,0.016569707542657852,-0.03787361457943916
1772721341859869200,7.911869140625,0.011530072428286076,-0.0035888305865228176,-0.044898562133312225
1772721341878465500,7.930465576171875,0.023441936820745468,-0.00511599238961935,0.00946840364485979
1772721341897062000,7.949061767578125,0.02741255611181259,-0.004505127668380737,0.04306596517562866
1772721341915658000,7.967657958984375,0.029245151206851006,-0.004199695307761431,0.0021380267571657896
1772721341934254000,7.986254150390625,0.030772313475608826,-0.009392046369612217,-0.04550942778587341
1772721341952850400,8.004850341796875,0.026801692321896553,-0.020998476073145866,-0.037262752652168274
1772721341971446500,8.023446533203124,0.017027854919433594,-0.023441936820745468,0.012522728182375431
1772721341990043000,8.04204296875,0.009697478264570236,-0.02741255611181259,0.023518294095993042
1772721342008639000,8.060638916015625,0.007864884100854397,-0.03504836559295654,0.007330377586185932
1772721342027235300,8.0792353515625,0.001450803829357028,-0.025579962879419327,-0.004886918235570192
1772721342045831400,8.09783154296875,-0.0012980876490473747,-0.013973532244563103,-0.008246674202382565
1772721342064427500,8.116427490234376,-0.007406735327094793,-0.028634287416934967,-0.014660755172371864
1772721342083024000,8.13502392578125,-0.0019089524867013097,-0.03474293276667595,-0.006108647678047419
1772721342101620200,8.1536201171875,-0.006490438245236874,-0.03810269013047218,0.009162971749901772
1772721342120216300,8.17221630859375,-0.002825249684974551,-0.021914774551987648,0.024434590712189674
1772721342138812400,8.1908125,-0.004046979360282421,-0.0017562361899763346,0.018631376326084137
1772721342157408800,8.20940869140625,-0.0009926552884280682,0.005574141163378954,-0.014049889519810677
1772721342176004900,8.2280048828125,0.00511599238961935,0.00007635809743078426,-0.01893680728971958
1772721342194601200,8.246601318359374,0.01000291109085083,-0.012140937149524689,0.0021380267571657896
1772721342213197300,8.265197265625,0.014584396965801716,-0.02130390889942646,0.01802051067352295
1772721342231793700,8.283793701171875,0.016416991129517555,-0.018555017188191414,0.012522728182375431
1772721342250389800,8.3023896484375,0.009086613543331623,-0.020998476073145866,-0.010995565913617611
1772721342268986000,8.320986083984375,0.0011453714687377214,-0.025579962879419327,-0.003359756199643016
1772721342287582200,8.339582275390624,-0.003741546766832471,-0.015195261687040329,0.023823726922273636
1772721342306178600,8.358178466796875,-0.004657844081521034,-0.004505127668380737,0.017715077847242355
1772721342324775000,8.37677490234375,-0.003741546766832471,0.0025198173243552446,0.003359756199643016
1772721342343371000,8.39537109375,-0.0006872228696011007,0.0022143847309052944,0.013439024798572063
1772721342361967000,8.413967041015624,0.01000291109085083,0.007101302966475487,0.017104214057326317
1772721342380563500,8.4325634765625,0.022220205515623093,0.0022143847309052944,-0.0030543238390237093
1772721342399159800,8.451159912109375,0.03535379841923714,-0.002061668550595641,-0.011606430634856224
1772721342417756000,8.469755859375,0.0423787422478199,-0.0066431546583771706,0.0054977829568088055
1772721342436352300,8.488352294921874,0.03871355578303337,-0.0057268571108579636,0.01740964688360691
1772721342454948400,8.5069482421875,0.025579962879419327,-0.00847574882209301,0.008552107028663158
1772721342473544700,8.525544677734375,0.014889828860759735,-0.014889828860759735,0.000305432389723137
1772721342492141000,8.54414111328125,0.0057268571108579636,-0.007254019379615784,0.014660755172371864
1772721342510737200,8.562737060546874,-0.005574141163378954,-0.0017562361899763346,0.008552107028663158
1772721342529333500,8.58133349609375,-0.01870773360133171,0.02390008419752121,0.0027488914784044027
1772721342547929600,8.5999296875,-0.02909243479371071,0.011377356946468353,-0.008552107028663158
1772721342566526000,8.61852587890625,-0.022678354755043983,0.0016035200096666813,0.013439024798572063
1772721342585122300,8.637122314453125,-0.02023489587008953,-0.004810560029000044,0.01649334840476513
1772721342603718700,8.65571875,-0.03306305781006813,-0.003894262947142124,0.004886918235570192
1772721342622314800,8.674314697265626,-0.041004300117492676,0.024205517023801804,0.010995565913617611
1772721342640911000,8.6929111328125,-0.04558578506112099,0.03672824427485466,-0.006719512399286032
1772721342659507200,8.711507080078125,-0.04711294546723366,0.03306305781006813,-0.010690134018659592
1772721342678103600,8.730103515625,-0.03733910992741585,0.020540328696370125,0.012522728182375431
1772721342696700000,8.748699951171876,-0.027870705351233482,0.01718057133257389,0.032681263983249664
1772721342715296300,8.767296142578125,-0.01626427471637726,0.007406735327094793,0.013744457624852657
1772721342733892400,8.785892333984375,-0.004963276442140341,-0.00755945174023509,-0.0030543238390237093
1772721342752488700,8.80448876953125,0.01000291109085083,-0.009086613543331623,0.007330377586185932
1772721342771085000,8.8230849609375,0.012446369975805283,-0.017027854919433594,0.01282816007733345
1772721342789681400,8.841681396484375,0.004810560029000044,-0.020387612283229828,0.02412915788590908
1772721342808277500,8.860277587890625,0.0057268571108579636,-0.017333287745714188,0.0308486707508564
1772721342826873900,8.878873779296875,0.01030834298580885,0.0031306820455938578,0.010079269297420979
1772721342845470200,8.89747021484375,0.013057234697043896,0.014737112447619438,-0.02779434807598591
1772721342864066600,8.916066650390626,0.002672533504664898,0.008628465235233307,-0.028099779039621353
1772721342882663000,8.934662841796875,0.012446369975805283,0.004963276442140341,0.006414080038666725
1772721342901259300,8.95325927734375,0.025579962879419327,0.0022143847309052944,0.018325943499803543
1772721342919855400,8.97185546875,0.03504836559295654,-0.0005345066892914474,-0.010690134018659592
1772721342938451700,8.99045166015625,0.03535379841923714,0.010155626572668552,-0.023518294095993042
1772721342957048000,9.009048095703125,0.02496909722685814,0.01565340906381607,-0.018631376326084137
1772721342975644400,9.02764453125,0.02649625949561596,0.015042545273900032,-0.013133592903614044
1772721342994240800,9.04624072265625,0.02802342176437378,0.010461059398949146,-0.015271619893610477
1772721343012837000,9.064837158203124,0.012446369975805283,0.0016035200096666813,-0.01893680728971958
1772721343031433200,9.08343310546875,0.0035888305865228176,-0.0029779658652842045,-0.008246674202382565
1772721343050029600,9.102029541015625,0.0057268571108579636,-0.026801692321896553,0.007941242307424545
1772721343068626200,9.120626220703125,0.0057268571108579636,-0.04085158184170723,0.033597562462091446
1772721343087222500,9.139222412109374,0.0017562361899763346,-0.023747367784380913,0.03023780696094036
1772721343105819000,9.15781884765625,-0.003741546766832471,-0.01000291109085083,-0.014966187067329884
1772721343124415200,9.176415283203125,-0.008017600513994694,0.00679587060585618,-0.03023780696094036
1772721343143011300,9.19501123046875,-0.01259908638894558,0.0025198173243552446,-0.007941242307424545
1772721343161607700,9.213607666015625,-0.008323032408952713,-0.003283398225903511,0.019853105768561363
1772721343180204000,9.2322041015625,-0.00038179047987796366,-0.01183550525456667,0.014966187067329884
1772721343198800400,9.25080029296875,-0.00923932995647192,-0.002061668550595641,-0.0027488914784044027
1772721343217396700,9.269396728515625,-0.019013166427612305,0.0025198173243552446,-0.01740964688360691
1772721343235993000,9.2879931640625,-0.01870773360133171,-0.018555017188191414,-0.021685699000954628
1772721343254589700,9.306589599609374,-0.012293653562664986,-0.013057234697043896,0.010384701192378998
1772721343273186000,9.32518603515625,-0.010766491293907166,-0.015500693581998348,0.009773836471140385
1772721343291782400,9.343782470703125,-0.016569707542657852,-0.03168861195445061,-0.003665188793092966
1772721343310378800,9.362378662109375,-0.02542724646627903,-0.02893971838057041,0.014660755172371864
1772721343328975000,9.38097509765625,-0.03214675933122635,-0.014278964139521122,0.027488915249705315
1772721343347571500,9.399571533203124,-0.02756527252495289,-0.0023671009112149477,0.01954767294228077
1772721343366167800,9.418167724609376,-0.015958841890096664,-0.0035888305865228176,0.0021380267571657896
1772721343384764200,9.43676416015625,-0.0012980876490473747,0.00923932995647192,0.004581485874950886
1772721343403360500,9.455360595703125,0.008781181648373604,0.015042545273900032,0.000610864779446274
1772721343421956900,9.473956787109374,0.017333287745714188,0.0193185992538929,0.0021380267571657896
1772721343440553200,9.49255322265625,0.02741255611181259,0.010766491293907166,-0.003970621153712273
1772721343459149600,9.511149658203125,0.02802342176437378,0.00954476185142994,-0.003665188793092966
1772721343477746200,9.52974609375,0.029856016859412193,0.00923932995647192,-0.0030543238390237093
1772721343496342500,9.548342529296875,0.023441936820745468,-0.0029779658652842045,-0.021380268037319183
1772721343514939000,9.56693896484375,0.013057234697043896,0.00954476185142994,-0.010079269297420979
1772721343533535200,9.58553515625,-0.0019089524867013097,0.0016035200096666813,-0.014049889519810677
1772721343552131800,9.6041318359375,-0.011988221667706966,-0.01000291109085083,-0.010995565913617611
1772721343570728200,9.622728271484375,-0.010155626572668552,-0.007864884100854397,0.009773836471140385
1772721343589324500,9.641324462890625,-0.011682788841426373,0.015347977168858051,0.016798781231045723
1772721343607921200,9.659921142578124,-0.02328922040760517,0.028787001967430115,-0.0030543238390237093
1772721343626517500,9.678517578125,-0.031230462715029716,0.036422811448574066,-0.012217295356094837
1772721343645113900,9.69711376953125,-0.03611737862229347,0.05169443041086197,-0.004886918235570192
1772721343663710200,9.715710205078125,-0.04192059487104416,0.04833467677235603,0.0009162971982732415
1772721343682306800,9.734306884765624,-0.049861837178468704,0.03825540840625763,0.013133592903614044
1772721343700903200,9.752903076171876,-0.0553596206009388,0.02848157100379467,0.024740023538470268
1772721343719499500,9.77149951171875,-0.05658135190606117,0.03825540840625763,0.034208428114652634
1772721343738096000,9.79009619140625,-0.054443322122097015,0.019013166427612305,0.004581485874950886
1772721343756692500,9.8086923828125,-0.047723811119794846,0.0016035200096666813,0.0054977829568088055
1772721343775289000,9.8272890625,-0.04558578506112099,-0.0005345066892914474,0.03787361457943916
1772721343793885400,9.845885498046876,-0.06085740402340889,-0.018555017188191414,0.035124726593494415
1772721343812481800,9.864481689453125,-0.050778135657310486,-0.005421424750238657,0.03237583488225937
1772721343831078400,9.883078369140625,-0.03672824427485466,0.016875140368938446,0.016187917441129684
1772721343849674800,9.9016748046875,-0.018096869811415672,0.015042545273900032,-0.014049889519810677
1772721343868271400,9.920271240234374,-0.008017600513994694,-0.0023671009112149477,-0.016798781231045723
1772721343886867700,9.93886767578125,0.0005345066892914474,-0.0191658828407526,0.020769402384757996
1772721343905464000,9.957464111328125,-0.004352411720901728,-0.025274530053138733,0.04550942778587341
1772721343924060700,9.976060791015625,-0.0058795735239982605,-0.016416991129517555,0.038789913058280945
1772721343942657000,9.994656982421875,-0.010461059398949146,0.014431680552661419,0.009162971749901772
1772721343961253600,10.013253662109374,-0.009850194677710533,0.01718057133257389,-0.024434590712189674
1772721343979850000,10.03185009765625,-0.014126247726380825,0.014431680552661419,-0.007024944759905338
1772721343998446600,10.050446533203125,-0.007101302966475487,0.013515383005142212,0.01802051067352295
1772721344017043000,10.06904296875,0.0011453714687377214,0.004046979360282421,0.016798781231045723
1772721344035639600,10.0876396484375,0.004810560029000044,-0.03352120518684387,0.0015271619195118546
1772721344054236000,10.10623583984375,0.003283398225903511,-0.00847574882209301,0.011300998739898205
1772721344072832500,10.12483251953125,-0.0012980876490473747,0.003741546766832471,-0.000610864779446274
1772721344091428900,10.143428955078125,-0.0077121676877141,-0.009697478264570236,-0.016187917441129684
1772721344110025500,10.162025390625,-0.013209951110184193,-0.003283398225903511,0.014660755172371864
1772721344128621800,10.180621826171874,-0.012904518283903599,0.015042545273900032,0.02412915788590908
1772721344147218400,10.199218505859376,-0.013515383005142212,0.02237292192876339,-0.007330377586185932
1772721344165814800,10.217814697265625,-0.011988221667706966,0.008628465235233307,-0.01740964688360691
1772721344184411400,10.236411376953125,-0.004352411720901728,0.0006872228696011007,0.006108647678047419
1772721344203008000,10.255008056640625,-0.0016035200096666813,-0.00022907429956831038,0.012217295356094837
1772721344221604600,10.2736044921875,0.009392046369612217,0.004657844081521034,0.0021380267571657896
1772721344240201000,10.292200927734376,0.019471315667033195,0.008323032408952713,-0.014966187067329884
1772721344258797600,10.310797607421875,0.025274530053138733,0.024816380813717842,-0.01740964688360691
1772721344277394000,10.329393798828125,0.02130390889942646,0.005574141163378954,-0.01954767294228077
1772721344295990500,10.347990478515625,0.016416991129517555,0.004352411720901728,0.008246674202382565
1772721344314587100,10.366587158203124,0.018860450014472008,0.006490438245236874,0.019853105768561363
1772721344333183500,10.38518359375,0.01763872057199478,0.01870773360133171,-0.008246674202382565
1772721344351780000,10.403780029296875,0.0023671009112149477,0.011988221667706966,-0.05070177838206291
1772721344370376400,10.42237646484375,-0.007406735327094793,-0.010919207707047462,-0.03634645417332649
1772721344388973000,10.44097314453125,-0.0077121676877141,-0.009086613543331623,0.027488915249705315
1772721344407569700,10.459569580078124,-0.008323032408952713,-0.01977674663066864,0.03176496922969818
1772721344426166300,10.478166259765626,0.0005345066892914474,-0.02649625949561596,0.003665188793092966
1772721344444762600,10.4967626953125,0.011224640533328056,-0.026190826669335365,-0.006108647678047419
1772721344463359200,10.515359130859375,0.01611155830323696,-0.010919207707047462,-0.005192350596189499
1772721344481955800,10.533955810546875,0.017944153398275375,-0.00847574882209301,-0.02260199747979641
1772721344500552400,10.552552490234374,0.022525638341903687,-0.03107774630188942,-0.01588248461484909
1772721344519149000,10.571149169921876,0.01824958436191082,-0.03138317912817001,0.039706211537122726
1772721344537745400,10.589745361328125,0.017333287745714188,-0.017944153398275375,0.0412333719432354
1772721344556342000,10.608342041015625,0.012446369975805283,-0.011224640533328056,-0.01802051067352295
1772721344574938600,10.626938720703125,0.01183550525456667,-0.012446369975805283,-0.03329212963581085
1772721344593535200,10.64553515625,0.00755945174023509,0.0034361144062131643,0.016187917441129684
1772721344612131800,10.6641318359375,0.001450803829357028,-0.0035888305865228176,0.033597562462091446
1772721344630728200,10.682728271484375,0.0057268571108579636,-0.002061668550595641,0.026572618633508682
1772721344649324800,10.70132470703125,0.009392046369612217,-0.008170315995812416,0.0030543238390237093
1772721344667921400,10.71992138671875,0.00603228947147727,-0.0023671009112149477,-0.002443459117785096
1772721344686518000,10.73851806640625,-0.012293653562664986,0.019013166427612305,0.021380268037319183
1772721344705114600,10.757114501953126,-0.01870773360133171,0.011682788841426373,0.004886918235570192
1772721344723711200,10.775711181640625,-0.025732679292559624,0.019624030217528343,0.008552107028663158
1772721344742307800,10.794307861328125,-0.03825540840625763,0.017486004158854485,-0.006414080038666725
1772721344760904200,10.812904296875,-0.04069886729121208,0.024816380813717842,-0.028099779039621353
1772721344779500800,10.831500732421874,-0.06452259421348572,-0.0191658828407526,-0.014049889519810677
1772721344798097400,10.850097412109376,-0.06604975461959839,-0.05734493210911751,0.020769402384757996
1772721344816694000,10.868694091796876,-0.07673988491296768,-0.04329504072666168,0.07391463965177536
1772721344835290600,10.88729052734375,-0.06818778067827225,-0.03657552972435951,0.01954767294228077
1772721344853887200,10.90588720703125,-0.06879864633083344,-0.0527634471654892,-0.00946840364485979
