time,seconds_elapsed,z,y,x
1772720897497607400,0.083607421875,0,0,0
1772720897516203500,0.10220361328125,-0.011963844299316406,0.026257045567035675,-0.021159790456295013
1772720897534799600,0.120799560546875,0.0035886764526367188,0.007803641259670258,-0.003058306872844696
1772720897553396000,0.13939599609375,0.012134552001953125,-0.02252175658941269,0.026644006371498108
1772720897571992000,0.157991943359375,0.004253387451171875,0.023505799472332,0.0013898909091949463
1772720897590588200,0.176588134765625,9.5367431640625e-7,-0.019908614456653595,-0.00035640597343444824
1772720897609184500,0.1951845703125,0.010125160217285156,0.005495630204677582,-0.006851918995380402
1772720897627780600,0.213780517578125,-0.012759208679199219,0.002029217779636383,0.0028184130787849426
1772720897646376700,0.232376708984375,0.0076751708984375,0.00814676284790039,0.010429799556732178
1772720897664972800,0.250972900390625,-0.0027036666870117188,0.020497560501098633,0.00661797821521759
1772720897683569000,0.26956884765625,0.004391670227050781,-0.020145826041698456,-0.009291522204875946
1772720897702165200,0.288165283203125,-0.0005655288696289062,0.011310555040836334,-0.007278136909008026
1772720897720761300,0.30676123046875,-0.0028638839721679688,0.0012039914727210999,-0.0047737061977386475
1772720897739357400,0.325357421875,0.003994941711425781,0.0020828545093536377,0.0047974660992622375
1772720897757953500,0.34395361328125,0.011598587036132812,0.0066774263978004456,-0.010275289416313171
1772720897776550000,0.3625498046875,0.012163162231445312,-0.013192892074584961,0.010463327169418335
1772720897795146000,0.38114599609375,-0.0008649826049804688,0.007009364664554596,0.01478925347328186
1772720897813742000,0.3997421875,-0.0032405853271484375,-0.008228957653045654,-0.014546997845172882
1772720897832338200,0.418338134765625,-0.015093803405761719,0.011959172785282135,0.017402134835720062
1772720897850934500,0.4369345703125,0.003627777099609375,-0.021320074796676636,0.01548304408788681
1772720897869530600,0.455530517578125,-0.004834175109863281,-0.005612172186374664,0.008027464151382446
1772720897888126700,0.474126708984375,-0.005916595458984375,-0.0012825578451156616,-0.005886048078536987
1772720897906722800,0.492722900390625,-0.0034694671630859375,0.0032914429903030396,0.009539768099784851
1772720897925319000,0.51131884765625,0.009610176086425781,0.007876425981521606,-0.0034328699111938477
1772720897943915300,0.529915283203125,0.0036020278930664062,-0.005394928157329559,-0.012758128345012665
1772720897962511400,0.548511474609375,0.007167816162109375,0.005251012742519379,-0.005502276122570038
1772720897981107500,0.567107421875,0.009472846984863281,-0.0009968355298042297,-0.008965544402599335
1772720897999703600,0.58570361328125,-0.0046863555908203125,-0.007979266345500946,-0.00964193046092987
1772720898018299600,0.604299560546875,-0.0009746551513671875,-0.00796259194612503,-0.007090084254741669
1772720898036895700,0.622895751953125,0.001331329345703125,-0.006624139845371246,0.002756834030151367
1772720898055492000,0.6414921875,0.005894660949707031,0.000497773289680481,0.003626778721809387
1772720898074088200,0.660088134765625,-0.007182121276855469,-0.008962050080299377,-0.0011496618390083313
1772720898092684300,0.678684326171875,0.0010967254638671875,-0.003042161464691162,0.0013022944331169128
1772720898111280400,0.6972802734375,-0.0025463104248046875,0.0028801336884498596,0.012063577771186829
1772720898129876500,0.71587646484375,0.010461807250976562,-0.004538193345069885,0.00016819685697555542
1772720898148472800,0.734472900390625,0.0018815994262695312,0.0036696791648864746,0.0026227757334709167
1772720898167069000,0.75306884765625,-0.009984016418457031,-0.005922593176364899,0.013051562011241913
1772720898185665000,0.7716650390625,0.017032623291015625,-0.005852602422237396,0.004597723484039307
1772720898204261000,0.79026123046875,0.0025854110717773438,0.0024770498275756836,-0.004941225051879883
1772720898222857200,0.808857177734375,-0.0046367645263671875,0.0033381283283233643,0.0011837854981422424
1772720898241453600,0.82745361328125,0.0024585723876953125,0.006845317780971527,-0.01152472198009491
1772720898260049700,0.846049560546875,0.012729644775390625,-0.016758635640144348,-0.010322131216526031
1772720898278645800,0.864645751953125,0.0040740966796875,-0.010751448571681976,-0.001858346164226532
1772720898297241900,0.883241943359375,0.0038604736328125,-0.007021255791187286,0.01227174699306488
1772720898315838000,0.901837890625,0.00963592529296875,-0.006942957639694214,-0.007912658154964447
1772720898334434300,0.920434326171875,-0.015132904052734375,0.006156794726848602,-0.013414189219474792
1772720898353030400,0.939030517578125,0.0028791427612304688,-0.011707387864589691,-0.012029431760311127
1772720898371626500,0.95762646484375,0.0015087127685546875,-0.012654699385166168,0.0010686293244361877
1772720898390222600,0.97622265625,0.0025777816772460938,-0.00671115517616272,-0.00014977902173995972
1772720898408818700,0.994818603515625,0.0050029754638671875,-0.0018354877829551697,-0.002315506339073181
1772720898427415000,1.0134150390625,-0.00208282470703125,-0.012575656175613403,0.0001985207200050354
1772720898446011100,1.03201123046875,0.000396728515625,0.0006272494792938232,-0.0021085813641548157
1772720898464607200,1.050607177734375,0.0028743743896484375,0.004056982696056366,0.0038998425006866455
1772720898483203300,1.069203369140625,0.008975982666015625,-0.005282551050186157,-0.0018943920731544495
1772720898501799400,1.08779931640625,0.0043468475341796875,0.005184821784496307,0.00418824702501297
1772720898520395800,1.106395751953125,0.010203361511230469,-0.004630737006664276,-0.004176288843154907
1772720898538991900,1.124991943359375,0.008807182312011719,-0.004623338580131531,-0.0027538836002349854
1772720898557588000,1.143587890625,0.014498710632324219,0.010823123157024384,-0.007311888039112091
1772720898576184000,1.16218408203125,0.004921913146972656,-0.008430123329162598,-0.0014059841632843018
1772720898594780200,1.1807802734375,-0.005766868591308594,-0.01069767028093338,0.0009440034627914429
1772720898613376500,1.19937646484375,0.016561508178710938,-0.0071296244859695435,-0.008728869259357452
1772720898631972600,1.21797265625,-0.00490570068359375,-0.023631632328033447,-0.0001947060227394104
1772720898650568700,1.236568603515625,0.005785942077636719,0.010846629738807678,0.009012766182422638
1772720898669164800,1.255164794921875,0.0009279251098632812,-0.014124974608421326,-0.0031112954020500183
1772720898687761000,1.273760986328125,-0.00504302978515625,-0.010301671922206879,0.0074762701988220215
1772720898706357000,1.29235693359375,0.0022039413452148438,0.0037630870938301086,-0.005542226135730743
1772720898724953300,1.310953369140625,-0.007260322570800781,0.01184934377670288,0.005152814090251923
1772720898743549400,1.329549560546875,0.0057659149169921875,0.004547454416751862,-0.005525931715965271
1772720898762145500,1.3481455078125,0.0020875930786132812,-0.020310208201408386,-0.007765494287014008
1772720898780741600,1.36674169921875,-0.0037069320678710938,0.0012075677514076233,0.002911880612373352
1772720898799337700,1.385337646484375,0.0010232925415039062,-0.004793062806129456,0.004074029624462128
1772720898817934000,1.40393408203125,-0.006011009216308594,0.00828184187412262,-0.006592899560928345
1772720898836530200,1.4225302734375,-0.015282630920410156,0.011634759604930878,0.008822493255138397
1772720898855126300,1.441126220703125,0.010830879211425781,0.01115649938583374,0.002721242606639862
1772720898873722400,1.459722412109375,-0.005916595458984375,-0.003276333212852478,0.0005693361163139343
1772720898892318500,1.478318359375,0.0010833740234375,0.005870021879673004,0.006325133144855499
1772720898910914800,1.496914794921875,0.0057353973388671875,-0.002611011266708374,-0.003301180899143219
1772720898929511000,1.515510986328125,0.008095741271972656,0.002226114273071289,-0.008964374661445618
1772720898948107000,1.53410693359375,0.0020246505737304688,-0.015478730201721191,-0.0065361931920051575
1772720898966703000,1.552703125,0.0042133331298828125,-0.00006074458360671997,-0.0052124857902526855
1772720898985299200,1.57129931640625,-0.0067081451416015625,-0.016793176531791687,0.005410738289356232
1772720899003895300,1.589895263671875,0.003945350646972656,-0.0014082342386245728,-0.0007244274020195007
1772720899022491400,1.608491455078125,0.004874229431152344,-0.009908013045787811,-0.016110144555568695
1772720899041087700,1.627087646484375,-0.005756378173828125,-0.006393685936927795,0.0018895789980888367
1772720899059683800,1.645683837890625,-0.0046253204345703125,0.006538428366184235,-0.0016532018780708313
1772720899078280000,1.664280029296875,-0.0021162033081054688,-0.01147036999464035,0.010046318173408508
1772720899096876000,1.6828759765625,-0.0031633377075195312,-0.004167504608631134,-0.0008223354816436768
1772720899115472100,1.70147216796875,0.0098419189453125,-0.0028666555881500244,-0.004506923258304596
1772720899134068500,1.720068359375,-0.007793426513671875,-0.0008846297860145569,0.0004679486155509949
1772720899152664600,1.73866455078125,0.0004425048828125,-0.0008169040083885193,0.013489298522472382
1772720899171260700,1.7572607421875,0.0015277862548828125,-0.009172074496746063,0.009723544120788574
1772720899189856800,1.775856689453125,-0.0029916763305664062,-0.009489811956882477,-0.009247802197933197
1772720899208452900,1.794452880859375,0.003009796142578125,-0.007004775106906891,0.009737759828567505
1772720899227049200,1.81304931640625,-0.0102081298828125,-0.0106496661901474,0.0071741193532943726
1772720899245645300,1.831645263671875,-0.0076160430908203125,-0.0057424381375312805,0.002354137599468231
1772720899264241400,1.850241455078125,-0.013266563415527344,-0.0022275298833847046,0.019784480333328247
1772720899282837500,1.86883740234375,-0.010828971862792969,-0.008229367434978485,-0.001628577709197998
1772720899301433600,1.88743359375,-0.0047855377197265625,-0.012517109513282776,-0.008602216839790344
1772720899320029700,1.90602978515625,-0.00801849365234375,-0.0018417611718177795,-0.0025741755962371826
1772720899338625800,1.924625732421875,-0.010084152221679688,-0.02196672558784485,-0.010649122297763824
1772720899357222000,1.943221923828125,-0.0004968643188476562,0.003350459039211273,0.00836840271949768
1772720899375818200,1.961818359375,-0.006302833557128906,-0.002545006573200226,0.0036071762442588806
1772720899394414300,1.980414306640625,0.008023262023925781,0.003043457865715027,-0.004866898059844971
1772720899413010400,1.999010498046875,0.009955406188964844,-0.0007559806108474731,-0.009462028741836548
1772720899431606500,2.0176064453125,-0.00560760498046875,-0.005539193749427795,0.0012960657477378845
1772720899450202600,2.03620263671875,-0.008930206298828125,-0.004348956048488617,0.0023729652166366577
1772720899468798700,2.054798828125,0.006524085998535156,0.002714291214942932,0.0049658045172691345
1772720899487394800,2.073394775390625,0.0018367767333984375,-0.005439281463623047,-0.008019320666790009
1772720899505991200,2.0919912109375,0.005444526672363281,0.0006654635071754456,-0.0017564073204994202
1772720899524587300,2.110587158203125,0.007697105407714844,0.0006894543766975403,-0.0005174651741981506
1772720899543183400,2.129183349609375,0.007658958435058594,-0.003989741206169128,0.007562950253486633
1772720899561779500,2.147779541015625,-0.0042591094970703125,0.0008245110511779785,0.007440723478794098
1772720899580375600,2.16637548828125,-0.01600170135498047,0.001967698335647583,-0.015173092484474182
1772720899598971600,2.1849716796875,-0.0005893707275390625,-0.006066642701625824,0.0026011094450950623
1772720899617567700,2.203567626953125,-0.013588905334472656,-0.006035804748535156,-0.013887248933315277
1772720899636164000,2.2221640625,-0.0064544677734375,-0.002347603440284729,-0.0008387267589569092
1772720899654760200,2.24076025390625,-0.000476837158203125,-0.0035068094730377197,0.010754816234111786
1772720899673356300,2.259356201171875,-0.013422966003417969,-0.007008641958236694,-0.0059407055377960205
1772720899691952400,2.277952392578125,-0.0014286041259765625,-0.0033264905214309692,-0.0069544389843940735
1772720899710548500,2.296548583984375,0.0031290054321289062,0.00014603137969970703,0.003947310149669647
1772720899729144600,2.31514453125,0.0055179595947265625,0.010615058243274689,-0.0020481348037719727
1772720899747740700,2.33374072265625,0.0030202865600585938,-0.007015064358711243,-0.006545804440975189
1772720899766337000,2.3523369140625,-0.007430076599121094,-0.009301014244556427,-0.0003790929913520813
1772720899784933000,2.37093310546875,-0.005967140197753906,-0.005689069628715515,0.013556860387325287
1772720899803529200,2.389529296875,-0.009394645690917969,-0.00582335889339447,-0.0007248073816299438
1772720899822125300,2.408125244140625,-0.014102935791015625,-0.0033968091011047363,-0.004377745091915131
1772720899840721400,2.426721435546875,0.005011558532714844,0.00584159791469574,0.007531017065048218
1772720899859317500,2.4453173828125,0.009825706481933594,0.005694478750228882,-0.00568486750125885
1772720899877913600,2.46391357421875,0.00012874603271484375,0.010270833969116211,0.008380219340324402
1772720899896510000,2.482510009765625,-0.0057373046875,-0.000574648380279541,0.004764683544635773
1772720899915106000,2.50110595703125,-0.012662887573242188,-0.00047394633293151855,0.004910700023174286
1772720899933702100,2.5197021484375,0.012266159057617188,-0.008713841438293457,0.00011119991540908813
1772720899952298200,2.53829833984375,-0.008060455322265625,0.0029305145144462585,0.002533234655857086
1772720899970894300,2.556894287109375,0.0074214935302734375,-0.0019626617431640625,0.009658820927143097
1772720899989490400,2.575490478515625,0.007273674011230469,0.007492661476135254,-0.010591663420200348
1772720900008086500,2.59408642578125,0.0011911392211914062,-0.006653793156147003,-0.0021924078464508057
1772720900026682600,2.6126826171875,-0.010690689086914062,-0.0009088814258575439,0.0037926286458969116
1772720900045278700,2.63127880859375,-0.009393692016601562,-0.003270551562309265,-0.010203763842582703
1772720900063874800,2.649874755859375,-0.01033782958984375,-0.01837136596441269,0.00618666410446167
1772720900082471200,2.66847119140625,0.015555381774902344,-0.0004321634769439697,0.010854512453079224
1772720900101067300,2.6870673828125,0.008159637451171875,-0.0004670768976211548,0.006960339844226837
1772720900119663400,2.705663330078125,-0.002658843994140625,-0.005174323916435242,-0.0012291371822357178
1772720900138259500,2.724259521484375,-0.001491546630859375,-0.012039609253406525,0.004883415997028351
1772720900156855600,2.74285546875,-0.0025196075439453125,0.005719296634197235,0.0022502467036247253
1772720900175451600,2.76145166015625,-0.0011434555053710938,-0.0005226433277130127,0.00321342796087265
1772720900194047700,2.7800478515625,0.008327484130859375,-0.013381056487560272,-0.008436508476734161
1772720900212643800,2.798643798828125,0.010622024536132812,-0.008272670209407806,-0.013823278248310089
1772720900231240000,2.817239990234375,0.0008392333984375,-0.004872046411037445,0.004010915756225586
1772720900249836300,2.835836181640625,0.005401611328125,0.0020227357745170593,0.005045041441917419
1772720900268432100,2.85443212890625,0.0111083984375,-0.012045301496982574,-0.0020109862089157104
1772720900287028500,2.873028564453125,0.0060749053955078125,0.0011197105050086975,0.0002630949020385742
1772720900305624600,2.89162451171875,0.013071060180664062,0.0010300949215888977,-0.010410450398921967
1772720900324220700,2.910220703125,0.01738452911376953,0.00808076560497284,-0.009335502982139587
1772720900342816800,2.928816650390625,0.021750450134277344,-0.009831450879573822,-0.013860896229743958
1772720900361412900,2.947412841796875,0.011737823486328125,0.003506995737552643,-0.004955597221851349
1772720900380009000,2.966009033203125,-0.00023937225341796875,-0.0012958347797393799,0.009122908115386963
1772720900398605000,2.98460498046875,0.0031604766845703125,0.001172967255115509,0.006433665752410889
1772720900417201400,3.003201416015625,0.007782936096191406,0.0013411417603492737,-0.002162054181098938
1772720900435797200,3.02179736328125,0.012251853942871094,-0.001997828483581543,-0.003178536891937256
1772720900454393300,3.040393310546875,0.011789321899414062,-0.0008987709879875183,-0.0031517595052719116
1772720900472989700,3.05898974609375,0.014830589294433594,0.002693958580493927,0.005023203790187836
1772720900491585800,3.077585693359375,0.009438514709472656,-0.014920927584171295,0.006059072911739349
1772720900510182000,3.096181884765625,0.013894081115722656,0.011321566998958588,-0.000008083879947662354
1772720900528778000,3.114778076171875,0.019102096557617188,-0.004262387752532959,0.006005331873893738
1772720900547374000,3.1333740234375,0.004431724548339844,-0.011135891079902649,0.011956237256526947
1772720900565970200,3.15197021484375,0.019402503967285156,-0.00044423341751098633,0.0046476274728775024
1772720900584566300,3.170566162109375,0.011605262756347656,-0.0028433948755264282,-0.010552890598773956
1772720900603162600,3.18916259765625,0.02059650421142578,-0.0020813271403312683,-0.004450306296348572
1772720900621758700,3.2077587890625,0.016388893127441406,-0.0032262951135635376,0.0014578551054000854
1772720900640354800,3.226354736328125,0.02410602569580078,-0.01030130684375763,-0.0008681938052177429
1772720900658951000,3.244950927734375,0.015271186828613281,-0.01026923954486847,0.00035362690687179565
1772720900677547000,3.263547119140625,0.01941394805908203,-0.02439425140619278,-0.011700458824634552
1772720900696143000,3.28214306640625,0.021104812622070312,0.004264704883098602,0.0036401376128196716
1772720900714739200,3.3007392578125,0.02044677734375,-0.01577698439359665,-0.0060326531529426575
1772720900733335600,3.31933544921875,0.006909370422363281,-0.00719568133354187,0.0024291500449180603
1772720900751931600,3.337931640625,0.007662773132324219,-0.016414478421211243,0.0012403503060340881
1772720900770527700,3.35652783203125,0.016782760620117188,-0.002430565655231476,0.023345425724983215
1772720900789123800,3.375123779296875,0.013798713684082031,-0.0070308297872543335,-0.001661442220211029
1772720900807720000,3.393719970703125,0.02146148681640625,-0.0011451393365859985,0.012347295880317688
1772720900826316300,3.41231640625,0.015027999877929688,-0.006019122898578644,0.002560347318649292
1772720900844912400,3.430912353515625,0.012082099914550781,-0.006038248538970947,0.0061429813504219055
1772720900863508500,3.449508544921875,0.017683029174804688,-0.010690569877624512,0.004843920469284058
1772720900882104600,3.4681044921875,0.01613903045654297,-0.004490792751312256,-0.0021931082010269165
1772720900900701000,3.486700927734375,0.023706436157226562,0.0013307854533195496,0.015512265264987946
1772720900919297000,3.505297119140625,0.0091400146484375,-0.009345956146717072,0.008365079760551453
1772720900937893000,3.52389306640625,0.0052318572998046875,0.002285771071910858,0.005916565656661987
1772720900956489200,3.5424892578125,0.020040512084960938,-0.02470102161169052,-0.00007013976573944092
1772720900975085600,3.56108544921875,0.01363372802734375,-0.007777713239192963,-0.0038796663284301758
1772720900993681700,3.579681640625,0.00626373291015625,-0.012424975633621216,-0.008291773498058319
1772720901012277800,3.59827783203125,0.004920005798339844,-0.008718058466911316,-0.0010643601417541504
1772720901030874000,3.6168740234375,0.007267951965332031,0.0006731599569320679,0.000001862645149230957
1772720901049470200,3.63547021484375,0.010497093200683594,-0.00991164892911911,0.011908963322639465
1772720901068066300,3.65406640625,0.000659942626953125,0.0030029937624931335,0.0021558403968811035
1772720901086662400,3.672662353515625,0.00528717041015625,-0.0007172301411628723,-0.014231301844120026
1772720901105258800,3.6912587890625,0.0053272247314453125,-0.008731871843338013,0.005815528333187103
1772720901123854800,3.709854736328125,0.00044727325439453125,-0.007299959659576416,-0.0002185329794883728
1772720901142451000,3.728450927734375,0.014336585998535156,-0.010758429765701294,0.005589738488197327
1772720901161047300,3.74704736328125,-0.01876354217529297,-0.016490794718265533,-0.009801797568798065
1772720901179643400,3.765643310546875,0.0003662109375,0.002554379403591156,0.002107173204421997
1772720901198239500,3.784239501953125,0.006178855895996094,0.008421532809734344,-0.0005026161670684814
1772720901216835800,3.8028359375,0.0072689056396484375,0.00008336454629898071,0.011106587946414948
1772720901235432000,3.821431884765625,-0.0022258758544921875,-0.00015985965728759766,-0.0019697099924087524
1772720901254028000,3.840028076171875,-0.0023679733276367188,-0.0015138909220695496,-0.010260604321956635
1772720901272624400,3.858624267578125,0.008122444152832031,0.004380233585834503,-0.0031475573778152466
1772720901291220500,3.877220458984375,0.00556182861328125,-0.0005521476268768311,0.006352461874485016
1772720901309816600,3.895816650390625,0.0077915191650390625,-0.007649131119251251,0.007519543170928955
1772720901328413000,3.914412841796875,-0.005367279052734375,0.004251435399055481,0.0003303736448287964
1772720901347009000,3.933009033203125,-0.0030307769775390625,0.0005445107817649841,-0.0030983760952949524
1772720901365605000,3.951605224609375,-0.013242721557617188,0.0003957971930503845,0.007561735808849335
1772720901384201500,3.970201416015625,0.0048046112060546875,0.011082693934440613,-0.009106531739234924
1772720901402797600,3.988797607421875,-0.014096260070800781,-0.0008696466684341431,0.009988144040107727
1772720901421393700,4.0073935546875,-0.007862091064453125,-0.019986093044281006,0.002912066876888275
1772720901439990000,4.025989990234375,0.005337715148925781,-0.007887952029705048,0.0004826188087463379
1772720901458586000,4.044586181640625,-0.008915901184082031,0.00497310608625412,-0.007931269705295563
1772720901477182200,4.06318212890625,-0.015758514404296875,-0.012408293783664703,-0.012589588761329651
1772720901495778600,4.081778564453125,-0.00008106231689453125,-0.005224019289016724,-0.007802985608577728
1772720901514374700,4.100374755859375,0.00959014892578125,-0.00763731449842453,-0.0018888488411903381
1772720901532971000,4.118970947265625,0.00939178466796875,0.0009105131030082703,-0.008983135223388672
1772720901551567000,4.137567138671875,-0.0012102127075195312,-0.0015756413340568542,-0.00897534191608429
1772720901570163500,4.15616357421875,-0.0034646987915039062,0.002075478434562683,0.010280512273311615
1772720901588759600,4.174759521484375,0.01416015625,-0.008800588548183441,0.013658612966537476
1772720901607355600,4.193355712890625,-0.0011892318725585938,-0.0015617385506629944,-0.01106678694486618
1772720901625952000,4.211951904296875,-0.005618095397949219,-0.007758818566799164,-0.001279592514038086
1772720901644548000,4.230548095703125,-0.003078460693359375,-0.0006608963012695312,0.0034546181559562683
1772720901663144400,4.24914453125,-0.011252403259277344,0.005021646618843079,0.004631020128726959
1772720901681740500,4.267740478515625,-0.01215362548828125,-0.004335343837738037,-0.000050649046897888184
1772720901700337000,4.2863369140625,-0.0035724639892578125,-0.00689224898815155,-0.009354032576084137
1772720901718933000,4.30493310546875,0.0024881362915039062,-0.006665222346782684,-0.012730464339256287
1772720901737529000,4.323529052734375,-0.0067501068115234375,-0.001944996416568756,0.006107412278652191
1772720901756125400,4.34212548828125,0.0006284713745117188,-0.0065612345933914185,-0.0010707825422286987
1772720901774721500,4.360721435546875,-0.0064487457275390625,0.008862875401973724,-0.0021720007061958313
1772720901793318000,4.37931787109375,-0.008565902709960938,0.0004706159234046936,0.007007919251918793
1772720901811914000,4.3979140625,-0.004947662353515625,0.003938399255275726,-0.004926376044750214
1772720901830510300,4.41651025390625,-0.013115882873535156,-0.004666849970817566,-0.0025183558464050293
1772720901849106400,4.4351064453125,-0.018721580505371094,-0.0031890496611595154,-0.001077122986316681
1772720901867702500,4.45370263671875,-0.010082244873046875,-0.0020343363285064697,-0.003287985920906067
1772720901886299000,4.472298828125,0.004193305969238281,0.0037224069237709045,-0.0021113231778144836
1772720901904895000,4.49089501953125,0.001918792724609375,-0.006144195795059204,-0.007837273180484772
1772720901923491300,4.5094912109375,-0.0014944076538085938,0.009021632373332977,-0.014797478914260864
1772720901942087400,4.52808740234375,-0.0038557052612304688,-0.0026990845799446106,0.009064830839633942
1772720901960683800,4.546683837890625,-0.0012559890747070312,-0.0006691440939903259,0.006829932332038879
1772720901979280000,4.56527978515625,0.0023756027221679688,0.0016214549541473389,-0.0002973824739456177
1772720901997876000,4.5838759765625,0.00600433349609375,-0.001992359757423401,0.004586182534694672
1772720902016472300,4.602472412109375,-0.0000762939453125,-0.0008551627397537231,0.01623665541410446
1772720902035068700,4.621068603515625,-0.0058956146240234375,-0.005745880305767059,-0.003980562090873718
1772720902053664800,4.639664794921875,-0.006934165954589844,0.011860810220241547,0.006689317524433136
1772720902072260900,4.6582607421875,-0.008998870849609375,-0.0013616308569908142,0.002939842641353607
1772720902090857200,4.676857177734375,-0.0029153823852539062,-0.003737911581993103,-0.0006310418248176575
1772720902109453300,4.695453369140625,-0.008740425109863281,0.004517287015914917,0.015688762068748474
1772720902128049700,4.714049560546875,-0.010764122009277344,-0.01316753774881363,0.005998790264129639
1772720902146645800,4.732645751953125,-0.010465621948242188,0.012749262154102325,-0.002559155225753784
1772720902165242000,4.7512421875,-0.012471199035644531,0.0016915872693061829,0.002428963780403137
1772720902183838200,4.769838134765625,-0.011056900024414062,-0.0029476359486579895,0.008246108889579773
1772720902202434300,4.788434326171875,0.006640434265136719,-0.014511115849018097,-0.0036257654428482056
1772720902221030700,4.80703076171875,0.0041103363037109375,-0.006166912615299225,-0.002380058169364929
1772720902239627000,4.825626953125,-0.0028886795043945312,-0.006352879106998444,0.0024452805519104004
1772720902258223000,4.84422314453125,-0.007205009460449219,-0.01220335066318512,-0.009237848222255707
1772720902276819200,4.862819091796875,-0.011749267578125,0.01133272796869278,0.0013401582837104797
1772720902295415600,4.88141552734375,-0.012556076049804688,0.005175329744815826,-0.007169902324676514
1772720902314011600,4.90001171875,-0.007433891296386719,-0.0008953511714935303,-0.0009463950991630554
1772720902332608000,4.91860791015625,-0.009442329406738281,-0.004377372562885284,0.003831341862678528
1772720902351204000,4.9372041015625,-0.02214813232421875,0.005079373717308044,0.006290994584560394
1772720902369800400,4.955800537109375,-0.006316184997558594,-0.012587837874889374,-0.007770061492919922
1772720902388396500,4.974396484375,-0.014321327209472656,-0.004164904356002808,-0.003962621092796326
1772720902406992600,4.99299267578125,0.00026798248291015625,-0.006445169448852539,0.001921631395816803
1772720902425589000,5.011589111328125,-0.0137786865234375,-0.011021167039871216,-0.004167959094047546
1772720902444185000,5.03018505859375,-0.012265205383300781,-0.008810870349407196,0.00874008983373642
1772720902462781400,5.048781494140625,-0.008427619934082031,-0.003939270973205566,0.013351425528526306
1772720902481377500,5.06737744140625,0.0036945343017578125,-0.0048696547746658325,-0.0032645612955093384
1772720902499974000,5.085973876953125,-0.005602836608886719,0.004439748823642731,-0.0007435157895088196
1772720902518570000,5.104570068359375,-0.013632774353027344,-0.006299838423728943,-0.005638428032398224
1772720902537166000,5.123166015625,-0.005143165588378906,-0.010819055140018463,0.009841032326221466
1772720902555762400,5.141762451171875,-0.00026607513427734375,-0.004671312868595123,0.0037368014454841614
1772720902574358800,5.16035888671875,-0.004864692687988281,-0.003709547221660614,0.0002976059913635254
1772720902592955000,5.178954833984375,0.00139617919921875,-0.00016070902347564697,0.01116769015789032
1772720902611551000,5.197551025390625,-0.00333404541015625,-0.01899649202823639,0.003913015127182007
1772720902630147300,5.216147216796875,-0.0008897781372070312,0.000034324824810028076,0.0016281604766845703
1772720902648743400,5.234743408203125,-0.010212898254394531,-0.0037861764430999756,-0.0031528472900390625
1772720902667339800,5.25333984375,-0.012442588806152344,0.0104631707072258,0.0020002275705337524
1772720902685935900,5.271935791015625,-0.00024700164794921875,-0.00988411158323288,0.006856553256511688
1772720902704532200,5.2905322265625,-0.00374603271484375,-0.007562421262264252,0.009189017117023468
1772720902723128300,5.30912841796875,0.006985664367675781,-0.0025490298867225647,-0.010897226631641388
1772720902741724400,5.327724365234375,-0.00730133056640625,-0.013127528131008148,-0.009358011186122894
1772720902760320800,5.34632080078125,-0.010450363159179688,0.011666662991046906,-0.0009140446782112122
1772720902778916900,5.364916748046875,-0.0029287338256835938,0.0007617920637130737,0.010905392467975616
1772720902797513200,5.38351318359375,-0.0040073394775390625,0.0018099099397659302,-0.003512352705001831
1772720902816109300,5.402109375,-0.0027360916137695312,-0.019653737545013428,-0.005755111575126648
1772720902834705700,5.42070556640625,-0.012997627258300781,0.005363829433917999,0.003651939332485199
1772720902853301800,5.4393017578125,-0.011506080627441406,0.0004387274384498596,-0.01071999967098236
1772720902871897900,5.45789794921875,-0.008810997009277344,-0.004342883825302124,0.004681535065174103
1772720902890494200,5.476494140625,0.00567626953125,0.0005050897598266602,-0.0059095993638038635
1772720902909090300,5.49509033203125,0.004509925842285156,0.0006667599081993103,0.009188808500766754
1772720902927686700,5.513686767578125,-0.008520126342773438,-0.025524459779262543,0.0029516220092773438
1772720902946282800,5.53228271484375,-0.014080047607421875,0.0065136924386024475,0.005408167839050293
1772720902964879000,5.550879150390625,0.001621246337890625,-0.0032959654927253723,-0.0007548108696937561
1772720902983475200,5.56947509765625,-0.006667137145996094,-0.011450126767158508,0.0029237642884254456
1772720903002071300,5.5880712890625,-0.00048542022705078125,-0.0019635558128356934,-0.007893219590187073
1772720903020667600,5.606667724609375,0.005413055419921875,0.00484061986207962,-0.0030899494886398315
1772720903039263700,5.625263671875,0.008863449096679688,-0.015152044594287872,0.007773488759994507
1772720903057859800,5.64385986328125,0.005199432373046875,0.0016169995069503784,-0.005244217813014984
1772720903076456200,5.662456298828125,0.0004405975341796875,-0.012645453214645386,0.005291901528835297
1772720903095052300,5.68105224609375,-0.0005741119384765625,0.0005407333374023438,-0.007862254977226257
1772720903113648600,5.699648681640625,0.0003490447998046875,0.004011556506156921,0.009994573891162872
1772720903132244700,5.71824462890625,0.00027942657470703125,-0.006886087357997894,0.012046180665493011
1772720903150841000,5.736841064453125,-0.0020036697387695312,0.008359812200069427,-0.007071204483509064
1772720903169437200,5.755437255859375,-0.0032110214233398438,-0.003469809889793396,-0.0034701451659202576
1772720903188033300,5.774033203125,-0.010300636291503906,-0.008266478776931763,-0.006832689046859741
1772720903206629600,5.792629638671875,0.000530242919921875,-0.00106889009475708,0.0028691664338111877
1772720903225225700,5.811225830078125,-0.011211395263671875,-0.002337321639060974,-0.0007072240114212036
1772720903243821800,5.82982177734375,-0.007645606994628906,-0.00221165269613266,-0.004282772541046143
1772720903262418200,5.848418212890625,-0.004136085510253906,0.00009977072477340698,-0.0018575042486190796
1772720903281014300,5.86701416015625,-0.018215179443359375,-0.0045323446393013,0.003672301769256592
1772720903299610400,5.8856103515625,0.013841629028320312,-0.015188604593276978,-0.012731529772281647
1772720903318206700,5.904206787109375,-0.0028133392333984375,0.005192101001739502,-0.00684124231338501
1772720903336802800,5.922802734375,0.0031032562255859375,0.019132018089294434,-0.000817619264125824
1772720903355399000,5.94139892578125,-0.007643699645996094,-0.009594999253749847,-0.013757355511188507
1772720903373995300,5.959995361328125,-0.009979248046875,-0.01420796662569046,0.0017543286085128784
1772720903392591400,5.97859130859375,-0.003924369812011719,0.0025359466671943665,-0.013541065156459808
1772720903411187700,5.997187744140625,0.006931304931640625,-0.011588670313358307,-0.012073181569576263
1772720903429783800,6.01578369140625,0.0022525787353515625,-0.0021770596504211426,0.0020756274461746216
1772720903448380200,6.034380126953125,0.0021200180053710938,-0.021160423755645752,-0.0109793022274971
1772720903466976300,6.052976318359375,-0.000438690185546875,-0.00916929543018341,0.008140191435813904
1772720903485572400,6.071572265625,-0.003795623779296875,-0.006852410733699799,-0.003636881709098816
1772720903504168400,6.09016845703125,-0.0049648284912109375,-0.006696663796901703,0.011774860322475433
1772720903522764800,6.108764892578125,0.004691123962402344,-0.02200276404619217,-0.010815665125846863
1772720903541361000,6.12736083984375,-0.0035619735717773438,-0.007693231105804443,-0.008308947086334229
1772720903559957000,6.14595703125,-0.0023260116577148438,-0.005370907485485077,-0.0009073019027709961
1772720903578553300,6.16455322265625,0.0046749114990234375,-0.0063786581158638,-0.01035413146018982
1772720903597149400,6.1831494140625,-0.004794120788574219,-0.0004778429865837097,-0.018358953297138214
1772720903615745500,6.20174560546875,-0.007163047790527344,-0.006377324461936951,0.0021429136395454407
1772720903634342000,6.220341796875,0.0010538101196289062,-0.01934797316789627,0.004421435296535492
1772720903652938000,6.23893798828125,-0.0034685134887695312,-0.007102049887180328,-0.0014921501278877258
1772720903671534000,6.2575341796875,-0.0021572113037109375,0.002370104193687439,0.0022055432200431824
1772720903690130400,6.27613037109375,-0.009202003479003906,-0.005003385245800018,0.008118197321891785
1772720903708726500,6.2947265625,0.0038690567016601562,0.00904795527458191,-0.009523741900920868
1772720903727322600,6.313322509765625,0.010881423950195312,-0.007906660437583923,-0.008265204727649689
1772720903745919000,6.3319189453125,-0.004593849182128906,0.0003625229001045227,0.007429666817188263
1772720903764515000,6.35051513671875,-0.011576652526855469,-0.0019340962171554565,0.013255082070827484
1772720903783111400,6.369111328125,-0.0018606185913085938,0.0063959285616874695,0.009477682411670685
1772720903801707500,6.38770751953125,0.006241798400878906,-0.004118703305721283,0.000016689300537109375
1772720903820303600,6.4063037109375,0.010822296142578125,-0.007634483277797699,0.01643681526184082
1772720903838900000,6.42489990234375,-0.009496688842773438,-0.005250975489616394,0.01701275259256363
1772720903857496000,6.44349609375,-0.01973247528076172,-0.0005223825573921204,-0.0009833872318267822
1772720903876092200,6.462092041015625,-0.0007266998291015625,0.0005679130554199219,-0.002059169113636017
1772720903894688500,6.4806884765625,-0.0018787384033203125,-0.018604539334774017,0.006221510469913483
1772720903913284600,6.49928466796875,0.0003814697265625,0.0003938749432563782,-0.004348047077655792
1772720903931880700,6.517880615234375,-0.0043964385986328125,-0.004253029823303223,-0.010046131908893585
1772720903950477000,6.53647705078125,0.0036134719848632812,-0.0008175298571586609,0.0019046440720558167
1772720903969073200,6.5550732421875,0.00008392333984375,-0.011399492621421814,0.01688200980424881
1772720903987669500,6.57366943359375,-0.003330230712890625,0.0050630271434783936,-0.010717853903770447
1772720904006265600,6.592265625,0.004920005798339844,-0.018556170165538788,-0.004405461251735687
1772720904024861700,6.61086181640625,-0.0024585723876953125,-0.00745033472776413,0.003848046064376831
1772720904043458000,6.6294580078125,-0.0023956298828125,-0.008710823953151703,-0.006736531853675842
1772720904062054100,6.64805419921875,-0.0046482086181640625,0.011461123824119568,0.007706724107265472
1772720904080650200,6.666650146484375,0.00836944580078125,0.01442912220954895,-0.00662628561258316
1772720904099246600,6.68524658203125,-0.0000438690185546875,-0.009347312152385712,0.008802220225334167
1772720904117842700,6.7038427734375,-0.004767417907714844,-0.0046797096729278564,-0.003283761441707611
1772720904136438800,6.722438720703125,-0.005532264709472656,0.007066003978252411,0.000026278197765350342
1772720904155035100,6.74103515625,0.0052204132080078125,-0.0011295154690742493,0.016451135277748108
1772720904173631200,6.75963134765625,-0.0041866302490234375,-0.0022969767451286316,0.013968035578727722
1772720904192227300,6.778227294921875,0.0028543472290039062,0.001122497022151947,-0.005229435861110687
1772720904210823700,6.79682373046875,-0.012612342834472656,-0.00832802802324295,0.004356302320957184
1772720904229419800,6.815419677734375,-0.0017833709716796875,0.0023771822452545166,-0.005032502114772797
1772720904248016000,6.834015869140625,-0.0017042160034179688,-0.010866343975067139,0.0010495111346244812
1772720904266612000,6.852612060546875,0.0019426345825195312,-0.007030881941318512,-0.01324724406003952
1772720904285208300,6.871208251953125,0.007975578308105469,-0.010421864688396454,-0.004666708409786224
1772720904303804400,6.889804443359375,0.00908660888671875,-0.0034168660640716553,0.009382113814353943
1772720904322400500,6.908400390625,-0.008839607238769531,-0.011466704308986664,-0.002605438232421875
1772720904340996900,6.926996826171875,-0.005173683166503906,-0.007718868553638458,-0.00017561763525009155
1772720904359593000,6.945593017578125,0.0020189285278320312,-0.01574733853340149,0.010251551866531372
1772720904378189000,6.96418896484375,-0.007496833801269531,-0.005140073597431183,0.006648048758506775
1772720904396785200,6.98278515625,-0.013091087341308594,0.0018412470817565918,-0.016781799495220184
1772720904415381500,7.001381591796875,0.00016498565673828125,-0.006580062210559845,0.018814757466316223
1772720904433977600,7.0199775390625,-0.008056640625,-0.004080913960933685,0.003121010959148407
1772720904452573700,7.03857373046875,-0.0032014846801757812,-0.009053178131580353,-0.004016697406768799
1772720904471170000,7.057170166015625,-0.012407302856445312,-0.005684778094291687,-0.0074315741658210754
1772720904489766100,7.07576611328125,-0.0097808837890625,-0.0009179040789604187,0.008937619626522064
1772720904508362200,7.0943623046875,0.0031709671020507812,-0.002179183065891266,0.008705243468284607
1772720904526958600,7.11295849609375,0.0008907318115234375,-0.01384928822517395,-0.002019837498664856
1772720904545554700,7.1315546875,-0.0061016082763671875,0.009836308658123016,-0.01722046732902527
1772720904564150800,7.15015087890625,-0.0069980621337890625,0.0013151243329048157,-0.00414334237575531
1772720904582747100,7.1687470703125,0.0011959075927734375,0.009545184671878815,0.00981120765209198
1772720904601343200,7.18734326171875,-0.009312629699707031,0.0011473000049591064,0.0046647414565086365
1772720904619939300,7.205939208984375,-0.008983612060546875,-0.012946471571922302,-0.02250388264656067
1772720904638535400,7.224535400390625,-0.004059791564941406,0.006323091685771942,-0.00923745334148407
1772720904657131800,7.2431318359375,0.0030355453491210938,0.0025995150208473206,0.006105475127696991
1772720904675728000,7.261727783203125,0.0008182525634765625,-0.004525028169155121,0.020071163773536682
1772720904694324000,7.280323974609375,-0.008463859558105469,-0.01948578655719757,0.0021079033613204956
1772720904712920000,7.298920166015625,0.009542465209960938,0.003231741487979889,-0.00639643520116806
1772720904731516200,7.31751611328125,0.0023069381713867188,0.0007759854197502136,-0.006361939013004303
1772720904750112500,7.336112548828125,-0.015202522277832031,0.01276223361492157,-0.005018614232540131
1772720904768708600,7.35470849609375,-0.0005826950073242188,-0.011051848530769348,-0.003818914294242859
1772720904787304700,7.3733046875,0.009870529174804688,-0.012050904333591461,-0.0014784634113311768
1772720904805901000,7.391901123046875,0.0025625228881835938,-0.003943778574466705,-0.010833069682121277
1772720904824497200,7.4104970703125,-0.009069442749023438,-0.005205340683460236,-0.0036375001072883606
1772720904843093200,7.42909326171875,0.00301361083984375,0.01495794951915741,-0.00010411441326141357
1772720904861689300,7.447689453125,-0.0008306503295898438,-0.0123576819896698,0.003520183265209198
1772720904880285700,7.46628564453125,-0.001918792724609375,-0.01471109688282013,0.009456835687160492
1772720904898881800,7.4848818359375,-0.00032520294189453125,-0.00980713963508606,-0.0032583922147750854
1772720904917478000,7.503477783203125,-0.007293701171875,-0.011916689574718475,0.00844641774892807
1772720904936074000,7.522073974609375,-0.006130218505859375,-0.005785256624221802,-0.003595396876335144
1772720904954670300,7.54067041015625,0.007917404174804688,-0.010477788746356964,-0.014102868735790253
1772720904973266400,7.559266357421875,0.0054607391357421875,0.0002800077199935913,-0.000921890139579773
1772720904991862500,7.577862548828125,0.0006933212280273438,-0.00455300509929657,-0.0030821412801742554
1772720905010458600,7.596458740234375,0.0007495880126953125,-0.0008727610111236572,0.009692825376987457
1772720905029054700,7.6150546875,-0.0026874542236328125,-0.01036176085472107,0.0014349967241287231
1772720905047651000,7.633651123046875,0.0115203857421875,0.009839527308940887,-0.008010044693946838
1772720905066247200,7.6522470703125,-0.007664680480957031,-0.0020426958799362183,0.006041727960109711
1772720905084843300,7.67084326171875,-0.006351470947265625,0.002502746880054474,2.682209014892578e-7
1772720905103439600,7.689439697265625,-0.006257057189941406,-0.010467424988746643,-0.00586467981338501
1772720905122035700,7.70803564453125,-0.004929542541503906,-0.003257855772972107,0.008402414619922638
1772720905140631800,7.7266318359375,0.0034503936767578125,-0.010500110685825348,-0.01523967832326889
1772720905159228000,7.745227783203125,-0.0072307586669921875,-0.006797619163990021,-0.004331044852733612
1772720905177824000,7.763823974609375,-0.0070095062255859375,0.002410322427749634,0.00030728429555892944
1772720905196420400,7.78242041015625,-0.0019931793212890625,-0.0021674931049346924,0.0023384541273117065
1772720905215016400,7.801016357421875,0.016898155212402344,0.008451379835605621,-0.0036088302731513977
1772720905233612500,7.819612548828125,0.0036535263061523438,-0.006870076060295105,0.00214550644159317
1772720905252208600,7.838208740234375,0.0058879852294921875,0.0013026297092437744,-0.006075896322727203
1772720905270804700,7.8568046875,0.0012054443359375,-0.00708732008934021,-0.005819164216518402
1772720905289401000,7.875401123046875,-0.008342742919921875,-0.001269996166229248,0.0050492435693740845
1772720905307997200,7.8939970703125,-0.005928993225097656,-0.00011537224054336548,-0.0018652230501174927
1772720905326593300,7.91259326171875,0.0024461746215820312,0.004334606230258942,0.0015195086598396301
1772720905345189400,7.931189453125,-0.011593818664550781,-0.002957478165626526,-0.010175645351409912
1772720905363785500,7.949785400390625,0.0062408447265625,0.003927052021026611,0.01082456111907959
1772720905382381800,7.9683818359375,0.008485794067382812,0.00040090829133987427,-0.008448421955108643
1772720905400978000,7.98697802734375,0.006167411804199219,-0.01484324038028717,-0.0011316314339637756
1772720905419574000,8.005573974609375,-0.0021142959594726562,-0.0027880296111106873,-0.005904525518417358
1772720905438170000,8.024170166015624,-0.002044677734375,-0.006332561373710632,0.004574678838253021
1772720905456766200,8.04276611328125,-0.004290580749511719,0.0022703707218170166,-0.006160557270050049
1772720905475362300,8.0613623046875,-0.0051860809326171875,0.0008963868021965027,-0.0011244714260101318
1772720905493958700,8.079958740234375,-0.005288124084472656,0.00892087072134018,0.0003569275140762329
1772720905512554800,8.0985546875,-0.006289482116699219,-0.004198044538497925,-0.009072542190551758
1772720905531150800,8.11715087890625,0.00909423828125,-0.021917954087257385,-0.0030256956815719604
1772720905549747000,8.135746826171875,-0.011185646057128906,-0.017899073660373688,-0.0042179301381111145
1772720905568343000,8.154343017578125,-0.00040435791015625,0.006025344133377075,0.0005621537566184998
1772720905586939400,8.172939453125,-0.005135536193847656,-0.003767050802707672,0.007646813988685608
1772720905605535200,8.19153515625,-0.007433891296386719,-0.011752061545848846,0.006258882582187653
1772720905624131600,8.210131591796875,-0.00032711029052734375,0.0015414580702781677,-0.003286309540271759
1772720905642727700,8.228727783203125,-0.0039215087890625,0.006135806441307068,0.011019647121429443
1772720905661323800,8.24732373046875,0.003345489501953125,-0.0001777857542037964,0.0013315603137016296
1772720905679919900,8.265919921875,-0.009782791137695312,0.0030665025115013123,-0.012820474803447723
1772720905698516000,8.284515869140625,0.0032100677490234375,0.012241698801517487,0.008485376834869385
1772720905717112300,8.3031123046875,-0.006327629089355469,0.0073607563972473145,-0.012970499694347382
1772720905735708400,8.32170849609375,-0.006197929382324219,-0.0007510483264923096,0.007032796740531921
1772720905754304500,8.340304443359376,0.00234222412109375,-0.011355191469192505,0.0025188252329826355
1772720905772900600,8.358900634765625,0.009404182434082031,0.0014734268188476562,0.006036162376403809
1772720905791496700,8.37749658203125,0.004624366760253906,-0.010238274931907654,0.0011992380023002625
1772720905810092800,8.3960927734375,0.0045318603515625,-0.012496739625930786,0.0037497282028198242
1772720905828689000,8.41468896484375,-0.0014028549194335938,-0.013577625155448914,-0.009423047304153442
1772720905847285200,8.43328515625,0.0010967254638671875,-0.01224728673696518,-0.009186983108520508
1772720905865881300,8.45188134765625,0.0036106109619140625,-0.014294475317001343,-0.0031174495816230774
1772720905884477400,8.4704775390625,0.003452301025390625,0.005908533930778503,-0.0030225515365600586
1772720905903073500,8.489073486328126,0.0031824111938476562,-0.006135374307632446,0.008862815797328949
1772720905921669600,8.507669677734375,-0.0038814544677734375,-0.008345834910869598,0.0029946863651275635
1772720905940265700,8.526265625,-0.0026540756225585938,-0.00011143088340759277,-0.014828436076641083
1772720905958861800,8.54486181640625,-0.0038976669311523438,-0.004786655306816101,-0.012117721140384674
1772720905977458000,8.5634580078125,-0.0014743804931640625,-0.0000058710575103759766,0.006100356578826904
1772720905996054000,8.582053955078125,-0.012071609497070312,0.006973780691623688,-0.004645071923732758
1772720906014650400,8.600650390625,-0.014203071594238281,-0.0013877972960472107,0.015278592705726624
1772720906033246500,8.61924658203125,0.0013074874877929688,-0.0016065239906311035,0.0021893978118896484
1772720906051842600,8.637842529296876,-0.0069122314453125,-0.007665611803531647,-0.00016389787197113037
1772720906070438700,8.656438720703125,0.001239776611328125,0.00428491085767746,-0.0001410841941833496
1772720906089034800,8.67503466796875,-0.0012121200561523438,-0.0038296207785606384,-0.0012399107217788696
1772720906107630800,8.693630859375,0.008358001708984375,-0.002449624240398407,0.007049113512039185
1772720906126227000,8.71222705078125,0.009533882141113281,-0.007207922637462616,0.009335324168205261
1772720906144823000,8.730822998046875,0.016472816467285156,0.010221555829048157,-0.007641777396202087
1772720906163419100,8.749419189453125,-0.0002269744873046875,-0.012304522097110748,-0.012053608894348145
1772720906182015200,8.76801513671875,0.012566566467285156,0.0018575116991996765,0.0009111464023590088
1772720906200611600,8.786611572265626,-0.005455970764160156,-0.012498490512371063,0.009279236197471619
1772720906219207400,8.80520751953125,-0.005274772644042969,0.0008076280355453491,0.01023988425731659
1772720906237803800,8.8238037109375,-0.0004730224609375,0.004105605185031891,0.002967536449432373
1772720906256400000,8.84239990234375,0.0017986297607421875,0.0016752779483795166,-0.013700567185878754
1772720906274996000,8.860995849609376,0.004189491271972656,-0.015841156244277954,0.005436226725578308
1772720906293592000,8.879592041015625,0.008876800537109375,-0.005130499601364136,-0.008667506277561188
1772720906312188200,8.898188232421875,0.0006227493286132812,-0.0005145296454429626,0.0034208670258522034
1772720906330784300,8.9167841796875,-0.0028076171875,-0.004209332168102264,-0.0035817325115203857
1772720906349380400,8.93538037109375,-0.005009651184082031,-0.0015814900398254395,-0.005869433283805847
1772720906367976400,8.9539765625,0.011765480041503906,-0.00869297981262207,-0.0022806450724601746
1772720906386572500,8.972572509765625,0.004515647888183594,0.007794424891471863,-0.003513142466545105
1772720906405168600,8.991168701171874,-0.0026922225952148438,-0.0006439313292503357,-0.004870615899562836
1772720906423764700,9.0097646484375,0.008945465087890625,-0.004100888967514038,0.0059167444705963135
1772720906442361000,9.028361083984375,-0.004113197326660156,-0.02059485763311386,-0.00704348087310791
1772720906460957200,9.046957275390625,-0.000701904296875,-0.0027030110359191895,0.013291515409946442
1772720906479553300,9.06555322265625,0.016754150390625,-0.012074261903762817,0.005896426737308502
1772720906498149400,9.0841494140625,0.010690689086914062,-0.009452477097511292,0.009214147925376892
1772720906516745500,9.102745361328125,0.0033779144287109375,0.005737625062465668,-0.00523790717124939
1772720906535341600,9.121341552734375,0.0009756088256835938,-0.008629828691482544,-0.006134778261184692
1772720906553937700,9.139937744140624,-0.0053119659423828125,0.0009514391422271729,0.01273936778306961
1772720906572533800,9.15853369140625,-0.00189971923828125,0.00310681015253067,-0.016762860119342804
1772720906591129900,9.1771298828125,0.009927749633789062,0.027415573596954346,-0.017650224268436432
1772720906609726000,9.195725830078125,0.013266563415527344,-0.03655868023633957,0.00013852864503860474
1772720906628322000,9.214322021484374,-0.0013875961303710938,0.010197952389717102,0.01764557510614395
1772720906646918100,9.232918212890626,0.006817817687988281,-0.019641533493995667,0.00934753566980362
1772720906665514200,9.25151416015625,0.008927345275878906,-0.02828405424952507,0.007808588445186615
1772720906684110300,9.2701103515625,0.00035762786865234375,0.012940384447574615,-0.008776955306529999
1772720906702706400,9.28870654296875,0.0038175582885742188,-0.009899936616420746,-0.015645451843738556
1772720906721302500,9.307302490234376,0.003787994384765625,0.002210289239883423,-0.016581840813159943
1772720906739899000,9.32589892578125,0.01287841796875,-0.012252502143383026,0.004842236638069153
1772720906758495000,9.344494873046875,0.0030422210693359375,-0.016300395131111145,-0.0023958683013916016
1772720906777091000,9.363091064453124,0.0017271041870117188,0.019093796610832214,-0.011698231101036072
1772720906795687200,9.381687255859376,-0.0031909942626953125,-0.022357940673828125,-0.011435136198997498
1772720906814283300,9.400283203125,0.0073451995849609375,0.004084065556526184,-0.004124067723751068
1772720906832879400,9.41887939453125,-0.0034084320068359375,-0.052022535353899,0.022378861904144287
1772720906851475500,9.437475341796874,-0.0020780563354492188,0.048715971410274506,0.006593652069568634
1772720906870071600,9.456071533203126,-0.010282516479492188,-0.013999655842781067,-0.011044569313526154
1772720906888667600,9.474667724609375,-0.0056858062744140625,0.010049872100353241,-0.01420021802186966
1772720906907263700,9.493263671875,0.007365226745605469,0.02433016151189804,0.0023315995931625366
1772720906925859800,9.51185986328125,-0.0009365081787109375,-0.04066081717610359,-0.0035563409328460693
1772720906944456200,9.530456298828126,-0.006649971008300781,0.009419284760951996,0.01767697185277939
1772720906963052000,9.549052001953125,0.005141258239746094,-0.028602082282304764,0.008970186114311218
1772720906981648400,9.5676484375,0.013326644897460938,0.0015141591429710388,-0.012213088572025299
1772720907000244500,9.586244384765624,-0.00466156005859375,0.001973554491996765,-0.016412809491157532
1772720907018840600,9.604840576171876,-0.0022487640380859375,-0.008818641304969788,-0.010154776275157928
1772720907037436700,9.623436767578125,0.014119148254394531,-0.020535975694656372,0.009989939630031586
1772720907056032800,9.64203271484375,0.010280609130859375,-0.00837281346321106,0.016688689589500427
1772720907074628900,9.66062890625,0.0019435882568359375,-0.011406533420085907,0.011551037430763245
1772720907093225000,9.679224853515626,-0.004118919372558594,0.007378540933132172,0.0031750425696372986
1772720907111821000,9.697821044921875,0.014802932739257812,-0.0025689080357551575,-0.010808095335960388
1772720907130417200,9.716417236328125,-0.0006866455078125,0.0020482689142227173,-0.018576301634311676
1772720907149013200,9.73501318359375,0.006354331970214844,0.003041185438632965,0.010831519961357117
1772720907167609300,9.753609375,0.012145042419433594,-0.01568404585123062,0.009404435753822327
1772720907186205400,9.772205322265625,0.0013942718505859375,0.0022559836506843567,0.01583598554134369
1772720907204801800,9.7908017578125,0.009701728820800781,-0.014322131872177124,-0.0008108541369438171
1772720907223397600,9.809397705078124,0.011851310729980469,-0.002081349492073059,-0.0040451884269714355
1772720907241994000,9.827993896484376,-0.009616851806640625,0.006960272789001465,-0.0029013827443122864
1772720907260590000,9.846590087890625,-0.005846977233886719,-0.008714273571968079,-0.011063285171985626
1772720907279186200,9.865186279296875,0.0010528564453125,-0.006967753171920776,-0.001263648271560669
1772720907297782300,9.8837822265625,0.0023908615112304688,-0.0023270323872566223,0.0035749226808547974
1772720907316378400,9.90237841796875,0.009176254272460938,-0.011666379868984222,0.003255195915699005
1772720907334974500,9.920974365234375,-0.0026559829711914062,-0.004556596279144287,-0.00963350385427475
1772720907353570600,9.939570556640625,0.0036106109619140625,-0.0032304301857948303,0.011474601924419403
1772720907372166700,9.958166748046875,0.0009441375732421875,0.014248043298721313,0.011359110474586487
1772720907390762800,9.9767626953125,0.0022268295288085938,0.0023679956793785095,-0.008716456592082977
1772720907409359000,9.995359130859375,0.005900382995605469,-0.0023508071899414062,-0.010725356638431549
1772720907427955000,10.013954833984375,-0.008273124694824219,-0.009492918848991394,-0.01652180403470993
1772720907446551300,10.03255126953125,-0.0012340545654296875,0.006038956344127655,-0.012935355305671692
1772720907465147400,10.0511474609375,0.0011997222900390625,0.0009512677788734436,0.01204758882522583
1772720907483743500,10.069743408203125,0.009454727172851562,-0.003799028694629669,0.0037206411361694336
1772720907502339600,10.088339599609375,0.014025688171386719,-0.0003410130739212036,-0.010425105690956116
1772720907520935700,10.106935791015625,-0.0061244964599609375,-0.0026018917560577393,-0.013866983354091644
1772720907539531800,10.12553173828125,-0.0047454833984375,-0.01058175414800644,-0.0028953030705451965
1772720907558127900,10.1441279296875,-0.004626274108886719,-0.01495826244354248,-0.008602149784564972
1772720907576724000,10.162723876953125,0.0025262832641601562,0.0015890970826148987,0.011659480631351471
1772720907595320000,10.181320068359375,0.007267951965332031,0.00377538800239563,0.006984628736972809
1772720907613916200,10.199916259765626,-0.009324073791503906,-0.013809099793434143,-0.015499770641326904
1772720907632512300,10.21851220703125,0.0038280487060546875,0.015575483441352844,0.00020575523376464844
1772720907651108400,10.2371083984375,0.0026044845581054688,0.0012047216296195984,0.018773488700389862
1772720907669704400,10.255704345703125,-0.009166717529296875,0.000005148351192474365,-0.009684853255748749
1772720907688300500,10.274300537109376,-0.01607799530029297,-0.0038745924830436707,-0.006951093673706055
1772720907706897000,10.29289697265625,0.006493568420410156,-0.0002654045820236206,-0.0021586567163467407
1772720907725492700,10.31149267578125,-0.005309104919433594,0.00898364931344986,0.0012426376342773438
1772720907744089000,10.330089111328125,0.0032596588134765625,-0.004366859793663025,-0.004779636859893799
1772720907762685200,10.348685302734374,-0.016768455505371094,-0.0032441243529319763,-0.009419932961463928
1772720907781281300,10.36728125,-0.010605812072753906,0.0016117393970489502,0.01662302017211914
1772720907799877400,10.38587744140625,-0.0034322738647460938,0.017773084342479706,0.005622781813144684
1772720907818473500,10.404473388671875,-0.0022954940795898438,-0.011000089347362518,-0.008345551788806915
1772720907837069600,10.423069580078124,-0.0011997222900390625,-0.005146250128746033,0.011654406785964966
1772720907855665700,10.441665771484375,0.007018089294433594,-0.008616752922534943,0.016047030687332153
1772720907874261800,10.46026171875,-0.017821311950683594,-0.004647471010684967,-0.010149195790290833
1772720907892857900,10.47885791015625,-0.008035659790039062,0.004766710102558136,-0.005392290651798248
1772720907911454000,10.497453857421876,-0.0077686309814453125,-0.007318727672100067,-0.004258163273334503
1772720907930050000,10.516050048828125,0.0042133331298828125,0.0023955553770065308,-0.0009282678365707397
1772720907948646100,10.534646240234375,-0.0005741119384765625,0.010780371725559235,-0.008120186626911163
1772720907967242200,10.5532421875,-0.0027112960815429688,0.0012151673436164856,0.014193810522556305
1772720907985838600,10.571838623046874,-0.0026979446411132812,-0.014123134315013885,0.005765929818153381
1772720908004434400,10.590434326171875,0.004177093505859375,-0.01272071897983551,0.0022038817405700684
1772720908023030800,10.60903076171875,-0.009960174560546875,-0.005705147981643677,-0.0026981979608535767
1772720908041626600,10.627626708984375,0.0019769668579101562,-0.010087013244628906,-0.002686537802219391
1772720908060222700,10.64622265625,0.0006170272827148438,-0.008687987923622131,0.0022628307342529297
1772720908078819000,10.664819091796875,-0.0028734207153320312,0.006645925343036652,-0.0059355273842811584
1772720908097415000,10.683414794921875,-0.006384849548339844,-0.01265714317560196,0.0012346729636192322
1772720908116011300,10.70201123046875,-0.0003681182861328125,0.006536766886711121,0.005042359232902527
1772720908134607400,10.720607421875,-0.0036725997924804688,0.004044555127620697,0.008335888385772705
1772720908153203500,10.739203369140625,-0.0070400238037109375,-0.017335154116153717,-0.000038877129554748535
1772720908171799600,10.757799560546875,-0.0010595321655273438,0.010986246168613434,0.006006971001625061
1772720908190395600,10.776395751953125,0.00376129150390625,-0.010468021035194397,-0.010581888258457184
1772720908208991700,10.79499169921875,0.0014219284057617188,-0.0020199567079544067,-0.009124413132667542
1772720908227587800,10.813587890625,0.006198883056640625,-0.0029968544840812683,-0.0007890015840530396
1772720908246184000,10.832183837890625,0.001445770263671875,-0.01248709112405777,-0.0031650811433792114
1772720908264780000,10.850780029296875,-0.0009145736694335938,-0.012166723608970642,-0.0007971525192260742
1772720908283376000,10.869376220703124,-0.0033731460571289062,0.011532850563526154,-0.006404973566532135
1772720908301972200,10.88797216796875,0.0012483596801757812,-0.013497434556484222,-0.0018547400832176208
1772720908320568300,10.906568359375,0.00838470458984375,0.003241606056690216,0.014604613184928894
1772720908339164400,10.925164306640625,-0.008069038391113281,-0.0026708170771598816,0.0072755590081214905
1772720908357760500,10.943760498046874,-0.008055686950683594,0.006694778800010681,-0.00344172865152359
1772720908376356600,10.962356689453125,0.009896278381347656,0.00891585648059845,0.014359943568706512
1772720908394952700,10.98095263671875,0.014489173889160156,-0.007752761244773865,0.009444206953048706
1772720908413548800,10.999548828125,0.0012445449829101562,0.00867994874715805,-0.005912609398365021
1772720908432145000,11.018144775390626,0.009417533874511719,-0.004082575440406799,-0.02821280062198639
1772720908450741000,11.036740966796875,-0.008185386657714844,0.004224121570587158,0.021745234727859497
1772720908469337000,11.055337158203125,-0.010305404663085938,-0.010327950119972229,0.0014520511031150818
1772720908487933200,11.07393310546875,-0.011376380920410156,-0.0007161498069763184,-0.021175511181354523
1772720908506529300,11.092529296875,-0.008726119995117188,0.002773374319076538,-0.006642483174800873
1772720908525125400,11.11112548828125,-0.004811286926269531,-0.0020167678594589233,0.00048167258501052856
1772720908543721500,11.129721435546875,-0.003437042236328125,-0.008829191327095032,0.005279116332530975
1772720908562317600,11.148317626953125,-0.00330352783203125,-0.019486740231513977,-0.004281148314476013
1772720908580913700,11.16691357421875,-0.0077610015869140625,-0.006031803786754608,0.01567765325307846
1772720908599509800,11.185509765625,-0.0005807876586914062,-0.00843365490436554,0.013020165264606476
1772720908618105900,11.20410595703125,-0.0029726028442382812,-0.004705414175987244,0.00014041364192962646
1772720908636702000,11.222701904296875,-0.003911018371582031,0.006766684353351593,-0.0022002458572387695
1772720908655298000,11.241298095703126,0.004649162292480469,0.001820780336856842,0.013286471366882324
1772720908673894100,11.25989404296875,-0.007149696350097656,-0.004082046449184418,-0.0024396106600761414
1772720908692490200,11.278490234375,-0.01638317108154297,-0.016867972910404205,0.0060515329241752625
1772720908711086300,11.29708642578125,0.01213836669921875,-0.003459453582763672,0.0035904720425605774
1772720908729682400,11.315682373046876,-0.014086723327636719,-0.0047355592250823975,0.00221078097820282
1772720908748278500,11.334278564453125,-0.013858795166015625,-0.012627415359020233,0.006834052503108978
1772720908766874600,11.35287451171875,0.00418853759765625,0.0015388056635856628,-0.009820908308029175
1772720908785470700,11.371470703125,-0.0051441192626953125,-0.019159838557243347,0.0045953169465065
1772720908804066800,11.39006689453125,-0.06340312957763672,0.03564591705799103,-0.027135923504829407
1772720908822663000,11.408662841796875,0.30176448822021484,-0.07213097810745239,0.08911626040935516
1772720908841259000,11.427259033203125,-0.07583427429199219,0.04648035019636154,-0.04987650364637375
1772720908859855000,11.445855224609375,0.03200531005859375,-0.03773001581430435,0.008953720331192017
