time,seconds_elapsed,z,y,x
1772720897506905600,0.092905517578125,-0.00038179047987796366,0.00038179047987796366,0.0009162971982732415
1772720897525501700,0.111501708984375,0.00022907429956831038,0.00007635809743078426,0.000610864779446274
1772720897544097800,0.130097900390625,-0.0012980876490473747,-0.0005345066892914474,0.000305432389723137
1772720897562694000,0.14869384765625,-0.00007635809743078426,-0.000839939049910754,-0.000610864779446274
1772720897581290200,0.167290283203125,-0.0009926552884280682,0.0006872228696011007,0.000610864779446274
1772720897599886300,0.18588623046875,0.0005345066892914474,-0.00022907429956831038,0.000305432389723137
1772720897618482400,0.204482421875,-0.0009926552884280682,0.00007635809743078426,0
1772720897637078500,0.22307861328125,0.0005345066892914474,0.00007635809743078426,0.000610864779446274
1772720897655674600,0.241674560546875,-0.0006872228696011007,-0.00022907429956831038,0.001221729558892548
1772720897674271000,0.26027099609375,-0.0009926552884280682,-0.0005345066892914474,0.001221729558892548
1772720897692867000,0.2788671875,0.0005345066892914474,0.00038179047987796366,0.0009162971982732415
1772720897711463200,0.297463134765625,-0.00007635809743078426,0.00038179047987796366,0.000610864779446274
1772720897730059500,0.3160595703125,-0.00038179047987796366,-0.0011453714687377214,0.0009162971982732415
1772720897748655600,0.334655517578125,-0.00038179047987796366,-0.000839939049910754,0.001221729558892548
1772720897767251700,0.353251708984375,-0.00038179047987796366,-0.0005345066892914474,0.000610864779446274
1772720897785847800,0.371847900390625,-0.00038179047987796366,-0.0005345066892914474,0.001221729558892548
1772720897804444000,0.39044384765625,-0.00038179047987796366,-0.00022907429956831038,0.000305432389723137
1772720897823040300,0.409040283203125,0.0005345066892914474,0.0009926552884280682,0.000610864779446274
1772720897841636400,0.42763623046875,-0.00038179047987796366,0.00007635809743078426,0.001221729558892548
1772720897860232400,0.446232421875,0.00022907429956831038,-0.00022907429956831038,0.001221729558892548
1772720897878828500,0.46482861328125,-0.0006872228696011007,-0.00022907429956831038,0.000610864779446274
1772720897897424600,0.483424560546875,-0.00007635809743078426,-0.00022907429956831038,0.0021380267571657896
1772720897916021000,0.50202099609375,0.00022907429956831038,-0.000839939049910754,0.000305432389723137
1772720897934617000,0.5206171875,-0.00038179047987796366,0.00038179047987796366,0.000610864779446274
1772720897953213200,0.539213134765625,0.00022907429956831038,-0.0011453714687377214,0.000305432389723137
1772720897971809500,0.5578095703125,-0.00038179047987796366,0.00007635809743078426,0.000305432389723137
1772720897990405600,0.576405517578125,-0.00007635809743078426,-0.00022907429956831038,0.000305432389723137
1772720898009001700,0.595001708984375,-0.0006872228696011007,0.00007635809743078426,0
1772720898027597800,0.613597900390625,-0.00038179047987796366,0.0006872228696011007,0.000610864779446274
1772720898046194000,0.63219384765625,0.00022907429956831038,-0.0005345066892914474,0.000305432389723137
1772720898064790000,0.6507900390625,-0.00038179047987796366,0.00007635809743078426,0.000305432389723137
1772720898083386400,0.669386474609375,-0.0006872228696011007,0.00038179047987796366,0.000610864779446274
1772720898101982500,0.687982421875,-0.00038179047987796366,0.00007635809743078426,0.001221729558892548
1772720898120578600,0.70657861328125,-0.00007635809743078426,-0.00022907429956831038,0.0009162971982732415
1772720898139174700,0.725174560546875,-0.0006872228696011007,0.00038179047987796366,0.000305432389723137
1772720898157770800,0.743770751953125,-0.00007635809743078426,-0.00022907429956831038,0.001221729558892548
1772720898176367000,0.7623671875,0.0005345066892914474,-0.00022907429956831038,0.001221729558892548
1772720898194963200,0.780963134765625,-0.00007635809743078426,-0.00022907429956831038,0.000610864779446274
1772720898213559300,0.799559326171875,-0.00038179047987796366,0.00007635809743078426,0.000305432389723137
1772720898232155400,0.8181552734375,-0.00038179047987796366,0.00007635809743078426,-0.000305432389723137
1772720898250751500,0.83675146484375,0.00022907429956831038,-0.000839939049910754,0.000305432389723137
1772720898269347800,0.855347900390625,-0.00007635809743078426,-0.00022907429956831038,0.000610864779446274
1772720898287944000,0.87394384765625,-0.00038179047987796366,-0.00022907429956831038,-0.000305432389723137
1772720898306540000,0.8925400390625,-0.0006872228696011007,0.00038179047987796366,0.000610864779446274
1772720898325136100,0.91113623046875,-0.00038179047987796366,0.00007635809743078426,0.000610864779446274
1772720898343732200,0.929732177734375,-0.00007635809743078426,0.00038179047987796366,0.0009162971982732415
1772720898362328600,0.94832861328125,-0.00038179047987796366,-0.0005345066892914474,0.000305432389723137
1772720898380924700,0.966924560546875,-0.0006872228696011007,0.00038179047987796366,0.0009162971982732415
1772720898399520800,0.985520751953125,-0.00007635809743078426,0.00007635809743078426,0.000305432389723137
1772720898418116900,1.004116943359375,-0.0006872228696011007,-0.0005345066892914474,0.000610864779446274
1772720898436713000,1.022712890625,-0.00038179047987796366,-0.00022907429956831038,0.000305432389723137
1772720898455309300,1.041309326171875,-0.0009926552884280682,0.00038179047987796366,0.000610864779446274
1772720898473905400,1.059905517578125,-0.00007635809743078426,-0.00022907429956831038,0.000610864779446274
1772720898492501500,1.07850146484375,-0.0006872228696011007,0.00038179047987796366,0.000610864779446274
1772720898511097600,1.09709765625,0.00022907429956831038,-0.000839939049910754,0.001221729558892548
1772720898529693700,1.115693603515625,-0.00038179047987796366,-0.00022907429956831038,0.000305432389723137
1772720898548290000,1.1342900390625,-0.0006872228696011007,0.00007635809743078426,0.000610864779446274
1772720898566886100,1.15288623046875,-0.00007635809743078426,0.00007635809743078426,0.000305432389723137
1772720898585482200,1.171482177734375,-0.00038179047987796366,0.00007635809743078426,0.000610864779446274
1772720898604078300,1.190078369140625,0.00022907429956831038,-0.0005345066892914474,0.001221729558892548
1772720898622674400,1.20867431640625,-0.0006872228696011007,-0.00022907429956831038,0.0009162971982732415
1772720898641270800,1.227270751953125,-0.00007635809743078426,0.00007635809743078426,0.000610864779446274
1772720898659867000,1.245866943359375,-0.0009926552884280682,-0.00022907429956831038,0.000610864779446274
1772720898678463000,1.264462890625,-0.0006872228696011007,-0.0005345066892914474,0.000305432389723137
1772720898697059000,1.28305908203125,0.0005345066892914474,-0.00022907429956831038,0.001221729558892548
1772720898715655200,1.3016552734375,-0.0006872228696011007,-0.0005345066892914474,0.0009162971982732415
1772720898734251300,1.320251220703125,-0.0006872228696011007,0.00038179047987796366,0.000610864779446274
1772720898752847600,1.33884765625,-0.00007635809743078426,0.00007635809743078426,0.0009162971982732415
1772720898771443700,1.357443603515625,-0.0006872228696011007,0.00038179047987796366,0.0009162971982732415
1772720898790039800,1.376039794921875,-0.0009926552884280682,-0.0005345066892914474,-0.000305432389723137
1772720898808636000,1.394635986328125,-0.00038179047987796366,-0.00022907429956831038,0.000305432389723137
1772720898827232000,1.41323193359375,0.00022907429956831038,0.00007635809743078426,0.000610864779446274
1772720898845828000,1.431828125,-0.0009926552884280682,-0.00022907429956831038,0.001832594396546483
1772720898864424200,1.450424072265625,-0.00038179047987796366,0.0006872228696011007,0.000610864779446274
1772720898883020500,1.4690205078125,-0.0012980876490473747,-0.000839939049910754,0.0009162971982732415
1772720898901616600,1.48761669921875,-0.00038179047987796366,-0.0005345066892914474,0.0009162971982732415
1772720898920212700,1.506212646484375,0.00022907429956831038,0.00007635809743078426,0.0009162971982732415
1772720898938808800,1.524808837890625,-0.0012980876490473747,0.00007635809743078426,0.000610864779446274
1772720898957405000,1.543405029296875,-0.00038179047987796366,-0.00022907429956831038,0.001832594396546483
1772720898976001300,1.562001220703125,0.00022907429956831038,0.00038179047987796366,0.001832594396546483
1772720898994597400,1.580597412109375,0.00022907429956831038,0.00007635809743078426,0.0009162971982732415
1772720899013193500,1.599193359375,-0.0012980876490473747,0.00007635809743078426,0
1772720899031789600,1.61778955078125,-0.00007635809743078426,0.00038179047987796366,0.000305432389723137
1772720899050385700,1.6363857421875,-0.0006872228696011007,0.00007635809743078426,0
1772720899068982000,1.65498193359375,-0.00007635809743078426,0.00007635809743078426,0.0009162971982732415
1772720899087578000,1.673578125,0.0005345066892914474,-0.00022907429956831038,0.0009162971982732415
1772720899106174200,1.69217431640625,-0.0006872228696011007,0.00007635809743078426,-0.000610864779446274
1772720899124770300,1.710770263671875,-0.0009926552884280682,0.00007635809743078426,0.001832594396546483
1772720899143366400,1.729366455078125,-0.00038179047987796366,-0.000839939049910754,0.001221729558892548
1772720899161962500,1.74796240234375,-0.00038179047987796366,0.00007635809743078426,-0.000305432389723137
1772720899180558600,1.76655859375,-0.00007635809743078426,-0.0005345066892914474,0.001832594396546483
1772720899199155000,1.785155029296875,-0.00007635809743078426,-0.00022907429956831038,0.000305432389723137
1772720899217751000,1.8037509765625,-0.00007635809743078426,-0.0005345066892914474,0.000305432389723137
1772720899236347100,1.82234716796875,-0.00038179047987796366,-0.0005345066892914474,0.000305432389723137
1772720899254943200,1.840943115234375,-0.0016035200096666813,-0.0005345066892914474,0.000610864779446274
1772720899273539300,1.859539306640625,-0.0006872228696011007,-0.0005345066892914474,0.0009162971982732415
1772720899292135700,1.8781357421875,0.0005345066892914474,0.00007635809743078426,-0.000305432389723137
1772720899310731800,1.896731689453125,-0.00038179047987796366,-0.000839939049910754,0.000610864779446274
1772720899329327900,1.915327880859375,-0.00038179047987796366,0.00038179047987796366,0.000610864779446274
1772720899347924000,1.933924072265625,-0.0006872228696011007,-0.000839939049910754,-0.000305432389723137
1772720899366520000,1.95252001953125,-0.00007635809743078426,0.00038179047987796366,0.001221729558892548
1772720899385116200,1.9711162109375,-0.00007635809743078426,-0.000839939049910754,0.000610864779446274
1772720899403712300,1.989712158203125,0.00022907429956831038,0.00038179047987796366,0.001221729558892548
1772720899422308400,2.008308349609375,-0.0006872228696011007,-0.00022907429956831038,0.000305432389723137
1772720899440904700,2.02690478515625,-0.0006872228696011007,-0.00022907429956831038,0.0009162971982732415
1772720899459500800,2.045500732421875,0.0005345066892914474,0.00038179047987796366,0.000305432389723137
1772720899478097000,2.064096923828125,-0.00038179047987796366,-0.0005345066892914474,0
1772720899496693000,2.08269287109375,-0.0006872228696011007,0.00038179047987796366,0.000610864779446274
1772720899515289000,2.1012890625,-0.0006872228696011007,0.0009926552884280682,0.000305432389723137
1772720899533885200,2.11988525390625,-0.00007635809743078426,0.00007635809743078426,0.000610864779446274
1772720899552481300,2.138481201171875,-0.0009926552884280682,0.00007635809743078426,0.0009162971982732415
1772720899571077600,2.15707763671875,0.0005345066892914474,-0.00022907429956831038,0.000610864779446274
1772720899589673700,2.175673828125,-0.00038179047987796366,-0.0005345066892914474,0.000610864779446274
1772720899608269800,2.194269775390625,-0.00038179047987796366,0.00007635809743078426,0.000305432389723137
1772720899626866000,2.212865966796875,-0.00007635809743078426,-0.0005345066892914474,0.000305432389723137
1772720899645462000,2.2314619140625,0.00022907429956831038,-0.00022907429956831038,0.000305432389723137
1772720899664058400,2.250058349609375,-0.00038179047987796366,-0.00022907429956831038,-0.000305432389723137
1772720899682654200,2.268654296875,-0.00038179047987796366,0.00038179047987796366,0.000610864779446274
1772720899701250600,2.28725048828125,0.00022907429956831038,-0.00022907429956831038,0
1772720899719846700,2.3058466796875,-0.00038179047987796366,0.00007635809743078426,0.0009162971982732415
1772720899738442800,2.32444287109375,0.00022907429956831038,-0.000839939049910754,0
1772720899757038800,2.343038818359375,0.00022907429956831038,0.00007635809743078426,0.001832594396546483
1772720899775635000,2.361635009765625,-0.00007635809743078426,-0.00022907429956831038,0.000305432389723137
1772720899794231000,2.38023095703125,-0.00038179047987796366,-0.00022907429956831038,0.0009162971982732415
1772720899812827100,2.3988271484375,-0.00038179047987796366,0.00007635809743078426,0.000305432389723137
1772720899831423500,2.417423583984375,-0.0006872228696011007,-0.000839939049910754,0.001221729558892548
1772720899850019600,2.43601953125,-0.0009926552884280682,-0.00022907429956831038,0.000305432389723137
1772720899868615700,2.45461572265625,-0.0012980876490473747,-0.00022907429956831038,0.000305432389723137
1772720899887211800,2.473211669921875,-0.00038179047987796366,-0.0005345066892914474,0.0009162971982732415
1772720899905808000,2.491807861328125,-0.00007635809743078426,0.00007635809743078426,0.0009162971982732415
1772720899924404000,2.510404052734375,-0.00007635809743078426,0.00007635809743078426,0.000305432389723137
1772720899943000000,2.529,-0.0009926552884280682,-0.00022907429956831038,0.000610864779446274
1772720899961596200,2.54759619140625,-0.0006872228696011007,0.00007635809743078426,0.001221729558892548
1772720899980192300,2.566192138671875,-0.00038179047987796366,-0.000839939049910754,0
1772720899998788400,2.584788330078125,0.0005345066892914474,-0.0011453714687377214,0.001221729558892548
1772720900017384700,2.603384765625,-0.0006872228696011007,-0.00022907429956831038,0
1772720900035980800,2.621980712890625,-0.0019089524867013097,-0.00022907429956831038,0.000305432389723137
1772720900054577000,2.640576904296875,-0.00038179047987796366,-0.0005345066892914474,0.000305432389723137
1772720900073173000,2.659173095703125,-0.00038179047987796366,-0.00022907429956831038,0.0009162971982732415
1772720900091769000,2.67776904296875,-0.00007635809743078426,-0.0005345066892914474,0
1772720900110365200,2.696365234375,-0.0006872228696011007,0.00007635809743078426,0.000610864779446274
1772720900128961300,2.714961181640625,-0.00007635809743078426,0.00038179047987796366,0.000305432389723137
1772720900147557600,2.7335576171875,-0.0016035200096666813,-0.0005345066892914474,0.0009162971982732415
1772720900166153500,2.752153564453125,-0.00038179047987796366,-0.000839939049910754,0.000305432389723137
1772720900184749800,2.770749755859375,0.0005345066892914474,0.00007635809743078426,0.000610864779446274
1772720900203346000,2.789345947265625,-0.00038179047987796366,0.0006872228696011007,0.0009162971982732415
1772720900221942000,2.80794189453125,-0.00007635809743078426,-0.00022907429956831038,0.000305432389723137
1772720900240538000,2.8265380859375,-0.00038179047987796366,-0.00022907429956831038,0.001832594396546483
1772720900259134200,2.84513427734375,-0.00007635809743078426,-0.00022907429956831038,0.0009162971982732415
1772720900277730300,2.863730224609375,0.00022907429956831038,0.00038179047987796366,0.0009162971982732415
1772720900296326400,2.882326416015625,0.0005345066892914474,-0.0005345066892914474,0.000305432389723137
1772720900314922500,2.900922607421875,-0.0009926552884280682,0.00038179047987796366,0
1772720900333518600,2.9195185546875,-0.00007635809743078426,0.00007635809743078426,-0.000305432389723137
1772720900352115000,2.938114990234375,-0.00007635809743078426,0.0006872228696011007,0
1772720900370711000,2.9567109375,-0.0006872228696011007,0.00007635809743078426,0.0009162971982732415
1772720900389307100,2.97530712890625,-0.00007635809743078426,0.00007635809743078426,0.000305432389723137
1772720900407903200,2.9939033203125,0.0005345066892914474,-0.00022907429956831038,0.001221729558892548
1772720900426499300,3.012499267578125,-0.0006872228696011007,-0.00022907429956831038,0.000610864779446274
1772720900445095400,3.031095458984375,-0.00007635809743078426,0.00007635809743078426,0.0009162971982732415
1772720900463691500,3.04969140625,0.0005345066892914474,-0.00022907429956831038,0.0009162971982732415
1772720900482287600,3.06828759765625,0.0005345066892914474,-0.000839939049910754,0.0015271619195118546
1772720900500883700,3.0868837890625,0.00022907429956831038,0.00038179047987796366,0.000305432389723137
1772720900519479800,3.105479736328125,-0.00007635809743078426,0.00038179047987796366,0
1772720900538076200,3.124076171875,0.00022907429956831038,-0.0005345066892914474,0.000610864779446274
1772720900556672300,3.14267236328125,0.000839939049910754,-0.0005345066892914474,0.0009162971982732415
1772720900575268400,3.161268310546875,0.0005345066892914474,0.00038179047987796366,0.0009162971982732415
1772720900593864400,3.179864501953125,0.00022907429956831038,0.00007635809743078426,0.0009162971982732415
1772720900612460500,3.19846044921875,0.0005345066892914474,0.00007635809743078426,0.001832594396546483
1772720900631056600,3.217056640625,-0.00038179047987796366,0.0006872228696011007,0.0015271619195118546
1772720900649652700,3.23565283203125,0.0005345066892914474,-0.000839939049910754,0.0009162971982732415
1772720900668249000,3.2542490234375,0.00022907429956831038,-0.00022907429956831038,0.0009162971982732415
1772720900686845200,3.27284521484375,-0.00007635809743078426,-0.00022907429956831038,-0.000305432389723137
1772720900705441300,3.291441162109375,0.00022907429956831038,-0.0005345066892914474,0.000610864779446274
1772720900724037400,3.310037353515625,0.00022907429956831038,0.00038179047987796366,0.000610864779446274
1772720900742633500,3.328633544921875,-0.00007635809743078426,0.00007635809743078426,0.000610864779446274
1772720900761229800,3.347229736328125,0.0005345066892914474,-0.000839939049910754,0.0015271619195118546
1772720900779826000,3.365825927734375,0.00022907429956831038,0.00007635809743078426,0.001221729558892548
1772720900798422000,3.384422119140625,0.00022907429956831038,-0.00022907429956831038,0.001221729558892548
1772720900817018000,3.40301806640625,-0.0009926552884280682,-0.00022907429956831038,0
1772720900835614200,3.4216142578125,0.0005345066892914474,-0.00022907429956831038,0.001221729558892548
1772720900854210600,3.44021044921875,0.0005345066892914474,-0.0005345066892914474,0.0009162971982732415
1772720900872806700,3.458806640625,-0.0009926552884280682,0.0006872228696011007,0
1772720900891402800,3.47740283203125,0.0005345066892914474,0.00007635809743078426,0.001221729558892548
1772720900909998800,3.495998779296875,-0.00038179047987796366,0.00007635809743078426,0.0009162971982732415
1772720900928595000,3.514594970703125,0.0005345066892914474,0.00038179047987796366,0.000305432389723137
1772720900947191300,3.53319140625,-0.00038179047987796366,0.0006872228696011007,0.000610864779446274
1772720900965787400,3.551787353515625,0.0005345066892914474,0.00007635809743078426,0.000305432389723137
1772720900984383500,3.570383544921875,-0.00007635809743078426,0.00007635809743078426,0.0009162971982732415
1772720901002979800,3.588979736328125,0.0011453714687377214,-0.00022907429956831038,0.001221729558892548
1772720901021576000,3.607575927734375,0.0005345066892914474,0.00007635809743078426,0.000305432389723137
1772720901040172000,3.626172119140625,-0.00007635809743078426,0.00038179047987796366,-0.000610864779446274
1772720901058768400,3.644768310546875,-0.00038179047987796366,-0.00022907429956831038,0.000610864779446274
1772720901077364500,3.663364501953125,-0.00007635809743078426,0.00007635809743078426,0.0009162971982732415
1772720901095960600,3.681960693359375,0.0005345066892914474,-0.0005345066892914474,0.000610864779446274
1772720901114556700,3.700556640625,-0.0006872228696011007,0.00007635809743078426,0.000610864779446274
1772720901133153000,3.719153076171875,0.00022907429956831038,0.00007635809743078426,0.001221729558892548
1772720901151749000,3.7377490234375,0.00022907429956831038,0.00007635809743078426,0.000610864779446274
1772720901170345200,3.75634521484375,-0.00007635809743078426,-0.00022907429956831038,0.001221729558892548
1772720901188941300,3.77494140625,-0.00007635809743078426,-0.00022907429956831038,0.001221729558892548
1772720901207537700,3.79353759765625,-0.0006872228696011007,0.00038179047987796366,0.000610864779446274
1772720901226133800,3.8121337890625,-0.00038179047987796366,-0.00022907429956831038,0.001221729558892548
1772720901244730000,3.830730224609375,-0.00007635809743078426,-0.0005345066892914474,0.000610864779446274
1772720901263326200,3.849326171875,-0.00038179047987796366,-0.0011453714687377214,0.000305432389723137
1772720901281922300,3.86792236328125,-0.00007635809743078426,-0.00022907429956831038,0.0009162971982732415
1772720901300518700,3.8865185546875,0.00022907429956831038,0.0006872228696011007,0.0009162971982732415
1772720901319114800,3.90511474609375,-0.00007635809743078426,-0.00022907429956831038,0.000305432389723137
1772720901337710800,3.9237109375,-0.00007635809743078426,-0.0005345066892914474,0.000610864779446274
1772720901356307200,3.94230712890625,-0.00007635809743078426,0.00007635809743078426,0.0015271619195118546
1772720901374903300,3.9609033203125,-0.00007635809743078426,-0.0005345066892914474,0.0009162971982732415
1772720901393499400,3.97949951171875,-0.00007635809743078426,0.0006872228696011007,0.000610864779446274
1772720901412095700,3.998095703125,0.000839939049910754,0.00038179047987796366,0.000305432389723137
1772720901430691800,4.01669189453125,0.00022907429956831038,0.00038179047987796366,0.001221729558892548
1772720901449288000,4.035287841796875,-0.00038179047987796366,-0.00022907429956831038,0.001221729558892548
1772720901467884300,4.05388427734375,0.0005345066892914474,-0.00022907429956831038,0.0009162971982732415
1772720901486480400,4.07248046875,-0.00007635809743078426,-0.000839939049910754,0
1772720901505076700,4.09107666015625,-0.00038179047987796366,0.00007635809743078426,0.000610864779446274
1772720901523672800,4.1096728515625,-0.00007635809743078426,0.00038179047987796366,0.000305432389723137
1772720901542269200,4.128269287109375,-0.00038179047987796366,0.0006872228696011007,0.0009162971982732415
1772720901560865300,4.146865234375,0.0005345066892914474,-0.0011453714687377214,0.0009162971982732415
1772720901579461400,4.16546142578125,0.0005345066892914474,0.00038179047987796366,0
1772720901598057700,4.1840576171875,0.0005345066892914474,0.00007635809743078426,0.0009162971982732415
1772720901616653800,4.20265380859375,-0.00038179047987796366,-0.00022907429956831038,0.0009162971982732415
1772720901635250000,4.22125,-0.0012980876490473747,0.00007635809743078426,0.000305432389723137
1772720901653846300,4.23984619140625,0.0005345066892914474,-0.0005345066892914474,0.001221729558892548
1772720901672442600,4.258442626953125,0.00022907429956831038,-0.00022907429956831038,0
1772720901691038700,4.277038818359375,-0.00038179047987796366,0.00007635809743078426,0.0009162971982732415
1772720901709634800,4.295634765625,-0.0012980876490473747,0.0006872228696011007,0.001221729558892548
1772720901728231200,4.314231201171875,-0.00007635809743078426,-0.00022907429956831038,0
1772720901746827300,4.3328271484375,0.0005345066892914474,-0.00022907429956831038,0.000610864779446274
1772720901765423400,4.35142333984375,0.00022907429956831038,0.00038179047987796366,0.001832594396546483
1772720901784019700,4.370019775390625,-0.0006872228696011007,-0.00022907429956831038,0.0009162971982732415
1772720901802616000,4.388615966796875,-0.0012980876490473747,-0.00022907429956831038,0.0009162971982732415
1772720901821212200,4.407212158203125,-0.0009926552884280682,0.00007635809743078426,0.0009162971982732415
1772720901839808300,4.425808349609375,0.0005345066892914474,-0.0005345066892914474,0.000610864779446274
1772720901858404600,4.444404541015625,-0.00038179047987796366,0.00038179047987796366,0.000610864779446274
1772720901877000700,4.463000732421875,-0.00038179047987796366,0.00007635809743078426,0.001221729558892548
1772720901895597000,4.48159716796875,0.0005345066892914474,0.00007635809743078426,0.0015271619195118546
1772720901914193200,4.500193115234375,0.000839939049910754,0.00038179047987796366,0.0009162971982732415
1772720901932789500,4.51878955078125,-0.00007635809743078426,0.00007635809743078426,0
1772720901951385600,4.537385498046875,-0.00038179047987796366,0.00038179047987796366,0.001221729558892548
1772720901969981700,4.555981689453125,-0.00007635809743078426,0.00038179047987796366,0.000610864779446274
1772720901988578000,4.574578125,0.000839939049910754,0.00038179047987796366,0.0009162971982732415
1772720902007174100,4.593174072265625,-0.0009926552884280682,0.0006872228696011007,0.0009162971982732415
1772720902025770500,4.6117705078125,-0.00038179047987796366,-0.0005345066892914474,0.000610864779446274
1772720902044366600,4.63036669921875,0.00022907429956831038,-0.00022907429956831038,0.000610864779446274
1772720902062963000,4.648962890625,0.00022907429956831038,-0.0005345066892914474,0.000610864779446274
1772720902081559000,4.66755908203125,-0.00038179047987796366,0.00038179047987796366,0.000610864779446274
1772720902100155100,4.686155029296875,0.000839939049910754,-0.0005345066892914474,0.001221729558892548
1772720902118751500,4.70475146484375,-0.00038179047987796366,0.00007635809743078426,0
1772720902137347800,4.723347900390625,0.00022907429956831038,-0.00022907429956831038,0.001832594396546483
1772720902155944000,4.74194384765625,-0.0006872228696011007,-0.00022907429956831038,0.0009162971982732415
1772720902174540000,4.7605400390625,-0.0012980876490473747,-0.0005345066892914474,0.001221729558892548
1772720902193136400,4.779136474609375,0.0005345066892914474,-0.000839939049910754,0.000610864779446274
1772720902211732500,4.797732421875,0.00022907429956831038,0.00038179047987796366,0.000610864779446274
1772720902230328800,4.816328857421875,-0.00038179047987796366,-0.00022907429956831038,0.000610864779446274
1772720902248925000,4.834925048828125,-0.00038179047987796366,-0.0005345066892914474,0.000305432389723137
1772720902267521300,4.853521240234375,-0.00007635809743078426,0.00038179047987796366,0.000610864779446274
1772720902286117400,4.872117431640625,0.00022907429956831038,-0.0005345066892914474,0.000610864779446274
1772720902304713500,4.89071337890625,-0.00007635809743078426,-0.00022907429956831038,0.000610864779446274
1772720902323309800,4.909309814453125,-0.00038179047987796366,0.00007635809743078426,0
1772720902341906200,4.92790625,-0.00007635809743078426,-0.00022907429956831038,0.0009162971982732415
1772720902360502300,4.946502197265625,-0.0006872228696011007,0.00007635809743078426,0.000305432389723137
1772720902379098400,4.965098388671875,-0.00007635809743078426,-0.00022907429956831038,0.001221729558892548
1772720902397694700,4.98369482421875,-0.00007635809743078426,-0.00022907429956831038,0
1772720902416290800,5.002290771484375,-0.00007635809743078426,-0.00022907429956831038,0.001221729558892548
1772720902434887200,5.02088720703125,-0.0009926552884280682,-0.0005345066892914474,0.0009162971982732415
1772720902453483300,5.039483154296875,-0.0006872228696011007,-0.0005345066892914474,0.0009162971982732415
1772720902472079600,5.05807958984375,0.00022907429956831038,-0.00022907429956831038,0
1772720902490675700,5.07667578125,-0.00007635809743078426,0.00007635809743078426,0.0009162971982732415
1772720902509271800,5.095271728515625,-0.00038179047987796366,-0.00022907429956831038,0.000305432389723137
1772720902527868200,5.1138681640625,-0.0006872228696011007,-0.0011453714687377214,-0.000305432389723137
1772720902546464300,5.13246435546875,-0.00038179047987796366,0.00038179047987796366,-0.000305432389723137
1772720902565060600,5.151060546875,-0.0006872228696011007,0.00007635809743078426,0.0009162971982732415
1772720902583656700,5.16965673828125,-0.0006872228696011007,0.00007635809743078426,0.0009162971982732415
1772720902602253000,5.188253173828125,0.0005345066892914474,0.00007635809743078426,0.0009162971982732415
1772720902620849200,5.20684912109375,-0.0009926552884280682,0.00007635809743078426,0.001221729558892548
1772720902639445200,5.2254453125,-0.0006872228696011007,-0.0005345066892914474,0.001221729558892548
1772720902658041600,5.24404150390625,-0.0006872228696011007,0.00007635809743078426,0
1772720902676637700,5.2626376953125,0.00022907429956831038,0.00007635809743078426,0.001221729558892548
1772720902695234000,5.281234130859375,-0.0006872228696011007,-0.00022907429956831038,0.000610864779446274
1772720902713830100,5.299830078125,-0.00007635809743078426,-0.00022907429956831038,0.000305432389723137
1772720902732426500,5.318426513671875,-0.0006872228696011007,-0.0005345066892914474,0.001832594396546483
1772720902751022600,5.337022705078125,-0.0006872228696011007,0.0006872228696011007,0.0009162971982732415
1772720902769618700,5.35561865234375,-0.00007635809743078426,-0.00022907429956831038,0.000610864779446274
1772720902788215000,5.374215087890625,-0.00038179047987796366,-0.00022907429956831038,0.0009162971982732415
1772720902806811100,5.39281103515625,-0.00038179047987796366,-0.00022907429956831038,0.0015271619195118546
1772720902825407500,5.411407470703125,-0.00038179047987796366,0.00007635809743078426,0.001221729558892548
1772720902844003600,5.430003662109375,0.00022907429956831038,0.0006872228696011007,0.000305432389723137
1772720902862600000,5.448599853515625,0.000839939049910754,0.00038179047987796366,0.000305432389723137
1772720902881196000,5.467196044921875,-0.00038179047987796366,-0.000839939049910754,0
1772720902899792100,5.485792236328125,-0.00038179047987796366,-0.00022907429956831038,0.000610864779446274
1772720902918388500,5.504388427734375,-0.00007635809743078426,0.0006872228696011007,0.001832594396546483
1772720902936984600,5.522984619140625,0.00022907429956831038,0.00007635809743078426,0.000610864779446274
1772720902955581000,5.541580810546875,0.00022907429956831038,0.00007635809743078426,0.000610864779446274
1772720902974177000,5.560177001953125,-0.00007635809743078426,-0.0011453714687377214,0.001221729558892548
1772720902992773400,5.5787734375,-0.0009926552884280682,-0.00022907429956831038,0.000305432389723137
1772720903011369500,5.597369384765625,-0.00007635809743078426,-0.00022907429956831038,0.000610864779446274
1772720903029965600,5.615965576171875,-0.00038179047987796366,0.0012980876490473747,0.000610864779446274
1772720903048562000,5.63456201171875,-0.00038179047987796366,0.0009926552884280682,-0.000305432389723137
1772720903067158000,5.653157958984375,0.00022907429956831038,-0.0005345066892914474,0.001221729558892548
1772720903085754000,5.671754150390625,-0.0012980876490473747,0.00038179047987796366,0.0009162971982732415
1772720903104350500,5.6903505859375,0.00022907429956831038,0.00038179047987796366,0.0009162971982732415
1772720903122946600,5.708946533203125,-0.00038179047987796366,-0.0005345066892914474,0.0015271619195118546
1772720903141543000,5.72754296875,-0.00007635809743078426,-0.0011453714687377214,0.001221729558892548
1772720903160139000,5.746138916015625,-0.0006872228696011007,-0.0005345066892914474,0.0009162971982732415
1772720903178735400,5.7647353515625,-0.00007635809743078426,-0.00022907429956831038,0.000610864779446274
1772720903197331500,5.78333154296875,0.00022907429956831038,-0.00022907429956831038,0.000610864779446274
1772720903215927600,5.801927490234375,-0.0009926552884280682,0.00007635809743078426,0.001221729558892548
1772720903234524000,5.82052392578125,0.0005345066892914474,-0.000839939049910754,0.000305432389723137
1772720903253120000,5.8391201171875,-0.00038179047987796366,0.00038179047987796366,0.000610864779446274
1772720903271716000,5.857716064453125,0.00022907429956831038,-0.000839939049910754,0.000610864779446274
1772720903290312400,5.8763125,0.0005345066892914474,0.0006872228696011007,0.001221729558892548
1772720903308908500,5.894908447265625,-0.0009926552884280682,-0.0005345066892914474,0.000305432389723137
1772720903327504600,5.913504638671875,0.00022907429956831038,-0.0005345066892914474,0.000610864779446274
1772720903346101000,5.93210107421875,0.00022907429956831038,-0.0005345066892914474,0.001832594396546483
1772720903364697000,5.950697021484375,-0.0009926552884280682,-0.0005345066892914474,0.000610864779446274
1772720903383293400,5.96929345703125,-0.0006872228696011007,-0.00022907429956831038,0.000610864779446274
1772720903401889500,5.9878896484375,-0.0009926552884280682,0.00038179047987796366,0.000305432389723137
1772720903420485600,6.006485595703125,0.0005345066892914474,-0.0005345066892914474,0.000305432389723137
1772720903439082000,6.02508203125,-0.00038179047987796366,-0.00022907429956831038,0.0009162971982732415
1772720903457678000,6.043677978515625,-0.00038179047987796366,0.00007635809743078426,0.001221729558892548
1772720903476274400,6.0622744140625,0.00022907429956831038,-0.0005345066892914474,0.000610864779446274
1772720903494870500,6.08087060546875,-0.0006872228696011007,-0.00022907429956831038,0.0009162971982732415
1772720903513466600,6.099466552734375,-0.00038179047987796366,-0.0005345066892914474,-0.000305432389723137
1772720903532062700,6.118062744140625,0.00022907429956831038,-0.00022907429956831038,0.001221729558892548
1772720903550659000,6.1366591796875,0.00022907429956831038,-0.0005345066892914474,0.000305432389723137
1772720903569255200,6.155255126953125,0.00022907429956831038,0.00038179047987796366,0.000610864779446274
1772720903587851300,6.173851318359375,-0.00038179047987796366,-0.0005345066892914474,0.001221729558892548
1772720903606447600,6.192447509765625,-0.00038179047987796366,-0.0005345066892914474,0.0015271619195118546
1772720903625043700,6.211043701171875,0.0005345066892914474,-0.00022907429956831038,0.0015271619195118546
1772720903643639800,6.229639892578125,0.0005345066892914474,-0.00022907429956831038,0.0009162971982732415
1772720903662236200,6.248236083984375,0.00022907429956831038,-0.0005345066892914474,0.0009162971982732415
1772720903680832300,6.266832275390625,-0.00038179047987796366,-0.00022907429956831038,0.001221729558892548
1772720903699428400,6.285428466796875,-0.00038179047987796366,-0.0005345066892914474,0.0015271619195118546
1772720903718024700,6.304024658203125,-0.00038179047987796366,-0.0005345066892914474,0.001221729558892548
1772720903736620800,6.322620849609375,-0.0009926552884280682,0.00007635809743078426,0.001221729558892548
1772720903755217200,6.341217041015625,-0.00007635809743078426,0.0006872228696011007,0.000305432389723137
1772720903773813200,6.359813232421875,-0.0006872228696011007,0.00007635809743078426,0.000305432389723137
1772720903792409300,6.378409423828125,-0.00007635809743078426,0.00007635809743078426,0.000610864779446274
1772720903811005700,6.397005615234375,0.00022907429956831038,0.00007635809743078426,0.001221729558892548
1772720903829601800,6.415601806640625,-0.00007635809743078426,-0.0011453714687377214,0.000610864779446274
1772720903848198000,6.434197998046875,-0.00038179047987796366,-0.0005345066892914474,0
1772720903866794200,6.452794189453125,-0.00007635809743078426,-0.00022907429956831038,0.000305432389723137
1772720903885390300,6.471390380859375,-0.00038179047987796366,-0.00022907429956831038,0.001832594396546483
1772720903903986400,6.489986328125,0.00022907429956831038,0.00007635809743078426,0.001221729558892548
1772720903922582800,6.508582763671875,0.000839939049910754,-0.0005345066892914474,0
1772720903941179000,6.527178955078125,-0.0012980876490473747,-0.00022907429956831038,0.0009162971982732415
1772720903959775200,6.545775146484375,0.00022907429956831038,-0.00022907429956831038,0.0015271619195118546
1772720903978371300,6.564371337890625,-0.00038179047987796366,-0.00022907429956831038,0.001221729558892548
1772720903996967400,6.582967529296875,-0.00007635809743078426,0.00007635809743078426,0.0015271619195118546
1772720904015563800,6.601563720703125,-0.00038179047987796366,-0.00022907429956831038,-0.000305432389723137
1772720904034159900,6.620159912109375,-0.00038179047987796366,0.00007635809743078426,0.000610864779446274
1772720904052756000,6.638755859375,0.00022907429956831038,-0.0005345066892914474,0.000610864779446274
1772720904071352300,6.657352294921875,-0.00007635809743078426,0.00038179047987796366,0.000610864779446274
1772720904089948400,6.675948486328125,-0.00038179047987796366,-0.0005345066892914474,0.0009162971982732415
1772720904108544500,6.69454443359375,0.00022907429956831038,-0.000839939049910754,0.0009162971982732415
1772720904127140900,6.713140869140625,0.00022907429956831038,-0.00022907429956831038,0.000610864779446274
1772720904145737000,6.731737060546875,-0.0006872228696011007,-0.00022907429956831038,0
1772720904164333000,6.7503330078125,-0.0006872228696011007,0.00007635809743078426,0.000305432389723137
1772720904182929400,6.768929443359375,-0.00007635809743078426,-0.00022907429956831038,0.000610864779446274
1772720904201525500,6.787525390625,0.00022907429956831038,-0.00022907429956831038,0.000610864779446274
1772720904220121600,6.80612158203125,-0.0006872228696011007,-0.00022907429956831038,0
1772720904238718000,6.824718017578125,-0.00038179047987796366,-0.00022907429956831038,0.0009162971982732415
1772720904257314000,6.84331396484375,-0.00007635809743078426,-0.00022907429956831038,0.0009162971982732415
1772720904275910100,6.86191015625,0.0005345066892914474,-0.0005345066892914474,0.001832594396546483
1772720904294506200,6.88050634765625,0.0005345066892914474,-0.00022907429956831038,0.0009162971982732415
1772720904313102600,6.8991025390625,-0.00007635809743078426,-0.00022907429956831038,0.0009162971982732415
1772720904331698700,6.91769873046875,-0.0006872228696011007,-0.00022907429956831038,0.001221729558892548
1772720904350294800,6.936294677734375,-0.0006872228696011007,-0.00022907429956831038,0.000610864779446274
1772720904368891000,6.954890869140625,-0.0006872228696011007,0.00007635809743078426,0.0015271619195118546
1772720904387487200,6.9734873046875,-0.00038179047987796366,0.00038179047987796366,0.000610864779446274
1772720904406083300,6.992083251953125,-0.00038179047987796366,-0.00022907429956831038,0.0009162971982732415
1772720904424679400,7.010679443359375,-0.0006872228696011007,-0.0005345066892914474,0
1772720904452573700,7.03857373046875,0.0005345066892914474,-0.0005345066892914474,0.001221729558892548
1772720904471170000,7.057170166015625,-0.0006872228696011007,0.00007635809743078426,0.0015271619195118546
1772720904489766100,7.07576611328125,-0.00007635809743078426,-0.00022907429956831038,0.0009162971982732415
1772720904508362200,7.0943623046875,0.00022907429956831038,-0.000839939049910754,0.0015271619195118546
1772720904526958600,7.11295849609375,-0.00038179047987796366,0.00007635809743078426,0.000610864779446274
1772720904545554700,7.1315546875,-0.0009926552884280682,-0.00022907429956831038,-0.000305432389723137
1772720904564150800,7.15015087890625,-0.0006872228696011007,0.00007635809743078426,0.000305432389723137
1772720904582747100,7.1687470703125,-0.00007635809743078426,0.00007635809743078426,0.001221729558892548
1772720904601343200,7.18734326171875,-0.0009926552884280682,-0.00022907429956831038,-0.000610864779446274
1772720904619939300,7.205939208984375,-0.0006872228696011007,-0.0005345066892914474,0.000610864779446274
1772720904638535400,7.224535400390625,0.00022907429956831038,-0.0005345066892914474,0.000610864779446274
1772720904657131800,7.2431318359375,-0.0006872228696011007,-0.00022907429956831038,0.0009162971982732415
1772720904675728000,7.261727783203125,-0.0012980876490473747,0.00007635809743078426,0.000305432389723137
1772720904694324000,7.280323974609375,-0.00038179047987796366,-0.00022907429956831038,0.000305432389723137
1772720904712920000,7.298920166015625,0.00022907429956831038,-0.0011453714687377214,0.0009162971982732415
1772720904731516200,7.31751611328125,-0.0006872228696011007,0.00038179047987796366,0.000305432389723137
1772720904750112500,7.336112548828125,-0.0012980876490473747,0.00007635809743078426,0
1772720904768708600,7.35470849609375,-0.0012980876490473747,-0.00022907429956831038,-0.000610864779446274
1772720904787304700,7.3733046875,-0.0009926552884280682,0.00038179047987796366,0.0009162971982732415
1772720904805901000,7.391901123046875,0.00022907429956831038,-0.0011453714687377214,0.000305432389723137
1772720904824497200,7.4104970703125,-0.0009926552884280682,-0.00022907429956831038,0
1772720904843093200,7.42909326171875,-0.00038179047987796366,-0.00022907429956831038,0.000610864779446274
1772720904861689300,7.447689453125,-0.0009926552884280682,-0.0005345066892914474,0.001221729558892548
1772720904880285700,7.46628564453125,-0.00007635809743078426,0.0009926552884280682,0.0009162971982732415
1772720904898881800,7.4848818359375,-0.00038179047987796366,0.00007635809743078426,-0.000305432389723137
1772720904917478000,7.503477783203125,0.00022907429956831038,0.00038179047987796366,0.000610864779446274
1772720904936074000,7.522073974609375,-0.0012980876490473747,0.00007635809743078426,0
1772720904954670300,7.54067041015625,0.0005345066892914474,-0.00022907429956831038,0.0015271619195118546
1772720904973266400,7.559266357421875,0.00022907429956831038,-0.00022907429956831038,0
1772720904991862500,7.577862548828125,-0.0006872228696011007,0.00007635809743078426,0.000305432389723137
1772720905010458600,7.596458740234375,-0.0009926552884280682,-0.0005345066892914474,0.000305432389723137
1772720905029054700,7.6150546875,-0.0009926552884280682,0.00038179047987796366,0.001221729558892548
1772720905047651000,7.633651123046875,-0.0006872228696011007,0.00007635809743078426,0.000610864779446274
1772720905066247200,7.6522470703125,-0.0006872228696011007,-0.000839939049910754,0.000610864779446274
1772720905084843300,7.67084326171875,-0.00007635809743078426,-0.00022907429956831038,0.0009162971982732415
1772720905103439600,7.689439697265625,-0.0012980876490473747,0.00007635809743078426,0.0015271619195118546
1772720905122035700,7.70803564453125,-0.0006872228696011007,0.00007635809743078426,0.000610864779446274
1772720905140631800,7.7266318359375,-0.00007635809743078426,-0.0005345066892914474,0.000610864779446274
1772720905159228000,7.745227783203125,-0.00038179047987796366,-0.00022907429956831038,0.000610864779446274
1772720905177824000,7.763823974609375,-0.0006872228696011007,-0.0005345066892914474,0.0015271619195118546
1772720905196420400,7.78242041015625,-0.0009926552884280682,-0.00022907429956831038,0.000610864779446274
1772720905215016400,7.801016357421875,0.00022907429956831038,0.00038179047987796366,0.000610864779446274
1772720905233612500,7.819612548828125,-0.0012980876490473747,0.00007635809743078426,0.000610864779446274
1772720905252208600,7.838208740234375,-0.0009926552884280682,-0.00022907429956831038,0.001221729558892548
1772720905270804700,7.8568046875,0.00022907429956831038,0.00038179047987796366,0.001221729558892548
1772720905289401000,7.875401123046875,-0.00007635809743078426,0.00007635809743078426,0.001221729558892548
1772720905307997200,7.8939970703125,-0.00038179047987796366,0.00038179047987796366,0.0009162971982732415
1772720905326593300,7.91259326171875,-0.00007635809743078426,0.00038179047987796366,0.000610864779446274
1772720905345189400,7.931189453125,-0.0009926552884280682,-0.00022907429956831038,0
1772720905363785500,7.949785400390625,0.0005345066892914474,-0.0005345066892914474,0.000610864779446274
1772720905382381800,7.9683818359375,-0.00038179047987796366,-0.00022907429956831038,0.0009162971982732415
1772720905400978000,7.98697802734375,-0.0009926552884280682,0.00007635809743078426,0.000610864779446274
1772720905419574000,8.005573974609375,-0.0006872228696011007,-0.00022907429956831038,0.000305432389723137
1772720905438170000,8.024170166015624,-0.0006872228696011007,-0.000839939049910754,0.0009162971982732415
1772720905456766200,8.04276611328125,0.00022907429956831038,-0.0005345066892914474,0.0009162971982732415
1772720905475362300,8.0613623046875,-0.00007635809743078426,0.00007635809743078426,0.000610864779446274
1772720905493958700,8.079958740234375,0.00022907429956831038,0.00038179047987796366,0.0009162971982732415
1772720905512554800,8.0985546875,-0.0006872228696011007,-0.00022907429956831038,0.000305432389723137
1772720905531150800,8.11715087890625,-0.00007635809743078426,0.00007635809743078426,-0.0009162971982732415
1772720905549747000,8.135746826171875,-0.00038179047987796366,-0.00022907429956831038,0
1772720905568343000,8.154343017578125,-0.0006872228696011007,-0.00022907429956831038,0
1772720905586939400,8.172939453125,-0.00007635809743078426,-0.0005345066892914474,0.0009162971982732415
1772720905605535200,8.19153515625,-0.0006872228696011007,0.00007635809743078426,0.000610864779446274
1772720905624131600,8.210131591796875,-0.0009926552884280682,0.00007635809743078426,0.000305432389723137
1772720905642727700,8.228727783203125,-0.0006872228696011007,0.0009926552884280682,0.000610864779446274
1772720905661323800,8.24732373046875,-0.00007635809743078426,-0.000839939049910754,0.001221729558892548
1772720905679919900,8.265919921875,-0.00038179047987796366,0.00007635809743078426,0.0009162971982732415
1772720905698516000,8.284515869140625,0.0005345066892914474,-0.0005345066892914474,0.0015271619195118546
1772720905717112300,8.3031123046875,0.000839939049910754,0.00007635809743078426,0
1772720905735708400,8.32170849609375,-0.00038179047987796366,-0.00022907429956831038,0.000610864779446274
1772720905754304500,8.340304443359376,-0.00007635809743078426,0.00038179047987796366,0.000610864779446274
1772720905772900600,8.358900634765625,0.0005345066892914474,0.00038179047987796366,0.0009162971982732415
1772720905791496700,8.37749658203125,-0.0006872228696011007,-0.00022907429956831038,0.0009162971982732415
1772720905810092800,8.3960927734375,-0.0009926552884280682,-0.00022907429956831038,0.0009162971982732415
1772720905828689000,8.41468896484375,-0.0006872228696011007,-0.0005345066892914474,0.000305432389723137
1772720905847285200,8.43328515625,-0.00007635809743078426,0.0006872228696011007,0.0015271619195118546
1772720905865881300,8.45188134765625,-0.00007635809743078426,-0.00022907429956831038,0.000305432389723137
1772720905884477400,8.4704775390625,-0.0016035200096666813,-0.0005345066892914474,0.000610864779446274
1772720905903073500,8.489073486328126,0.00022907429956831038,-0.00022907429956831038,0.001221729558892548
1772720905921669600,8.507669677734375,-0.00038179047987796366,0.0006872228696011007,0.000610864779446274
1772720905940265700,8.526265625,-0.00007635809743078426,0.00007635809743078426,0.0009162971982732415
1772720905958861800,8.54486181640625,-0.0006872228696011007,0.00007635809743078426,0.0009162971982732415
1772720905977458000,8.5634580078125,-0.0009926552884280682,0.00038179047987796366,0.000610864779446274
1772720905996054000,8.582053955078125,-0.00038179047987796366,-0.000839939049910754,0.000610864779446274
1772720906014650400,8.600650390625,0.00022907429956831038,-0.00022907429956831038,0.000305432389723137
1772720906033246500,8.61924658203125,0.0005345066892914474,0.00038179047987796366,0.000305432389723137
1772720906051842600,8.637842529296876,0.00022907429956831038,0.00007635809743078426,0.000610864779446274
1772720906070438700,8.656438720703125,-0.0006872228696011007,0.00038179047987796366,0.000610864779446274
1772720906089034800,8.67503466796875,-0.00007635809743078426,0.00007635809743078426,0
1772720906107630800,8.693630859375,-0.00038179047987796366,-0.0005345066892914474,0.000610864779446274
1772720906126227000,8.71222705078125,-0.0006872228696011007,-0.00022907429956831038,0.000610864779446274
1772720906144823000,8.730822998046875,-0.00038179047987796366,-0.0005345066892914474,0.001221729558892548
1772720906163419100,8.749419189453125,-0.0009926552884280682,0.0006872228696011007,0.000305432389723137
1772720906182015200,8.76801513671875,-0.00038179047987796366,-0.000839939049910754,0.001221729558892548
1772720906200611600,8.786611572265626,-0.0006872228696011007,0.0006872228696011007,0.000305432389723137
1772720906219207400,8.80520751953125,0.0005345066892914474,-0.00022907429956831038,0
1772720906237803800,8.8238037109375,-0.0009926552884280682,0.00038179047987796366,0.0009162971982732415
1772720906256400000,8.84239990234375,-0.0006872228696011007,-0.00022907429956831038,0.000305432389723137
1772720906274996000,8.860995849609376,-0.00007635809743078426,-0.00022907429956831038,0.0009162971982732415
1772720906293592000,8.879592041015625,-0.00007635809743078426,0.00038179047987796366,0.000610864779446274
1772720906312188200,8.898188232421875,-0.00007635809743078426,-0.000839939049910754,0.001221729558892548
1772720906330784300,8.9167841796875,0.0005345066892914474,0.00007635809743078426,0.000610864779446274
1772720906349380400,8.93538037109375,-0.00007635809743078426,-0.00022907429956831038,0.000610864779446274
1772720906367976400,8.9539765625,-0.0009926552884280682,-0.00022907429956831038,0.000305432389723137
1772720906386572500,8.972572509765625,-0.0006872228696011007,0.00007635809743078426,0.0009162971982732415
1772720906405168600,8.991168701171874,-0.00007635809743078426,-0.0011453714687377214,0.000610864779446274
1772720906423764700,9.0097646484375,-0.0009926552884280682,-0.0005345066892914474,0.000610864779446274
1772720906442361000,9.028361083984375,0.00022907429956831038,0.00038179047987796366,0.000610864779446274
1772720906460957200,9.046957275390625,-0.00038179047987796366,0.00007635809743078426,0.000305432389723137
1772720906479553300,9.06555322265625,0.00022907429956831038,0.0006872228696011007,0.000610864779446274
1772720906498149400,9.0841494140625,-0.0009926552884280682,0.00007635809743078426,0.0009162971982732415
1772720906516745500,9.102745361328125,-0.00007635809743078426,0.00007635809743078426,0.0009162971982732415
1772720906535341600,9.121341552734375,0.00022907429956831038,0.00007635809743078426,0.0009162971982732415
1772720906553937700,9.139937744140624,0.00022907429956831038,-0.00022907429956831038,0.000610864779446274
1772720906572533800,9.15853369140625,-0.00038179047987796366,0.00007635809743078426,0.0009162971982732415
1772720906591129900,9.1771298828125,-0.0006872228696011007,-0.000839939049910754,0
1772720906609726000,9.195725830078125,0.00022907429956831038,-0.0005345066892914474,0.000305432389723137
1772720906628322000,9.214322021484374,-0.00038179047987796366,0.00038179047987796366,0
1772720906646918100,9.232918212890626,-0.0009926552884280682,0.0012980876490473747,0.000610864779446274
1772720906665514200,9.25151416015625,-0.00007635809743078426,0.00038179047987796366,0.001221729558892548
1772720906684110300,9.2701103515625,-0.0009926552884280682,-0.0005345066892914474,0.001221729558892548
1772720906702706400,9.28870654296875,-0.00038179047987796366,0.0006872228696011007,0.000305432389723137
1772720906721302500,9.307302490234376,-0.00007635809743078426,-0.000839939049910754,-0.000305432389723137
1772720906739899000,9.32589892578125,-0.00038179047987796366,-0.00022907429956831038,0
1772720906758495000,9.344494873046875,0.00022907429956831038,-0.00022907429956831038,0.000305432389723137
1772720906777091000,9.363091064453124,-0.0009926552884280682,0.00007635809743078426,0.000610864779446274
1772720906795687200,9.381687255859376,0.00022907429956831038,0.00007635809743078426,0.000610864779446274
1772720906814283300,9.400283203125,0.00022907429956831038,-0.0005345066892914474,0.000610864779446274
1772720906832879400,9.41887939453125,0.0005345066892914474,0.00007635809743078426,0.000610864779446274
1772720906851475500,9.437475341796874,-0.0016035200096666813,0.0006872228696011007,0.000305432389723137
1772720906870071600,9.456071533203126,-0.0016035200096666813,-0.00022907429956831038,0.001221729558892548
1772720906888667600,9.474667724609375,0.0005345066892914474,-0.00022907429956831038,0.0015271619195118546
1772720906907263700,9.493263671875,-0.0009926552884280682,-0.0005345066892914474,0.000610864779446274
1772720906925859800,9.51185986328125,0.000839939049910754,0.00007635809743078426,0.000610864779446274
1772720906944456200,9.530456298828126,-0.0009926552884280682,-0.00022907429956831038,0.000610864779446274
1772720906963052000,9.549052001953125,-0.0009926552884280682,0.0009926552884280682,0.001221729558892548
1772720906981648400,9.5676484375,-0.00007635809743078426,0.00038179047987796366,0
1772720907000244500,9.586244384765624,0.00022907429956831038,-0.00022907429956831038,0
1772720907018840600,9.604840576171876,-0.00038179047987796366,0.00038179047987796366,0.0015271619195118546
1772720907037436700,9.623436767578125,0.00022907429956831038,0.00007635809743078426,-0.000305432389723137
1772720907056032800,9.64203271484375,-0.00038179047987796366,0.00038179047987796366,0.000305432389723137
1772720907074628900,9.66062890625,-0.0009926552884280682,0.0012980876490473747,0.000610864779446274
1772720907093225000,9.679224853515626,-0.0006872228696011007,0.00038179047987796366,0.000610864779446274
1772720907111821000,9.697821044921875,0.000839939049910754,-0.0005345066892914474,0.001221729558892548
1772720907130417200,9.716417236328125,-0.00007635809743078426,-0.000839939049910754,0.000305432389723137
1772720907149013200,9.73501318359375,-0.00038179047987796366,-0.000839939049910754,0.000610864779446274
1772720907167609300,9.753609375,-0.00007635809743078426,0.00007635809743078426,0.0009162971982732415
1772720907186205400,9.772205322265625,-0.00007635809743078426,0.00038179047987796366,0.001832594396546483
1772720907204801800,9.7908017578125,-0.00007635809743078426,0.00007635809743078426,0.000610864779446274
1772720907223397600,9.809397705078124,0.0005345066892914474,0.00007635809743078426,0.000610864779446274
1772720907241994000,9.827993896484376,-0.00038179047987796366,0.00038179047987796366,0.0009162971982732415
1772720907260590000,9.846590087890625,0.00022907429956831038,0.00007635809743078426,0.001221729558892548
1772720907279186200,9.865186279296875,-0.0009926552884280682,0.00038179047987796366,0
1772720907297782300,9.8837822265625,-0.00007635809743078426,-0.0005345066892914474,0.000305432389723137
1772720907316378400,9.90237841796875,-0.0006872228696011007,0.00007635809743078426,0.0009162971982732415
1772720907334974500,9.920974365234375,0.000839939049910754,-0.000839939049910754,0.000305432389723137
1772720907353570600,9.939570556640625,-0.00007635809743078426,0.0006872228696011007,0
1772720907372166700,9.958166748046875,-0.00007635809743078426,0.00007635809743078426,0.0009162971982732415
1772720907390762800,9.9767626953125,-0.00038179047987796366,0.0006872228696011007,0
1772720907409359000,9.995359130859375,-0.0006872228696011007,0.00007635809743078426,0.001221729558892548
1772720907427955000,10.013954833984375,-0.0012980876490473747,0.00007635809743078426,0.001221729558892548
1772720907446551300,10.03255126953125,0.00022907429956831038,0.00007635809743078426,0.000610864779446274
1772720907465147400,10.0511474609375,-0.00007635809743078426,0.00007635809743078426,0.0015271619195118546
1772720907483743500,10.069743408203125,-0.00038179047987796366,-0.0005345066892914474,0
1772720907502339600,10.088339599609375,-0.0006872228696011007,0.00007635809743078426,0
1772720907520935700,10.106935791015625,-0.0006872228696011007,0.00007635809743078426,0.000610864779446274
1772720907539531800,10.12553173828125,-0.0016035200096666813,0.0006872228696011007,0
1772720907558127900,10.1441279296875,-0.00038179047987796366,-0.00022907429956831038,0.000305432389723137
1772720907576724000,10.162723876953125,0.00022907429956831038,-0.0005345066892914474,0.0009162971982732415
1772720907595320000,10.181320068359375,-0.0006872228696011007,-0.00022907429956831038,0.000610864779446274
1772720907613916200,10.199916259765626,-0.0009926552884280682,-0.0005345066892914474,0.0009162971982732415
1772720907632512300,10.21851220703125,-0.00007635809743078426,0.00007635809743078426,0.001221729558892548
1772720907651108400,10.2371083984375,-0.00007635809743078426,-0.0005345066892914474,0.000610864779446274
1772720907669704400,10.255704345703125,-0.0006872228696011007,0.00007635809743078426,-0.0009162971982732415
1772720907688300500,10.274300537109376,-0.0006872228696011007,0.00007635809743078426,0.0009162971982732415
1772720907706897000,10.29289697265625,-0.00007635809743078426,0.00007635809743078426,0.000610864779446274
1772720907725492700,10.31149267578125,0.00022907429956831038,0.00007635809743078426,0.0009162971982732415
1772720907744089000,10.330089111328125,0.000839939049910754,-0.0005345066892914474,0.0009162971982732415
1772720907762685200,10.348685302734374,0.00022907429956831038,-0.00022907429956831038,0.0009162971982732415
1772720907781281300,10.36728125,-0.0006872228696011007,0.0006872228696011007,0.000610864779446274
1772720907799877400,10.38587744140625,-0.00038179047987796366,-0.000839939049910754,0.000305432389723137
1772720907818473500,10.404473388671875,-0.0006872228696011007,0.00007635809743078426,0.001832594396546483
1772720907837069600,10.423069580078124,-0.0006872228696011007,-0.00022907429956831038,0.0009162971982732415
1772720907855665700,10.441665771484375,-0.00007635809743078426,0.00007635809743078426,0.0009162971982732415
1772720907874261800,10.46026171875,-0.00007635809743078426,-0.00022907429956831038,0.000610864779446274
1772720907892857900,10.47885791015625,-0.00038179047987796366,0.00007635809743078426,0.001221729558892548
1772720907911454000,10.497453857421876,-0.0009926552884280682,-0.0005345066892914474,0.001221729558892548
1772720907930050000,10.516050048828125,0.000839939049910754,0.00007635809743078426,-0.000305432389723137
1772720907948646100,10.534646240234375,-0.00007635809743078426,-0.00022907429956831038,0.000610864779446274
1772720907967242200,10.5532421875,-0.0006872228696011007,0.00007635809743078426,0.001221729558892548
1772720907985838600,10.571838623046874,-0.00038179047987796366,0.00007635809743078426,0.000610864779446274
1772720908004434400,10.590434326171875,-0.00007635809743078426,0.00007635809743078426,0.0009162971982732415
1772720908023030800,10.60903076171875,-0.0006872228696011007,0.00007635809743078426,0.001221729558892548
1772720908041626600,10.627626708984375,-0.00007635809743078426,-0.00022907429956831038,0.000610864779446274
1772720908060222700,10.64622265625,-0.00038179047987796366,0.00007635809743078426,-0.000305432389723137
1772720908078819000,10.664819091796875,-0.0009926552884280682,-0.00022907429956831038,0
1772720908097415000,10.683414794921875,-0.00038179047987796366,-0.0005345066892914474,0.001221729558892548
1772720908116011300,10.70201123046875,-0.00038179047987796366,0.00038179047987796366,0.000610864779446274
1772720908134607400,10.720607421875,0.00022907429956831038,-0.000839939049910754,-0.000305432389723137
1772720908153203500,10.739203369140625,-0.0012980876490473747,0.00007635809743078426,0
1772720908171799600,10.757799560546875,-0.00038179047987796366,0.00038179047987796366,0.000610864779446274
1772720908190395600,10.776395751953125,-0.00038179047987796366,-0.00022907429956831038,0.0015271619195118546
1772720908208991700,10.79499169921875,-0.00038179047987796366,0.00007635809743078426,0.000305432389723137
1772720908227587800,10.813587890625,-0.0006872228696011007,-0.00022907429956831038,0.000305432389723137
1772720908246184000,10.832183837890625,-0.0006872228696011007,0.00038179047987796366,0.000305432389723137
1772720908264780000,10.850780029296875,0.0005345066892914474,0.00007635809743078426,0.000305432389723137
1772720908283376000,10.869376220703124,-0.00007635809743078426,0.00038179047987796366,0.000610864779446274
1772720908301972200,10.88797216796875,0.00022907429956831038,-0.0005345066892914474,0.0009162971982732415
1772720908320568300,10.906568359375,-0.00038179047987796366,-0.00022907429956831038,0.000610864779446274
1772720908339164400,10.925164306640625,-0.00007635809743078426,0.00007635809743078426,0.000305432389723137
1772720908357760500,10.943760498046874,-0.00038179047987796366,0.00007635809743078426,0.0015271619195118546
1772720908376356600,10.962356689453125,-0.0006872228696011007,-0.00022907429956831038,-0.000305432389723137
1772720908394952700,10.98095263671875,-0.00007635809743078426,-0.00022907429956831038,0.000305432389723137
1772720908413548800,10.999548828125,-0.0016035200096666813,-0.00022907429956831038,-0.000610864779446274
1772720908432145000,11.018144775390626,-0.0006872228696011007,-0.00022907429956831038,-0.000305432389723137
1772720908450741000,11.036740966796875,-0.0009926552884280682,0.0006872228696011007,0.0009162971982732415
1772720908469337000,11.055337158203125,-0.0012980876490473747,0.0006872228696011007,0.000610864779446274
1772720908487933200,11.07393310546875,0.00022907429956831038,-0.00022907429956831038,0.000305432389723137
1772720908506529300,11.092529296875,-0.00007635809743078426,-0.0011453714687377214,0.000305432389723137
1772720908525125400,11.11112548828125,-0.0009926552884280682,-0.00022907429956831038,-0.000305432389723137
1772720908543721500,11.129721435546875,-0.00038179047987796366,-0.00022907429956831038,0
1772720908562317600,11.148317626953125,-0.00038179047987796366,-0.00022907429956831038,0.000610864779446274
1772720908580913700,11.16691357421875,-0.0006872228696011007,0.00038179047987796366,0.000610864779446274
1772720908599509800,11.185509765625,-0.00007635809743078426,0.0006872228696011007,0.001221729558892548
1772720908618105900,11.20410595703125,-0.0009926552884280682,0.00007635809743078426,0.000610864779446274
1772720908636702000,11.222701904296875,-0.00007635809743078426,0.00007635809743078426,0.0009162971982732415
1772720908655298000,11.241298095703126,-0.00038179047987796366,0.0009926552884280682,0
1772720908673894100,11.25989404296875,0.0005345066892914474,-0.0005345066892914474,0.0015271619195118546
1772720908692490200,11.278490234375,-0.00038179047987796366,0.0006872228696011007,-0.000305432389723137
1772720908711086300,11.29708642578125,-0.0009926552884280682,-0.0005345066892914474,0
1772720908729682400,11.315682373046876,0.0005345066892914474,-0.0005345066892914474,0.0009162971982732415
1772720908748278500,11.334278564453125,-0.00038179047987796366,0.0006872228696011007,-0.000305432389723137
1772720908766874600,11.35287451171875,-0.00038179047987796366,0.00007635809743078426,-0.000305432389723137
1772720908785470700,11.371470703125,-0.0012980876490473747,0.014126247726380825,0.008857538923621178
1772720908804066800,11.39006689453125,-0.0006872228696011007,0.00679587060585618,0.005803215317428112
1772720908822663000,11.408662841796875,0.0005345066892914474,0.011682788841426373,0.003970621153712273
1772720908841259000,11.427259033203125,0.000839939049910754,-0.06406444311141968,-0.03176496922969818
1772720908859855000,11.445855224609375,-0.00007635809743078426,0.0006872228696011007,0
