time,seconds_elapsed,z,y,x
1772721099060500700,0.079500732421875,0,0,0
1772721099079096600,0.0980966796875,-0.07313919067382812,-0.09865987300872803,0.10035967826843262
1772721099097692400,0.1166923828125,-0.021718978881835938,-0.12996721267700195,0.2725532054901123
1772721099116288300,0.135288330078125,-0.17726421356201172,-0.21541869640350342,0.49648547172546387
1772721099134884000,0.153884033203125,-0.7669820785522461,-0.07772684097290039,0.7468266487121582
1772721099153480000,0.17247998046875,-1.324967384338379,0.1430368423461914,1.1456550359725952
1772721099172075800,0.19107568359375,-1.5397310256958008,0.20932328701019287,1.4421064853668213
1772721099190671600,0.209671630859375,-1.1215782165527344,0.11072885990142822,1.2215752601623535
1772721099209267500,0.228267333984375,-0.5519189834594727,-0.014944791793823242,0.5257019400596619
1772721099227863300,0.24686328125,0.02735614776611328,-0.012180447578430176,0.40061941742897034
1772721099246459100,0.265459228515625,0.3983650207519531,0.07854354381561279,0.32738029956817627
1772721099265055000,0.284054931640625,0.5346107482910156,0.1224595308303833,0.3891432285308838
1772721099283650800,0.30265087890625,0.23743534088134766,0.16470372676849365,0.22236940264701843
1772721099302246700,0.32124658203125,0.02673625946044922,0.3017488718032837,0.36374303698539734
1772721099320842500,0.339842529296875,-0.04485893249511719,0.36648333072662354,0.5938894748687744
1772721099339438300,0.358438232421875,0.20020771026611328,0.4257112741470337,0.740520715713501
1772721099358034200,0.3770341796875,0.20158863067626953,0.521350622177124,0.7235437035560608
1772721099376630000,0.395630126953125,-0.537531852722168,0.533637523651123,0.2698611617088318
1772721099395225900,0.414225830078125,-0.8620624542236328,0.5049041509628296,-0.15757715702056885
1772721099413821700,0.43282177734375,-0.7809476852416992,0.4667489528656006,0.09255599975585938
1772721099432417500,0.45141748046875,-0.47518348693847656,0.5687507390975952,0.19664829969406128
1772721099451013400,0.470013427734375,-0.026307106018066406,0.7390273809432983,0.22930818796157837
1772721099469609200,0.488609130859375,0.8119945526123047,0.7023824453353882,0.4970228672027588
1772721099488205000,0.507205078125,1.3289518356323242,0.5867122411727905,0.48282861709594727
1772721099506801000,0.52580078125,1.442215919494629,0.5651804208755493,0.29767751693725586
1772721099525396700,0.544396728515625,1.4262466430664062,0.6317750215530396,0.39926791191101074
1772721099543992600,0.56299267578125,0.8625717163085938,0.6292507648468018,0.6219037771224976
1772721099562588400,0.58158837890625,0.015941619873046875,0.739992618560791,0.6781456470489502
1772721099581184300,0.600184326171875,-0.37973594665527344,0.8072690963745117,0.8651726245880127
1772721099599780000,0.618780029296875,-0.5959882736206055,0.5377295017242432,1.3264261484146118
1772721099618376000,0.6373759765625,-0.34075450897216797,0.4775369167327881,0.9943008422851562
1772721099636971800,0.6559716796875,0.6352481842041016,0.12022757530212402,0.17608296871185303
1772721099655567600,0.674567626953125,1.2992258071899414,-0.3207120895385742,0.08300459384918213
1772721099674163500,0.69316357421875,1.752202033996582,-0.48331642150878906,-0.013543009757995605
1772721099692759300,0.71175927734375,1.7422494888305664,-0.5232887268066406,-0.017195701599121094
1772721099711355100,0.730355224609375,1.527597427368164,-0.5876386165618896,-0.38465234637260437
1772721099729951000,0.748950927734375,1.0471000671386719,-0.6050485372543335,-0.6630028486251831
1772721099748546800,0.767546875,0.4851694107055664,-0.7577840089797974,-0.4067266881465912
1772721099767143000,0.786142822265625,0.16214752197265625,-1.0523861646652222,-0.32968586683273315
1772721099785738800,0.80473876953125,-0.3181467056274414,-1.1156638860702515,-0.261940598487854
1772721099804334600,0.82333447265625,-1.0641822814941406,-1.0845398902893066,0.16170281171798706
1772721099822930400,0.841930419921875,-1.5747413635253906,-1.1735501289367676,0.3667076826095581
1772721099841526000,0.860526123046875,-1.4776744842529297,-1.31342613697052,-0.26078516244888306
1772721099860121900,0.879121826171875,-1.215132713317871,-1.1989572048187256,-0.8218275308609009
1772721099878717700,0.8977177734375,-1.2300090789794922,-0.7628769874572754,-1.1333198547363281
1772721099897313500,0.9163134765625,-1.0291738510131836,-0.5638333559036255,-1.0247193574905396
1772721099915909400,0.934909423828125,-0.3000011444091797,-1.0509086847305298,-1.0860236883163452
1772721099934505200,0.953505126953125,0.6360702514648438,-1.6096361875534058,-1.268311858177185
1772721099953101000,0.97210107421875,1.0754880905151367,-1.3361992835998535,-1.2605715990066528
1772721099971697000,0.99069677734375,1.3242979049682617,-0.9581668376922607,-1.1830002069473267
1772721099990292700,1.009292724609375,1.0680837631225586,-0.9245659112930298,-1.1235734224319458
1772721100008888600,1.027888671875,0.5437746047973633,-1.0494964122772217,-1.2010661363601685
1772721100027484700,1.046484619140625,-0.19345951080322266,-1.1191893815994263,-1.376816987991333
1772721100046080500,1.06508056640625,-0.17438316345214844,-0.9905860424041748,-1.093639612197876
1772721100064676400,1.08367626953125,0.14805984497070312,-1.1737711429595947,-0.6608613133430481
1772721100083272200,1.102272216796875,0.5892200469970703,-1.320340633392334,-0.1508546769618988
1772721100101868000,1.120867919921875,0.6277618408203125,-1.3763749599456787,0.26511871814727783
1772721100120464000,1.1394638671875,0.44942569732666016,-1.0730493068695068,0.6111771464347839
1772721100139059500,1.1580595703125,-0.20756912231445312,-0.6455061435699463,0.8023824691772461
1772721100157655300,1.1766552734375,-0.7390069961547852,-0.08249711990356445,0.6188341379165649
1772721100176251100,1.195251220703125,-1.1377019882202148,0.1525580883026123,0.17900067567825317
1772721100194847000,1.213846923828125,-1.159585952758789,0.520102858543396,-0.4158012568950653
1772721100213442800,1.23244287109375,-0.6194982528686523,1.0553739070892334,-0.3010530173778534
1772721100232038700,1.25103857421875,0.5385351181030273,1.1906613111495972,0.1839398741722107
1772721100250634500,1.269634521484375,1.6391706466674805,0.9865913391113281,0.3614242970943451
1772721100269230300,1.288230224609375,1.8326082229614258,0.6293660402297974,0.37507328391075134
1772721100287826200,1.306826171875,1.3093576431274414,0.6823608875274658,0.2764643728733063
1772721100306422000,1.325422119140625,0.27312469482421875,0.7913380861282349,0.22341543436050415
1772721100325017900,1.344017822265625,-0.6921901702880859,0.6714581251144409,0.39008593559265137
1772721100343613700,1.36261376953125,-0.8107166290283203,0.7193378210067749,0.2491769641637802
1772721100362209500,1.38120947265625,-0.18143081665039062,0.6243785619735718,-0.06918439269065857
1772721100380805400,1.399805419921875,0.1587371826171875,0.6582440137863159,-0.4992193579673767
1772721100399401200,1.418401123046875,-0.13927555084228516,0.6545288562774658,-0.6692871451377869
1772721100417997000,1.4369970703125,-0.5751161575317383,0.6204444169998169,-0.45053908228874207
1772721100436593000,1.455593017578125,-0.5702133178710938,0.2884758710861206,0.17108890414237976
1772721100455188700,1.474188720703125,-0.573786735534668,0.5334537029266357,-0.19225221872329712
1772721100473784600,1.49278466796875,-0.7064952850341797,0.5949187278747559,-0.6422509551048279
1772721100492380400,1.51138037109375,-0.6794071197509766,0.8749816417694092,-0.7411998510360718
1772721100510976300,1.529976318359375,-0.1576528549194336,0.848372220993042,-0.4984707236289978
1772721100529572000,1.548572021484375,0.7931365966796875,0.32074522972106934,-0.7215245366096497
1772721100548168000,1.56716796875,1.838383674621582,0.49091625213623047,-0.8343986868858337
1772721100566763800,1.585763671875,1.497030258178711,0.47983479499816895,-0.5914813876152039
1772721100585359600,1.604359619140625,0.5546808242797852,0.5860193967819214,-0.4362972378730774
1772721100603955500,1.62295556640625,-0.5320405960083008,0.6854721307754517,-0.7928114533424377
1772721100622551300,1.64155126953125,-0.8377704620361328,0.23974502086639404,-1.346207857131958
1772721100641147100,1.660147216796875,-0.20794391632080078,-0.28273820877075195,-1.4785950183868408
1772721100659743000,1.678742919921875,1.0208740234375,-0.7467546463012695,-0.9893369078636169
1772721100678338800,1.6973388671875,1.8729619979858398,-0.8901715278625488,0.06998523324728012
1772721100696934700,1.7159345703125,2.120420455932617,-0.8531904220581055,1.6647090911865234
1772721100715530500,1.734530517578125,0.7228631973266602,-0.42378664016723633,2.0941264629364014
1772721100734126300,1.753126220703125,-0.48447322845458984,0.08743870258331299,1.1604137420654297
1772721100752722200,1.77172216796875,-0.5968427658081055,0.10019540786743164,0.01560436561703682
1772721100771318000,1.790318115234375,0.43956756591796875,-0.129072904586792,-0.613283634185791
1772721100789913900,1.808913818359375,1.3108320236206055,-0.3518773317337036,-0.6371610760688782
1772721100808509700,1.827509765625,1.291182518005371,-0.5653218626976013,-0.5535454750061035
1772721100827105500,1.84610546875,0.5937404632568359,-0.919784426689148,-0.8620970249176025
1772721100845701400,1.864701416015625,-0.1603870391845703,-1.3032535314559937,-1.2794709205627441
1772721100864297200,1.883297119140625,-0.7702064514160156,-1.5473415851593018,-0.9167145490646362
1772721100882893000,1.90189306640625,-0.7550230026245117,-1.5721319913864136,0.1077035665512085
1772721100901489000,1.920489013671875,-0.13828182220458984,-1.528924584388733,0.8558614253997803
1772721100920084700,1.939084716796875,0.056976318359375,-1.3227698802947998,2.1642746925354004
1772721100938680600,1.9576806640625,0.1684093475341797,-1.4038656949996948,2.817995071411133
1772721100957276400,1.9762763671875,0.43520069122314453,-1.294249176979065,2.170149087905884
1772721100975872300,1.994872314453125,0.8604974746704102,-1.0318135023117065,1.0567072629928589
1772721100994468000,2.013468017578125,1.4326915740966797,-0.9508477449417114,-0.1465218961238861
1772721101013064000,2.03206396484375,1.3672981262207031,-0.8575116991996765,-1.181061863899231
1772721101031659800,2.05065966796875,1.442850112915039,-0.661158561706543,-1.4203314781188965
1772721101050255600,2.069255615234375,1.2096376419067383,-0.3747440576553345,-0.8559173345565796
1772721101068851500,2.0878515625,0.36241912841796875,-0.09068787097930908,0.03403598815202713
1772721101087447300,2.106447265625,-0.8448715209960938,0.1751091480255127,0.6079272031784058
1772721101106043100,2.125043212890625,-1.6356515884399414,0.19703984260559082,0.6326472759246826
1772721101124638700,2.143638671875,-1.8594465255737305,0.20091676712036133,0.3318237364292145
1772721101143234600,2.162234619140625,-1.2183818817138672,0.343450665473938,0.4513712227344513
1772721101161830400,2.180830322265625,-0.2158050537109375,0.6102069616317749,0.5813156962394714
1772721101180426200,2.19942626953125,0.36228466033935547,0.9573328495025635,0.733243465423584
1772721101199022000,2.21802197265625,0.00986480712890625,1.2111117839813232,0.8372976183891296
1772721101217618000,2.236617919921875,-0.8614044189453125,1.4201748371124268,0.7416348457336426
1772721101236213800,2.2552138671875,-1.2839469909667969,1.386087417602539,0.39007508754730225
1772721101254809600,2.2738095703125,-1.0478935241699219,1.3785492181777954,0.07325385510921478
1772721101273405400,2.292405517578125,-0.8882112503051758,1.4479023218154907,-0.2571616768836975
1772721101292001300,2.311001220703125,-0.4425954818725586,1.430992841720581,-0.47915056347846985
1772721101310597000,2.32959716796875,-0.22319507598876953,1.3240257501602173,-0.40451884269714355
1772721101329193000,2.34819287109375,-0.678955078125,1.3314623832702637,-0.24033960700035095
1772721101347788800,2.366788818359375,-0.9017829895019531,1.2855277061462402,0.028681809082627296
1772721101366384600,2.385384521484375,-1.0806169509887695,1.0688209533691406,0.30876386165618896
1772721101384980500,2.40398046875,-1.1573972702026367,0.8035814762115479,0.20899994671344757
1772721101403576300,2.422576416015625,-0.15870380401611328,0.6344265937805176,-0.022237077355384827
1772721101422172200,2.441172119140625,0.3602304458618164,0.5072946548461914,-0.04904235899448395
1772721101440768000,2.45976806640625,0.12731647491455078,0.678795576095581,-0.0341191291809082
1772721101459363800,2.47836376953125,-0.2335348129272461,1.0866103172302246,0.8155597448348999
1772721101477959700,2.496959716796875,-0.1841411590576172,1.4310535192489624,2.4466047286987305
1772721101496555500,2.515555419921875,0.8890666961669922,1.2377516031265259,3.8097712993621826
1772721101515151400,2.5341513671875,2.141225814819336,0.782428503036499,3.3123035430908203
1772721101533747200,2.552747314453125,2.8391294479370117,0.4953935146331787,1.160158395767212
1772721101552343000,2.571343017578125,3.0692644119262695,-0.011347413063049316,-1.032860279083252
1772721101570939000,2.58993896484375,2.546290397644043,-0.45232629776000977,-2.7954812049865723
1772721101589534500,2.608534423828125,1.626800537109375,-0.6562564969062805,-3.119354009628296
1772721101608130300,2.62713037109375,1.001978874206543,-0.8377480506896973,-2.1423087120056152
1772721101626726100,2.64572607421875,0.6710596084594727,-1.0478160381317139,-0.1596277505159378
1772721101645322000,2.664322021484375,-0.08645248413085938,-1.117276668548584,1.9130668640136719
1772721101663917800,2.682917724609375,-1.0232353210449219,-1.2917232513427734,2.9796557426452637
1772721101682513700,2.701513671875,-1.6097497940063477,-1.6456148624420166,2.6434216499328613
1772721101701109500,2.720109619140625,-1.8591570854187012,-1.6942493915557861,2.0092215538024902
1772721101719705300,2.738705322265625,-1.7720894813537598,-1.4769699573516846,1.4062418937683105
1772721101738301200,2.75730126953125,-1.3895559310913086,-1.3920872211456299,0.35004276037216187
1772721101756897000,2.77589697265625,-0.5481958389282227,-1.3661959171295166,-0.8235424757003784
1772721101775492900,2.794492919921875,0.19664764404296875,-1.007083773612976,-1.8882468938827515
1772721101794088700,2.813088623046875,0.6009731292724609,-0.8055187463760376,-2.8489890098571777
1772721101812684500,2.8316845703125,0.37422847747802734,-1.1104284524917603,-3.7628872394561768
1772721101831280400,2.8502802734375,-0.27303409576416016,-1.5663204193115234,-4.038625717163086
1772721101849876200,2.868876220703125,-0.7776975631713867,-1.8017816543579102,-3.2489964962005615
1772721101868472000,2.88747216796875,-0.7371139526367188,-1.9848741292953491,-2.0840773582458496
1772721101887068000,2.90606787109375,0.11833572387695312,-1.8630987405776978,-0.6299450397491455
1772721101905663700,2.924663818359375,1.0279321670532227,-1.55109441280365,0.5597376823425293
1772721101924259600,2.943259521484375,1.5210485458374023,-1.1262977123260498,0.713106095790863
1772721101942855400,2.96185546875,1.3146171569824219,-0.7444747686386108,0.33834579586982727
1772721101961451300,2.980451171875,0.5917854309082031,-0.21413445472717285,0.2774678170681
1772721101980046800,2.999046875,-0.3246145248413086,-0.03190457820892334,0.06328993290662766
1772721101998642700,3.017642578125,-0.9696235656738281,-0.1885690689086914,-0.35320979356765747
1772721102017238500,3.036238525390625,-0.96051025390625,-0.1709979772567749,-0.5434064269065857
1772721102035834400,3.05483447265625,-0.5858421325683594,0.0061293840408325195,-0.9031726717948914
1772721102054430200,3.07343017578125,0.031391143798828125,0.24906384944915771,-1.3105061054229736
1772721102073026000,3.092026123046875,0.7163982391357422,0.425462007522583,-1.5116742849349976
1772721102091622000,3.110621826171875,0.7582101821899414,0.2993353605270386,-1.769610047340393
1772721102110217700,3.1292177734375,0.21167850494384766,0.041190147399902344,-1.7538719177246094
1772721102128813600,3.1478134765625,-0.19821739196777344,-0.06826996803283691,-1.406360387802124
1772721102147409400,3.166409423828125,-0.005154609680175781,-0.22827017307281494,-0.7252208590507507
1772721102166005200,3.185005126953125,0.31099796295166016,-0.32042133808135986,-0.09276121854782104
1772721102184601000,3.20360107421875,0.6250104904174805,-0.301052451133728,0.5048309564590454
1772721102203197000,3.222197021484375,0.39470767974853516,-0.5307615995407104,0.2530062794685364
1772721102221792800,3.240792724609375,0.059490203857421875,-0.8213474750518799,-0.37981635332107544
1772721102240388600,3.259388671875,-0.1582622528076172,-0.9580925703048706,-0.8703973293304443
1772721102258984400,3.277984375,-0.03447151184082031,-0.7639473676681519,-0.7151020765304565
1772721102277580300,3.296580322265625,0.10681629180908203,-0.36558377742767334,-0.38091713190078735
1772721102296175900,3.31517578125,0.3424263000488281,-0.06468343734741211,-0.5489840507507324
1772721102314771700,3.333771728515625,0.31839942932128906,0.09740555286407471,-1.2933926582336426
1772721102333367600,3.352367431640625,-0.0125885009765625,0.2568877935409546,-2.1261186599731445
1772721102351963400,3.37096337890625,-0.49409961700439453,0.4479254484176636,-2.4445621967315674
1772721102370559200,3.389559326171875,-0.592864990234375,0.7483512163162231,-1.9142218828201294
1772721102389155000,3.408155029296875,-0.3879241943359375,0.8381487131118774,-1.007078766822815
1772721102407751000,3.4267509765625,-0.16003894805908203,0.35077226161956787,-0.7102466821670532
1772721102426346800,3.4453466796875,0.16524696350097656,-0.4095015525817871,-1.142486810684204
1772721102444942600,3.463942626953125,0.12567901611328125,-0.8324013948440552,-1.547316312789917
1772721102463538400,3.482538330078125,-0.347930908203125,-0.741073489189148,-1.4402543306350708
1772721102482134300,3.50113427734375,-0.869633674621582,-0.5563347339630127,-0.7149967551231384
1772721102500730000,3.519730224609375,-1.0109386444091797,-0.5186672210693359,-0.043527521193027496
1772721102519326000,3.538325927734375,-0.9632244110107422,-0.6309958696365356,0.001894444227218628
1772721102537921500,3.556921630859375,-0.7358274459838867,-0.736481785774231,-0.3248390555381775
1772721102556517400,3.575517333984375,-0.1955242156982422,-0.7246664762496948,-0.6393635272979736
1772721102575113200,3.59411328125,0.09134387969970703,-0.7066700458526611,-0.8317323923110962
1772721102593709000,3.612708984375,0.17762374877929688,-0.6712924838066101,-0.6737914681434631
1772721102612305000,3.631304931640625,0.13006877899169922,-0.606980562210083,-0.505131185054779
1772721102630900700,3.649900634765625,0.10960578918457031,-0.7042977213859558,0.38683462142944336
1772721102649496600,3.66849658203125,0.2981128692626953,-0.788899838924408,1.0256792306900024
1772721102668092400,3.687092529296875,0.7296791076660156,-0.6595491170883179,1.6749751567840576
1772721102686688300,3.705688232421875,1.4412717819213867,-0.2834053039550781,1.6197080612182617
1772721102705283800,3.724283935546875,2.447223663330078,0.19847607612609863,1.196709394454956
1772721102723879700,3.742879638671875,3.1578760147094727,0.40873801708221436,1.146324872970581
1772721102742475500,3.7614755859375,2.8902406692504883,0.43806910514831543,0.7520309090614319
1772721102761071400,3.7800712890625,1.829416275024414,0.2827507257461548,-0.15575194358825684
1772721102779667200,3.798667236328125,0.5583086013793945,0.2704557180404663,-1.0172884464263916
1772721102798263000,3.817262939453125,-0.3413724899291992,0.46964049339294434,-1.3773651123046875
1772721102816859000,3.83585888671875,-0.9363517761230469,0.8516288995742798,-0.8908164501190186
1772721102835454700,3.854454833984375,-1.227670669555664,1.152945637702942,0.4366759955883026
1772721102854050600,3.873050537109375,-1.2063236236572266,0.9313952922821045,1.344106674194336
1772721102872646400,3.891646484375,-1.1252222061157227,0.5003167390823364,0.7412604689598083
1772721102891242200,3.9102421875,-0.7588539123535156,0.3413865566253662,0.40658795833587646
1772721102909838000,3.928838134765625,-0.2302713394165039,0.3406873941421509,0.5009307265281677
1772721102928434000,3.947433837890625,0.171966552734375,0.3294111490249634,0.4727697968482971
1772721102947029500,3.966029541015625,0.4046764373779297,0.2634328603744507,0.3963773548603058
1772721102965625300,3.984625244140625,0.40883827209472656,0.1536654233932495,-0.07630438357591629
1772721102984221200,4.00322119140625,0.23778152465820312,0.06510782241821289,-0.3204079866409302
1772721103002817000,4.021817138671875,-0.1361074447631836,0.18552541732788086,-0.36503878235816956
1772721103021412900,4.040412841796875,-0.4152088165283203,0.3885788917541504,-0.4226641058921814
1772721103040008700,4.0590087890625,-0.6998376846313477,0.3575925827026367,-0.8559826016426086
1772721103058604500,4.0776044921875,-0.7882089614868164,0.5109894275665283,-1.0946340560913086
1772721103077200400,4.096200439453125,-0.612116813659668,0.756230354309082,-0.9168785214424133
1772721103095796200,4.114796142578125,-0.5841808319091797,0.7433964014053345,-0.828956127166748
1772721103114392000,4.13339208984375,-0.8031749725341797,0.7493578195571899,-0.6876367926597595
1772721103132988000,4.15198779296875,-0.8344268798828125,0.6645231246948242,-0.36757194995880127
1772721103151583500,4.17058349609375,-0.8380517959594727,0.6388238668441772,-0.15580591559410095
1772721103170179300,4.189179443359375,-0.7275781631469727,0.6187644004821777,-0.1738593876361847
1772721103198073000,4.217072998046875,-0.8304758071899414,0.5643924474716187,-0.4599792957305908
1772721103216669000,4.2356689453125,-0.8532018661499023,0.4835317134857178,-0.5092436671257019
1772721103235264800,4.2542646484375,-0.9506702423095703,0.49717605113983154,-0.34171009063720703
1772721103253860600,4.272860595703125,-0.9285240173339844,0.6316361427307129,0.04315078258514404
1772721103272456400,4.29145654296875,-0.6870193481445312,0.7877621650695801,0.4654647707939148
1772721103291052300,4.31005224609375,-0.14642906188964844,0.8212772607803345,0.8510980010032654
1772721103309648100,4.328648193359375,0.17217445373535156,0.9154434204101562,0.7518247365951538
1772721103328244000,4.347243896484375,0.49275779724121094,1.0470722913742065,0.6078010201454163
1772721103346839600,4.365839599609375,0.9445600509643555,0.9468953609466553,0.5807766318321228
1772721103365435400,4.384435302734375,1.079620361328125,0.8691716194152832,0.592272162437439
1772721103384031200,4.40303125,0.7506074905395508,0.7009792327880859,0.6792315244674683
1772721103402627000,4.421626953125,0.201812744140625,0.6417219638824463,0.9097720384597778
1772721103421223000,4.440222900390625,-0.13793468475341797,0.674278974533081,1.1913692951202393
1772721103439818800,4.45881884765625,-0.2698535919189453,0.7708499431610107,1.076930046081543
1772721103458414600,4.47741455078125,-0.19533443450927734,0.8206430673599243,0.8299678564071655
1772721103477010400,4.496010498046875,-0.17646217346191406,0.9209727048873901,0.729533314704895
1772721103495606000,4.51460595703125,-0.37833499908447266,1.0150413513183594,0.7543901205062866
1772721103514201900,4.533201904296875,-0.6887664794921875,0.9231880903244019,0.8836138844490051
1772721103532797700,4.551797607421875,-0.9693441390991211,0.6877944469451904,0.9247545003890991
1772721103551393500,4.5703935546875,-0.8263740539550781,0.5568195581436157,0.9319733381271362
1772721103569989400,4.5889892578125,-0.6337289810180664,0.6352550983428955,0.8191863298416138
1772721103588585200,4.607585205078125,-0.4616212844848633,0.837329626083374,0.7023507356643677
1772721103607181000,4.62618115234375,-0.06232261657714844,1.0496798753738403,1.0161828994750977
1772721103625776600,4.644776611328125,0.7033557891845703,1.1901849508285522,1.5303785800933838
1772721103644372500,4.66337255859375,1.4953527450561523,0.8667775392532349,1.4170831441879272
1772721103662968300,4.68196826171875,1.9427452087402344,0.6329778432846069,0.4886602759361267
1772721103681564200,4.700564208984375,1.9072046279907227,0.5505274534225464,0.00793483853340149
1772721103700160000,4.719159912109375,1.4976081848144531,0.6599667072296143,-0.021449744701385498
1772721103718755800,4.737755859375,1.1420173645019531,0.6756675243377686,0.14659979939460754
1772721103737351700,4.7563515625,1.170231819152832,0.47478222846984863,0.3295164108276367
1772721103755947500,4.774947509765625,1.227339744567871,0.14797306060791016,0.2156686782836914
1772721103774543000,4.793543212890625,0.9964447021484375,-0.1402040719985962,-0.27345460653305054
1772721103793139000,4.812138916015625,0.6138219833374023,-0.5445141792297363,-0.5999760031700134
1772721103811734800,4.83073486328125,0.2818288803100586,-1.0220754146575928,-0.44489163160324097
1772721103830330600,4.84933056640625,0.2007293701171875,-1.47894287109375,0.06459146738052368
1772721103848926500,4.867926513671875,0.3859434127807617,-1.8308119773864746,0.38473448157310486
1772721103867522300,4.886522216796875,0.16376972198486328,-2.121486186981201,0.27387842535972595
1772721103886118100,4.9051181640625,-0.8502349853515625,-2.112758159637451,-0.03406035900115967
1772721103904714000,4.9237138671875,-1.9717254638671875,-2.155167818069458,-0.15365062654018402
1772721103923309600,4.9423095703125,-2.2287912368774414,-2.1124837398529053,0.13203290104866028
1772721103941905400,4.960905517578125,-2.000753402709961,-1.777129888534546,0.7078227996826172
1772721103960501200,4.979501220703125,-1.4376029968261719,-1.3421896696090698,1.0100136995315552
1772721103979097000,4.99809716796875,-0.6427221298217773,-1.0253419876098633,0.743324339389801
1772721103997693000,5.01669287109375,-0.021437644958496094,-0.9664870500564575,-0.16065925359725952
1772721104016288800,5.035288818359375,0.1428823471069336,-0.8036512136459351,-1.3796178102493286
1772721104034884600,5.053884521484375,0.027115821838378906,-0.38926947116851807,-2.012226104736328
1772721104053480400,5.07248046875,0.08497238159179688,0.20964443683624268,-1.9299322366714478
1772721104072076000,5.091075927734375,0.27132415771484375,0.6923230886459351,-1.6986725330352783
1772721104090671900,5.109671875,0.6908912658691406,0.7703830003738403,-1.6503397226333618
1772721104109267700,5.128267822265625,0.9282350540161133,0.5812288522720337,-2.0458524227142334
1772721104127863600,5.146863525390625,0.6797380447387695,0.3254736661911011,-2.4894795417785645
1772721104146459400,5.16545947265625,0.503962516784668,0.22657299041748047,-2.3924663066864014
1772721104165055200,5.18405517578125,0.4343547821044922,0.11840939521789551,-2.075923442840576
1772721104183651000,5.202651123046875,0.3083362579345703,-0.13543951511383057,-1.6622713804244995
1772721104202247000,5.221246826171875,-0.04334068298339844,-0.5635913610458374,-1.100905179977417
1772721104220842500,5.239842529296875,-0.18993663787841797,-0.8844718933105469,-0.4905790090560913
1772721104239438300,5.258438232421875,-0.585536003112793,-1.0501044988632202,-0.1229279637336731
1772721104258034200,5.2770341796875,-0.9468631744384766,-0.9981125593185425,0.00756072998046875
1772721104276630000,5.295630126953125,-1.046243667602539,-0.7645419836044312,0.055201947689056396
1772721104295225900,5.314225830078125,-0.7088346481323242,-0.4734010696411133,0.10908827185630798
1772721104313821700,5.33282177734375,-0.23925495147705078,-0.08600819110870361,0.0817464217543602
1772721104332417500,5.35141748046875,0.19876956939697266,0.17955970764160156,0.06032860279083252
1772721104351013000,5.37001318359375,0.47440338134765625,0.4350517988204956,0.17158246040344238
1772721104369609000,5.38860888671875,0.34366607666015625,0.7251479625701904,0.19086581468582153
1772721104388204800,5.407204833984375,0.08705997467041016,0.9579787254333496,0.11184939742088318
1772721104406800600,5.425800537109375,-0.041039466857910156,0.97802734375,0.0666930079460144
1772721104425396500,5.444396484375,0.03060626983642578,0.941321849822998,-0.06150388717651367
1772721104443992300,5.462992431640625,0.5223855972290039,0.90283203125,0.08174830675125122
1772721104462588200,5.481588134765625,0.8205451965332031,0.8764554262161255,0.15993580222129822
1772721104481183700,5.500183837890625,0.7305803298950195,0.8150714635848999,0.24104830622673035
1772721104499779600,5.518779541015625,0.24239635467529297,0.7952386140823364,0.202619731426239
1772721104518375400,5.53737548828125,-0.3975200653076172,0.7665901184082031,0.19186456501483917
1772721104536971300,5.55597119140625,-0.8050909042358398,0.8467855453491211,-0.008111506700515747
1772721104555567000,5.574567138671875,-0.8558940887451172,0.9291679859161377,-0.13003584742546082
1772721104574163000,5.593162841796875,-0.5217704772949219,1.076055645942688,-0.15421783924102783
1772721104592758800,5.6117587890625,-0.31711673736572266,1.1595014333724976,-0.05242833495140076
1772721104611354400,5.630354248046875,-0.40217018127441406,1.2505683898925781,-0.16097626090049744
1772721104629950200,5.6489501953125,-0.5203666687011719,1.1967037916183472,-0.2821710705757141
1772721104648546000,5.667546142578125,-0.4656553268432617,1.255761742591858,-0.5366494059562683
1772721104667142000,5.686141845703125,-0.25901031494140625,1.3464021682739258,-0.4953519105911255
1772721104685737700,5.70473779296875,-0.27524852752685547,1.4968479871749878,-0.2908710539340973
1772721104704333600,5.72333349609375,-0.10058975219726562,1.518943190574646,-0.05319869518280029
1772721104722929400,5.741929443359375,0.2540426254272461,1.3561354875564575,-0.3152914345264435
1772721104741525000,5.76052490234375,0.45969104766845703,1.0804202556610107,-1.233113408088684
1772721104760120800,5.779120849609375,0.30903053283691406,0.7326129674911499,-2.010512113571167
1772721104778716700,5.797716552734375,0.0757131576538086,0.38381898403167725,-2.054138422012329
1772721104797312500,5.8163125,0.6831417083740234,-0.08716559410095215,-1.2729921340942383
1772721104815908400,5.834908447265625,1.4088773727416992,-0.49067163467407227,-0.3601638674736023
1772721104834504200,5.853504150390625,1.5147514343261719,-0.8160160779953003,0.25454744696617126
1772721104853099800,5.872099853515625,1.1166152954101562,-0.9059305191040039,0.5045348405838013
1772721104871695600,5.890695556640625,0.43537044525146484,-0.7050949335098267,0.6677857041358948
1772721104890291500,5.90929150390625,-0.19416046142578125,-0.5911014080047607,0.4942600131034851
1772721104908887300,5.92788720703125,-0.3204059600830078,-0.5815242528915405,0.1415432095527649
1772721104927483100,5.946483154296875,-0.02763843536376953,-0.6184999942779541,-0.389570415019989
1772721104946079000,5.965078857421875,0.35810089111328125,-0.7349014282226562,-1.0274893045425415
1772721104964674600,5.983674560546875,0.11391925811767578,-0.8880600929260254,-1.5803229808807373
1772721104983270400,6.0022705078125,-0.36145973205566406,-0.9791193008422852,-1.5023014545440674
1772721105001866200,6.0208662109375,-0.8438701629638672,-0.8516697883605957,-0.9335017800331116
1772721105020462000,6.039462158203125,-0.9431772232055664,-0.694221019744873,-0.040056705474853516
1772721105039058000,6.058057861328125,-0.6358108520507812,-0.7401911020278931,0.9587066173553467
1772721105057653800,6.07665380859375,0.2763643264770508,-0.8885554075241089,1.5211464166641235
1772721105076249600,6.09524951171875,1.1001758575439453,-0.9780433177947998,1.7292829751968384
1772721105094845200,6.11384521484375,1.4804325103759766,-0.7258223295211792,1.819652795791626
1772721105113441000,6.13244091796875,1.911895751953125,-0.5599269866943359,1.343464732170105
1772721105132036900,6.151036865234375,2.341433525085449,-0.6391286849975586,0.8928451538085938
1772721105150632700,6.1696328125,2.106123924255371,-0.6360337734222412,0.4696533679962158
1772721105169228500,6.188228515625,1.151350975036621,-0.8729541301727295,-0.5131500959396362
1772721105187824400,6.206824462890625,0.33339500427246094,-1.1028800010681152,-1.3769209384918213
1772721105206420200,6.225420166015625,-0.39267921447753906,-1.0024325847625732,-1.0632290840148926
1772721105225015800,6.244015869140625,-0.989048957824707,-0.6894750595092773,-0.05326181650161743
1772721105243611600,6.262611572265625,-1.220688819885254,-0.447767972946167,0.5720610618591309
1772721105262207500,6.28120751953125,-1.0118989944458008,-0.33802950382232666,0.6752223968505859
1772721105280803300,6.29980322265625,-0.837559700012207,-0.26892900466918945,0.47080308198928833
1772721105299399200,6.318399169921875,-0.2188549041748047,-0.28293466567993164,0.3562735319137573
1772721105317995000,6.3369951171875,0.1721048355102539,-0.20410418510437012,0.15849238634109497
1772721105336590600,6.355590576171875,-0.3740673065185547,0.09841513633728027,0.5369901657104492
1772721105355186400,6.3741865234375,-0.6973600387573242,0.46401119232177734,0.9045343399047852
1772721105373782300,6.3927822265625,-0.7920265197753906,0.650113582611084,1.2510607242584229
1772721105392378000,6.411378173828125,-1.1261844635009766,0.9572505950927734,1.2748820781707764
1772721105410974000,6.429973876953125,-0.8479728698730469,1.0806376934051514,0.8703838586807251
1772721105429569500,6.448569580078125,-0.7033319473266602,1.2669000625610352,0.7579299211502075
1772721105448165400,6.467165283203125,-0.6665487289428711,1.4914960861206055,0.8033161163330078
1772721105466761200,6.48576123046875,-0.7443647384643555,1.6213548183441162,0.8879351615905762
1772721105485357000,6.504357177734375,-0.7520780563354492,1.4761285781860352,0.6960859894752502
1772721105503953000,6.522952880859375,-0.6534395217895508,1.2333223819732666,0.5120320320129395
1772721105522548500,6.541548583984375,-0.33325862884521484,1.131007432937622,0.720435380935669
1772721105541144300,6.560144287109375,-0.04946136474609375,1.0762324333190918,0.9898893237113953
1772721105559740200,6.578740234375,0.7726373672485352,0.8822221755981445,1.3401165008544922
1772721105578336000,6.5973359375,1.5325393676757812,0.5309057235717773,1.6503312587738037
1772721105596931800,6.615931884765625,1.7620983123779297,-0.040865182876586914,1.6717625856399536
1772721105615527400,6.63452734375,1.4965009689331055,-0.47258031368255615,0.21678225696086884
1772721105634123300,6.653123291015625,1.6573266983032227,-0.26053404808044434,-0.7276683449745178
1772721105652719000,6.671718994140625,2.124734878540039,-0.03182363510131836,-1.4282448291778564
1772721105671315000,6.69031494140625,2.5886335372924805,-0.3282172679901123,-1.9556089639663696
1772721105689910800,6.708910888671875,2.398179054260254,-0.8041883707046509,-2.2919397354125977
1772721105708506400,6.72750634765625,1.478271484375,-1.4502151012420654,-2.1129424571990967
1772721105727102200,6.746102294921875,0.2318258285522461,-1.8905019760131836,-1.3754674196243286
1772721105745698000,6.764697998046875,-1.2253236770629883,-2.1021528244018555,-0.13490045070648193
1772721105764294000,6.7832939453125,-2.4164047241210938,-1.7736468315124512,1.4401010274887085
1772721105782889700,6.8018896484375,-3.1556386947631836,-1.404362678527832,2.4938395023345947
1772721105801485300,6.8204853515625,-2.9971413612365723,-1.065749168395996,2.2878949642181396
1772721105820081200,6.8390810546875,-1.4891605377197266,-0.7909388542175293,1.322503924369812
1772721105838677000,6.857677001953125,0.2523794174194336,-0.6057243347167969,0.4167059361934662
1772721105857272800,6.87627294921875,0.7965497970581055,-0.5073307752609253,-0.6985799074172974
1772721105875868400,6.894868408203125,0.37305545806884766,-0.4001281261444092,-1.4476128816604614
1772721105894464300,6.91346435546875,-0.17047595977783203,-0.2327589988708496,-2.1515183448791504
1772721105913060000,6.93206005859375,0.039093017578125,-0.07291555404663086,-2.372426748275757
1772721105931656000,6.950656005859375,0.5299205780029297,-0.19582462310791016,-2.232482433319092
1772721105950251800,6.969251708984375,0.628596305847168,-0.40300559997558594,-1.9671388864517212
1772721105968847600,6.98784765625,0.3714303970336914,-0.5490169525146484,-1.6705034971237183
1772721105987443200,7.006443115234375,-0.510706901550293,-0.527618408203125,-1.7199681997299194
1772721106006039000,7.0250390625,-1.2055892944335938,-0.4535151720046997,-1.8533096313476562
1772721106024635000,7.043634765625,-1.7985639572143555,-0.2652285099029541,-1.8951599597930908
1772721106043230700,7.062230712890625,-1.3415031433105469,-0.3268396854400635,-2.0829925537109375
1772721106061826600,7.08082666015625,-0.48175048828125,-0.5057518482208252,-2.0535199642181396
1772721106080422100,7.099422119140625,0.3500232696533203,-0.6674938201904297,-1.8790836334228516
1772721106099018000,7.11801806640625,0.6655101776123047,-0.7510337829589844,-1.5731674432754517
1772721106117613800,7.13661376953125,0.6324462890625,-0.646338939666748,-0.8238753080368042
1772721106136209700,7.155209716796875,0.06514739990234375,-0.4454914331436157,0.003803286701440811
1772721106154805200,7.17380517578125,-0.4643383026123047,-0.2896769046783447,0.39382562041282654
1772721106173401000,7.192401123046875,-0.7284975051879883,-0.11250543594360352,0.4618475139141083
1772721106191997000,7.210996826171875,-0.5589017868041992,0.17394840717315674,0.23040765523910522
1772721106210592800,7.2295927734375,-0.1528177261352539,0.363879919052124,-0.4191009998321533
1772721106229188400,7.248188232421875,0.08734512329101562,0.5301728248596191,-0.9259629249572754
1772721106247784200,7.2667841796875,0.5675125122070312,0.5498559474945068,-0.9990869164466858
1772721106266380000,7.285380126953125,0.5409336090087891,0.5060560703277588,-0.7681601047515869
1772721106284975900,7.303975830078125,0.30559444427490234,0.37357091903686523,-0.4246341288089752
1772721106303571700,7.32257177734375,0.27044105529785156,0.2964416742324829,0.30182191729545593
1772721106322167300,7.341167236328125,0.41399478912353516,0.10771775245666504,0.9624692797660828
1772721106340763100,7.35976318359375,0.3964519500732422,-0.07753908634185791,1.2553863525390625
1772721106359359000,7.37835888671875,0.4228029251098633,-0.2627953290939331,1.2026257514953613
1772721106377954800,7.396954833984375,0.36127185821533203,-0.25345849990844727,0.9192014336585999
1772721106396550400,7.41555029296875,0.030945777893066406,-0.1370236873626709,0.7314520478248596
1772721106415146200,7.434146240234375,-0.18567180633544922,0.09318530559539795,0.7960858345031738
1772721106433742000,7.4527421875,-0.25600337982177734,0.3254786729812622,0.7890394330024719
1772721106452338000,7.471337890625,-0.49172115325927734,0.48079192638397217,0.482340008020401
1772721106470933800,7.489933837890625,-0.5753726959228516,0.7193107604980469,0.266654908657074
1772721106489529600,7.508529541015625,-0.3692741394042969,1.0791925191879272,0.21619349718093872
1772721106508125200,7.527125244140625,0.2510032653808594,1.2371200323104858,0.3132166266441345
1772721106526721000,7.545720947265625,0.7974681854248047,1.168021321296692,0.15324550867080688
1772721106545316900,7.56431689453125,0.9129257202148438,1.0928789377212524,-0.04155862331390381
1772721106563912700,7.58291259765625,0.4690542221069336,1.050336480140686,-0.09155786037445068
1772721106582508300,7.60150830078125,0.08701610565185547,1.0238840579986572,-0.006167709827423096
1772721106601104100,7.620104248046875,-0.18129634857177734,0.9066717624664307,-0.16731250286102295
1772721106619700000,7.638699951171875,-0.20592689514160156,0.8429139852523804,-0.4344562292098999
1772721106638295800,7.6572958984375,-0.07711124420166016,0.6584504842758179,-0.8648061752319336
1772721106656891400,7.675891357421875,0.16754150390625,0.4088951349258423,-1.286582112312317
1772721106675487200,7.6944873046875,0.05546283721923828,0.2448650598526001,-1.3427760601043701
1772721106694083000,7.7130830078125,-0.26384735107421875,-0.12337720394134521,-1.148943305015564
1772721106712678700,7.7316787109375,-0.6683931350708008,-0.5133907794952393,-0.8286222219467163
1772721106731274500,7.7502744140625,-0.8310365676879883,-0.9492512941360474,-0.4269011318683624
1772721106749870300,7.768870361328125,-0.7858219146728516,-1.1476023197174072,0.23771849274635315
1772721106768466200,7.787466064453125,-0.888066291809082,-1.014674425125122,0.762471079826355
1772721106787061800,7.806061767578125,-0.6629781723022461,-0.38500678539276123,0.671315610408783
1772721106805657600,7.82465771484375,0.48555469512939453,0.0918116569519043,0.026906795799732208
1772721106824253400,7.84325341796875,2.154759407043457,0.15696918964385986,-0.754459798336029
1772721106842849300,7.861849365234375,3.287491798400879,-0.08710849285125732,-1.4607324600219727
1772721106861445000,7.880445068359375,3.297562599182129,-0.45082610845565796,-1.6025021076202393
1772721106880040700,7.899040771484375,1.8034257888793945,-0.5631238222122192,-1.016817331314087
1772721106898636500,7.917636474609375,-0.019674301147460938,-0.6193201541900635,-0.21134299039840698
1772721106917232400,7.936232421875,-1.1114463806152344,-0.6298229694366455,0.39847907423973083
1772721106935828200,7.954828125,-1.2036705017089844,-0.7088406085968018,0.6908075213432312
1772721106954424000,7.973424072265625,-0.5112810134887695,-0.6954271793365479,0.9383542537689209
1772721106973019600,7.99201953125,0.018194198608398438,-0.6924630403518677,1.0592288970947266
1772721106991615500,8.010615478515625,0.2819690704345703,-0.7399513721466064,1.0774133205413818
1772721107010211300,8.02921142578125,0.3203763961791992,-0.7146515846252441,1.1546552181243896
1772721107028807000,8.047806884765626,0.1857738494873047,-0.4982569217681885,1.173902988433838
1772721107047402800,8.06640283203125,0.40639591217041016,-0.41115260124206543,0.7854089736938477
1772721107065998600,8.08499853515625,0.5419416427612305,-0.31403684616088867,0.45164287090301514
1772721107084594400,8.103594482421874,0.9431581497192383,-0.2900238037109375,0.30223894119262695
1772721107103190000,8.12218994140625,1.2046804428100586,-0.21775472164154053,0.13072216510772705
1772721107121785900,8.140785888671875,1.293410301208496,-0.32592034339904785,-0.23279380798339844
1772721107140381700,8.159381591796874,0.9553909301757812,-0.43666577339172363,-0.5543283224105835
1772721107158977300,8.177977294921876,0.5844907760620117,-0.6390981674194336,-0.8769718408584595
1772721107177573000,8.196572998046875,0.2519197463989258,-0.8515175580978394,-1.1994684934616089
1772721107196169000,8.2151689453125,-0.016162872314453125,-1.0530920028686523,-1.3635656833648682
1772721107214764800,8.233764892578124,-0.30912208557128906,-1.0460567474365234,-0.9124929904937744
1772721107233360600,8.252360595703125,-0.6649017333984375,-0.8287521600723267,-0.20207342505455017
1772721107251956200,8.270956298828125,-1.0783681869506836,-0.48851776123046875,0.40886783599853516
1772721107270552000,8.289552001953124,-1.3424577713012695,-0.16666460037231445,0.7687185406684875
1772721107289148000,8.30814794921875,-1.3615760803222656,0.048815250396728516,0.8839600086212158
1772721107307743700,8.32674365234375,-1.3829584121704102,0.2229750156402588,0.8094409704208374
1772721107326339300,8.34533935546875,-1.1755170822143555,0.3421487808227539,0.7180495262145996
1772721107344935200,8.36393505859375,-1.132843017578125,0.5156478881835938,0.5882582664489746
1772721107363531000,8.382531005859375,-0.9090051651000977,0.6395583152770996,0.34513285756111145
1772721107382126600,8.401126708984375,-0.5704269409179688,0.6599404811859131,0.1161230206489563
1772721107400722400,8.419722412109374,-0.3636598587036133,0.5687346458435059,-0.32831376791000366
1772721107419318300,8.438318359375,-0.43791770935058594,0.4917820692062378,-0.7239517569541931
1772721107437914000,8.4569140625,-0.4454936981201172,0.48414158821105957,-0.7622520327568054
1772721107456509700,8.475509765625,-0.3446807861328125,0.49126124382019043,-0.41332316398620605
1772721107475105500,8.49410546875,-0.075408935546875,0.5815502405166626,0.2419692575931549
1772721107493701400,8.512701416015625,0.2152423858642578,0.755874752998352,1.0929689407348633
1772721107512297000,8.531296875,0.10918998718261719,0.8982245922088623,1.7552728652954102
1772721107530892800,8.549892822265624,-0.03518390655517578,1.0617108345031738,2.153080463409424
1772721107549488600,8.568488525390626,0.15480995178222656,1.0527746677398682,2.2489240169525146
1772721107568084500,8.58708447265625,0.6421298980712891,0.7342125177383423,1.7691807746887207
1772721107586680300,8.605680419921875,1.0552387237548828,0.5448269844055176,0.7189139127731323
1772721107605276000,8.62427587890625,1.493021011352539,0.3352276086807251,-0.6301026344299316
1772721107623871700,8.642871826171875,1.61663818359375,0.011948227882385254,-1.759618878364563
1772721107642467600,8.661467529296875,1.9859657287597656,-0.17305350303649902,-1.9496405124664307
1772721107661063200,8.680063232421874,2.2310590744018555,-0.35836732387542725,-0.998504638671875
1772721107679659000,8.698658935546876,1.7480831146240234,-0.3917642831802368,0.450663685798645
1772721107698254800,8.7172548828125,0.6588306427001953,-0.5900024175643921,1.4672825336456299
1772721107716850400,8.735850341796874,-0.4519014358520508,-0.868658185005188,1.6701364517211914
1772721107735446300,8.7544462890625,-1.2296628952026367,-1.0827386379241943,1.172977328300476
1772721107754042000,8.7730419921875,-1.740321159362793,-1.2587863206863403,0.311908483505249
1772721107772637700,8.7916376953125,-1.8198761940002441,-1.4461699724197388,-0.2566986680030823
1772721107791233500,8.810233642578124,-1.754446029663086,-1.5331966876983643,-0.39348241686820984
1772721107809829400,8.828829345703125,-0.9920473098754883,-1.5746928453445435,-0.25510868430137634
1772721107828425200,8.84742529296875,-0.41846370697021484,-1.4506280422210693,-0.22991693019866943
1772721107847021000,8.86602099609375,0.014769554138183594,-1.122645616531372,-0.4718227982521057
1772721107865616600,8.88461669921875,0.2062511444091797,-0.8659510612487793,-0.6995363831520081
1772721107884212500,8.90321240234375,0.3394126892089844,-0.8226051330566406,-0.5810417532920837
1772721107902808300,8.921808349609375,0.5585746765136719,-0.8961936831474304,-0.13299375772476196
1772721107921404000,8.94040380859375,0.6128759384155273,-1.0243396759033203,0.36344969272613525
1772721107939999700,8.958999755859375,0.36766624450683594,-1.3229591846466064,0.4845471978187561
1772721107958595600,8.977595703125,0.26911449432373047,-1.5667327642440796,0.3361246585845947
1772721107977191200,8.996191162109374,0.02746105194091797,-1.49495530128479,0.0546121820807457
1772721107995787000,9.014787109375,-0.46054744720458984,-1.385668396949768,-0.3393966257572174
1772721108014382800,9.0333828125,-0.574152946472168,-1.3011951446533203,-0.688957154750824
1772721108032978400,9.051978515625,-0.6487998962402344,-1.2800986766815186,-1.2093935012817383
1772721108051574300,9.07057421875,-0.5307025909423828,-1.2071623802185059,-1.7653706073760986
1772721108070170000,9.089170166015625,-0.2189960479736328,-1.150637149810791,-1.8157838582992554
1772721108088766000,9.107765869140625,0.3004264831542969,-0.9678052663803101,-1.3620247840881348
1772721108107361500,9.126361572265624,1.0874452590942383,-0.6866611242294312,-0.8115744590759277
1772721108125957400,9.144957275390626,1.5129117965698242,-0.410119891166687,-0.46991127729415894
1772721108144553200,9.16355322265625,1.4425621032714844,-0.04465603828430176,0.08877861499786377
1772721108163148800,9.182148681640625,0.9648675918579102,0.3028538227081299,0.7797077894210815
1772721108181744600,9.20074462890625,0.6235542297363281,0.33627474308013916,0.9272270798683167
1772721108200340500,9.219340576171875,0.501469612121582,0.04481947422027588,0.27470162510871887
1772721108218936000,9.23793603515625,0.4145622253417969,-0.1432405710220337,-0.3576068878173828
1772721108237532000,9.256531982421874,0.41832923889160156,-0.21862351894378662,-0.7053660154342651
1772721108256127700,9.275127685546876,0.1832733154296875,-0.26953017711639404,-1.0454171895980835
1772721108274723300,9.293723388671875,-0.26111888885498047,-0.272477388381958,-1.2486371994018555
1772721108293319200,9.312319091796875,-0.7399625778198242,-0.3964076042175293,-1.457373023033142
1772721108311915000,9.3309150390625,-0.9853801727294922,-0.6271282434463501,-1.7161797285079956
1772721108330510800,9.3495107421875,-0.8141803741455078,-0.7186588048934937,-1.6199575662612915
1772721108349106400,9.3681064453125,-0.5581769943237305,-0.6954031586647034,-1.1320858001708984
1772721108367702300,9.386702392578124,-0.35768890380859375,-0.6815922856330872,-0.5352922677993774
1772721108386298000,9.405298095703126,-0.3087596893310547,-0.5539628863334656,0.04118284583091736
1772721108404893700,9.423893798828125,0.02745342254638672,-0.31290125846862793,0.40003150701522827
1772721108423489500,9.442489501953125,0.6269741058349609,-0.2652796506881714,0.2886984348297119
1772721108442085000,9.461085205078126,0.8697614669799805,-0.3131932020187378,-0.23235496878623962
1772721108460681000,9.479680908203125,0.7040033340454102,-0.25254249572753906,-0.7912172079086304
1772721108479276800,9.49827685546875,0.3102540969848633,-0.15299689769744873,-1.0651358366012573
1772721108497872400,9.516872314453124,0.006415367126464844,0.04571080207824707,-0.8710551261901855
1772721108516468200,9.53546826171875,0.06463909149169922,0.17123079299926758,-0.2117052972316742
1772721108535064000,9.55406396484375,0.23074626922607422,0.1764286756515503,0.2159753292798996
1772721108553660000,9.572659912109375,0.5799589157104492,0.12372791767120361,0.49806076288223267
1772721108572255500,9.59125537109375,0.8372097015380859,0.08958768844604492,0.5740926265716553
1772721108590851300,9.609851318359375,0.578883171081543,-0.019869685173034668,0.3212222456932068
1772721108609447000,9.628447021484375,0.30927085876464844,-0.21726763248443604,-0.23391160368919373
1772721108628042800,9.647042724609374,0.23250389099121094,-0.5089702606201172,-0.8975479006767273
1772721108646638600,9.665638671875,0.2956199645996094,-0.7081217765808105,-1.3022027015686035
1772721108665234200,9.684234130859375,0.28453636169433594,-0.7695403099060059,-1.2657854557037354
1772721108683830000,9.702830078125,-0.1730937957763672,-0.605025053024292,-0.9067480564117432
1772721108702425900,9.72142578125,-0.817535400390625,-0.5954525470733643,-0.478067547082901
1772721108721021400,9.740021484375,-1.495553970336914,-0.4724012613296509,-0.5281757116317749
1772721108739617300,9.7586171875,-1.7924275398254395,-0.8400219678878784,-1.0396124124526978
1772721108758213000,9.777213134765624,-1.1414012908935547,-0.958055853843689,-1.4625216722488403
1772721108776809000,9.79580908203125,-0.4283723831176758,-0.9263707399368286,-1.526701807975769
1772721108795404500,9.814404541015625,0.01528167724609375,-0.6802068948745728,-1.2349762916564941
1772721108814000400,9.83300048828125,-0.19006633758544922,-0.5051199197769165,-0.946614682674408
1772721108832596000,9.851595947265626,-0.29141998291015625,-0.2797931432723999,-0.2938450872898102
1772721108851191800,9.87019189453125,0.2867908477783203,-0.15621912479400635,0.496995747089386
1772721108869787600,9.88878759765625,0.9372844696044922,-0.05145573616027832,0.9753586053848267
1772721108888383200,9.90738330078125,1.1461639404296875,0.08020544052124023,1.3529208898544312
1772721108906979000,9.92597900390625,0.6125831604003906,-0.00025653839111328125,1.1158959865570068
1772721108925575000,9.944574951171875,0.020961761474609375,-0.1174391508102417,0.5441489815711975
1772721108944170500,9.96317041015625,-0.11392784118652344,0.1511380672454834,0.07751619815826416
1772721108962766300,9.981766357421876,0.0530548095703125,0.6355762481689453,-0.10125094652175903
1772721108981362200,10.000362060546875,0.2574892044067383,0.9170882701873779,-0.01864275336265564
1772721108999957800,10.018957763671875,0.27516937255859375,1.052207589149475,-0.024050921201705933
1772721109018553600,10.0375537109375,0.042855262756347656,1.1322911977767944,0.011256814002990723
1772721109037149200,10.056149169921875,0.04314899444580078,1.2313989400863647,0.36759480834007263
1772721109055745000,10.0747451171875,0.2736644744873047,1.3716373443603516,0.6339907646179199
1772721109074340900,10.0933408203125,0.182373046875,1.3849446773529053,0.29413852095603943
1772721109092936400,10.1119365234375,0.17307472229003906,1.3761556148529053,-0.13213670253753662
1772721109111532300,10.1305322265625,0.032782554626464844,1.3925400972366333,-0.28133755922317505
1772721109130128100,10.149128173828124,0.15017032623291016,1.4578837156295776,-0.3178665041923523
1772721109148723700,10.1677236328125,0.22222232818603516,1.3925609588623047,-0.3375912308692932
1772721109167319600,10.186319580078125,0.03694629669189453,1.3593430519104004,-0.31581705808639526
1772721109185915400,10.204915283203125,-0.2936668395996094,1.346917748451233,-0.20901983976364136
1772721109204511000,10.223510986328124,-0.6129446029663086,1.2869006395339966,-0.12949234247207642
1772721109223106800,10.24210693359375,-0.7972393035888672,1.1289029121398926,-0.14526298642158508
1772721109241702400,10.260702392578125,-0.9143714904785156,0.965194582939148,-0.203321635723114
1772721109260298200,10.27929833984375,-0.8466987609863281,0.8390496969223022,0.02641168236732483
1772721109278894000,10.29789404296875,-0.7488698959350586,0.737618088722229,0.35014715790748596
1772721109297489700,10.31648974609375,-0.6240177154541016,0.5185500383377075,0.5657334327697754
1772721109316085500,10.33508544921875,-0.6550483703613281,0.4720810651779175,0.6543076634407043
1772721109334681300,10.353681396484374,-0.42319774627685547,0.4671536684036255,0.7401647567749023
1772721109353277000,10.37227685546875,-0.031889915466308594,0.33197712898254395,0.6935991048812866
1772721109371872800,10.390872802734375,-0.5159378051757812,0.6232883930206299,0.21706083416938782
1772721109390468400,10.40946826171875,-2.2193236351013184,-0.1646641492843628,1.08504056930542
1772721109409064200,10.428064208984376,-1.3373537063598633,-0.2560334801673889,1.1265772581100464
1772721109427659800,10.44665966796875,-0.09627246856689453,-0.052864015102386475,0.5945793390274048
1772721109446255600,10.465255615234375,0.8434295654296875,-0.04303044080734253,1.1882456541061401
1772721109464851500,10.4838515625,1.2551078796386719,0.1398223638534546,1.417388916015625
1772721109483447300,10.502447265625,1.5190544128417969,0.665615975856781,1.4515148401260376
1772721109502043000,10.52104296875,1.2944011688232422,0.5354906320571899,1.5343385934829712
1772721109520638700,10.539638671875,1.1593246459960938,0.4302573800086975,1.6460257768630981
1772721109539234300,10.558234375,1.4794225692749023,0.6162598133087158,1.4163761138916016
1772721109557830100,10.576830078125,1.878448486328125,0.9124224781990051,1.0609378814697266
1772721109576425700,10.59542578125,1.2679252624511719,0.8501901626586914,0.911341667175293
1772721109595021600,10.614021484375,0.4739847183227539,0.9836658239364624,0.7393105030059814
1772721109613617400,10.632617431640625,0.532374382019043,0.9981242418289185,-0.04342055320739746
1772721109632213000,10.651212890625,1.4681024551391602,0.4824122190475464,-1.3295836448669434
1772721109650808800,10.669808837890624,2.161212921142578,0.45760393142700195,-1.9308677911758423
1772721109669404700,10.68840478515625,2.1398963928222656,0.18204891681671143,-1.2385952472686768
1772721109688000300,10.707000244140625,0.4389657974243164,-0.046706318855285645,-0.33828306198120117
1772721109706596000,10.72559619140625,-1.3785438537597656,-0.24830758571624756,0.14913982152938843
1772721109725191700,10.744191650390626,-2.105184555053711,-0.8896570801734924,0.06556844711303711
1772721109743787500,10.76278759765625,-2.918752670288086,-0.9943180084228516,-0.5414108633995056
1772721109762383000,10.781383056640625,-3.220768451690674,-0.9412489533424377,-1.3004800081253052
1772721109780979000,10.79997900390625,-2.312380790710449,-0.587053656578064,-0.6739122271537781
1772721109799574800,10.81857470703125,-1.2443904876708984,-0.7187917232513428,-0.11398661136627197
1772721109818170400,10.83717041015625,-0.1162261962890625,-0.6462122201919556,-0.630671501159668
1772721109836766200,10.85576611328125,0.9023513793945312,-0.5918234586715698,-0.6278836727142334
1772721109855361800,10.87436181640625,1.4731130599975586,-0.8101993203163147,-0.8466848731040955
1772721109873957600,10.89295751953125,1.1427946090698242,-0.9261707067489624,-1.1148326396942139
1772721109892553200,10.91155322265625,0.38062286376953125,-0.9212029576301575,-1.813521146774292
1772721109911149000,10.930149169921876,-0.2156200408935547,-0.5008130073547363,-2.2429583072662354
1772721109929745000,10.948744873046875,-0.2137136459350586,-0.3228236436843872,-1.4347330331802368
1772721109948340500,10.967340576171875,0.3256540298461914,-0.37922465801239014,-1.0757336616516113
1772721109966936300,10.985936279296874,0.01959705352783203,-0.2116258144378662,-1.4546878337860107
1772721109985532200,11.0045322265625,-0.33722400665283203,0.1905282735824585,-1.5733612775802612
1772721110004127700,11.023127685546875,-0.5316543579101562,0.21245503425598145,-1.3403470516204834
1772721110022723600,11.0417236328125,-0.7733964920043945,0.16824114322662354,-1.4996883869171143
1772721110041319200,11.060319091796876,-0.9612569808959961,0.2835603952407837,-1.6401073932647705
1772721110069213000,11.088212890625,-0.10019111633300781,0.2522149085998535,-0.8223491311073303
1772721110087808500,11.10680859375,0.5037002563476562,0.05448794364929199,-0.7763123512268066
1772721110106404400,11.125404296875,0.7882680892944336,0.10328459739685059,-0.5779288411140442
1772721110125000000,11.144,0.3738107681274414,0.34404897689819336,-0.4836629033088684
1772721110143595800,11.162595703125,0.16420650482177734,0.46092724800109863,-0.5267786979675293
