time,seconds_elapsed,z,y,x
1772720871258068000,0.10206787109375,0.000839939049910754,-0.0011453714687377214,0.0021380267571657896
1772720871276664800,0.120664794921875,0.00022907429956831038,-0.0005345066892914474,0.0015271619195118546
1772720871295261700,0.13926171875,0.0005345066892914474,-0.002672533504664898,0.000610864779446274
1772720871313858800,0.15785888671875,0.00022907429956831038,-0.0011453714687377214,0.0015271619195118546
1772720871332455700,0.17645556640625,0.0011453714687377214,-0.0011453714687377214,0.0015271619195118546
1772720871351052500,0.195052490234375,0.00022907429956831038,0.007406735327094793,0.005192350596189499
1772720871369649400,0.2136494140625,-0.00007635809743078426,-0.004505127668380737,0.000305432389723137
1772720871388246300,0.232246337890625,0.0005345066892914474,0.0009926552884280682,0.001832594396546483
1772720871406843100,0.250843017578125,-0.00038179047987796366,0.0006872228696011007,0.0027488914784044027
1772720871425440300,0.269440185546875,0.000839939049910754,-0.0005345066892914474,0.0027488914784044027
1772720871444037000,0.288037109375,0.00022907429956831038,-0.0005345066892914474,0.002443459117785096
1772720871462634000,0.306634033203125,-0.00007635809743078426,0.00007635809743078426,0.001832594396546483
1772720871481230800,0.32523095703125,0.000839939049910754,0.00007635809743078426,0.0021380267571657896
1772720871499827700,0.34382763671875,0.00022907429956831038,-0.000839939049910754,0.0021380267571657896
1772720871518424600,0.362424560546875,0.000839939049910754,-0.000839939049910754,0.0015271619195118546
1772720871537021400,0.381021484375,-0.00007635809743078426,0.00038179047987796366,0.0027488914784044027
1772720871555618300,0.399618408203125,-0.00007635809743078426,-0.000839939049910754,0.0021380267571657896
1772720871574215200,0.418215087890625,0.0005345066892914474,0.00007635809743078426,0.002443459117785096
1772720871592812000,0.43681201171875,-0.00007635809743078426,-0.0005345066892914474,0.0015271619195118546
1772720871611409000,0.455408935546875,0.001450803829357028,-0.000839939049910754,0.002443459117785096
1772720871630005800,0.474005859375,0.00022907429956831038,-0.0011453714687377214,0.0027488914784044027
1772720871648602600,0.4926025390625,0.0011453714687377214,0.00038179047987796366,0.002443459117785096
1772720871667199500,0.511199462890625,-0.00007635809743078426,-0.0005345066892914474,0.000305432389723137
1772720871685796400,0.52979638671875,0.000839939049910754,-0.00022907429956831038,0.0030543238390237093
1772720871704393200,0.548393310546875,0.000839939049910754,-0.0005345066892914474,0.0021380267571657896
1772720871722990000,0.566989990234375,0.0011453714687377214,-0.001450803829357028,0.0015271619195118546
1772720871741587000,0.5855869140625,-0.00007635809743078426,0.0006872228696011007,0.001832594396546483
1772720871760183800,0.604183837890625,-0.00007635809743078426,-0.0005345066892914474,0.001832594396546483
1772720871778780700,0.62278076171875,0.0011453714687377214,-0.000839939049910754,0.0009162971982732415
1772720871797377500,0.64137744140625,-0.00007635809743078426,-0.00022907429956831038,0.000610864779446274
1772720871815974400,0.659974365234375,0.00022907429956831038,-0.000839939049910754,0.0021380267571657896
1772720871834571300,0.6785712890625,0.0011453714687377214,0.00007635809743078426,0.0015271619195118546
1772720871853168000,0.697168212890625,-0.0006872228696011007,-0.0011453714687377214,0.002443459117785096
1772720871871765000,0.715764892578125,0.00022907429956831038,-0.00022907429956831038,0.0027488914784044027
1772720871890361900,0.73436181640625,0.000839939049910754,0.00007635809743078426,0.002443459117785096
1772720871908958700,0.752958740234375,0.0005345066892914474,-0.000839939049910754,0.001832594396546483
1772720871927555600,0.7715556640625,-0.00007635809743078426,-0.000839939049910754,0.001832594396546483
1772720871946152400,0.79015234375,0.00022907429956831038,0.00007635809743078426,0.001832594396546483
1772720871964749300,0.808749267578125,0.00022907429956831038,-0.00022907429956831038,0.001832594396546483
1772720871983346200,0.82734619140625,0.0005345066892914474,0.0006872228696011007,0.0015271619195118546
1772720872001943000,0.845943115234375,0.00022907429956831038,-0.0011453714687377214,0.001221729558892548
1772720872020540000,0.864539794921875,-0.00007635809743078426,0.00007635809743078426,0.002443459117785096
1772720872039136800,0.88313671875,0.0005345066892914474,0.00007635809743078426,0.0027488914784044027
1772720872057733400,0.9017333984375,0.00022907429956831038,-0.0011453714687377214,0.0015271619195118546
1772720872076330200,0.920330322265625,0.0023671009112149477,-0.00022907429956831038,0.0030543238390237093
1772720872094927000,0.938927001953125,0.0011453714687377214,0.00007635809743078426,0.0015271619195118546
1772720872113524000,0.95752392578125,-0.00007635809743078426,0.00038179047987796366,0.0015271619195118546
1772720872132120800,0.976120849609375,-0.0006872228696011007,0.0019089524867013097,0.0027488914784044027
1772720872150717700,0.9947177734375,0.0023671009112149477,-0.002061668550595641,0.0009162971982732415
1772720872169314600,1.013314453125,0.001450803829357028,0.0019089524867013097,0.003665188793092966
1772720872187911200,1.0319111328125,-0.00007635809743078426,-0.0017562361899763346,0.0015271619195118546
1772720872206508000,1.050508056640625,0.0005345066892914474,-0.000839939049910754,0.001832594396546483
1772720872225105200,1.069105224609375,0.00022907429956831038,-0.0005345066892914474,0.0015271619195118546
1772720872243701800,1.08770166015625,0.0011453714687377214,0.0009926552884280682,0.0027488914784044027
1772720872262298600,1.106298583984375,0.0005345066892914474,-0.0005345066892914474,0.001832594396546483
1772720872280895500,1.1248955078125,-0.00038179047987796366,-0.000839939049910754,0.0015271619195118546
1772720872299492400,1.143492431640625,0.0005345066892914474,0.00007635809743078426,0.001832594396546483
1772720872318089200,1.162089111328125,0.000839939049910754,-0.0011453714687377214,0.001832594396546483
1772720872336686000,1.18068603515625,0.001450803829357028,-0.000839939049910754,0.0021380267571657896
1772720872355282700,1.19928271484375,0.0005345066892914474,0.00007635809743078426,0.002443459117785096
1772720872373879600,1.217879638671875,0.00022907429956831038,0.00038179047987796366,0.001832594396546483
1772720872392476400,1.236476318359375,0.0005345066892914474,-0.00022907429956831038,0.002443459117785096
1772720872411073300,1.2550732421875,-0.00007635809743078426,-0.0005345066892914474,0.001832594396546483
1772720872429670100,1.273670166015625,0.00022907429956831038,-0.00022907429956831038,0.001832594396546483
1772720872448266800,1.292266845703125,-0.00038179047987796366,-0.00022907429956831038,0.001832594396546483
1772720872466863600,1.310863525390625,-0.00038179047987796366,0.00007635809743078426,0.001221729558892548
1772720872485460500,1.32946044921875,0.00022907429956831038,-0.0005345066892914474,0.0021380267571657896
1772720872504057300,1.348057373046875,0.000839939049910754,-0.00022907429956831038,0.0021380267571657896
1772720872522654200,1.366654296875,0.0005345066892914474,-0.00022907429956831038,0.002443459117785096
1772720872541250800,1.385250732421875,-0.00038179047987796366,-0.0011453714687377214,0.001832594396546483
1772720872559847700,1.40384765625,0.00022907429956831038,-0.0005345066892914474,0.002443459117785096
1772720872578444500,1.422444580078125,-0.00007635809743078426,-0.00022907429956831038,0.002443459117785096
1772720872597041400,1.44104150390625,0.00022907429956831038,-0.0005345066892914474,0.0015271619195118546
1772720872615638000,1.459637939453125,0.00022907429956831038,0.00038179047987796366,0.001832594396546483
1772720872634235000,1.47823486328125,0.0011453714687377214,0.00038179047987796366,0.0027488914784044027
1772720872652831700,1.496831787109375,0.0011453714687377214,0.00007635809743078426,0.0027488914784044027
1772720872671428400,1.515428466796875,0.00022907429956831038,-0.0005345066892914474,0.000305432389723137
1772720872690025200,1.534025146484375,0.00022907429956831038,0.00038179047987796366,0.001832594396546483
1772720872708622000,1.5526220703125,0.00022907429956831038,0.00038179047987796366,0.001832594396546483
1772720872727219000,1.571218994140625,0.00022907429956831038,0.0006872228696011007,0.002443459117785096
1772720872745815600,1.589815673828125,0.000839939049910754,0.00007635809743078426,0.002443459117785096
1772720872764412400,1.608412353515625,0.0005345066892914474,-0.001450803829357028,0.0015271619195118546
1772720872783009300,1.62700927734375,0.000839939049910754,0.00007635809743078426,0.0021380267571657896
1772720872801606000,1.64560595703125,-0.00007635809743078426,0.00038179047987796366,0.0027488914784044027
1772720872820202800,1.66420263671875,-0.00038179047987796366,0.00007635809743078426,0.0021380267571657896
1772720872838799600,1.682799560546875,0.0005345066892914474,0.00007635809743078426,0.001832594396546483
1772720872857396500,1.701396484375,0.0011453714687377214,0.00007635809743078426,0.001221729558892548
1772720872875993000,1.7199931640625,0.00022907429956831038,0.0006872228696011007,0.0027488914784044027
1772720872894590000,1.73858984375,0.0011453714687377214,-0.0005345066892914474,0.0021380267571657896
1772720872913186800,1.757186767578125,0.00022907429956831038,0.00038179047987796366,0.001221729558892548
1772720872931783400,1.775783447265625,0.00022907429956831038,-0.00022907429956831038,0.002443459117785096
1772720872950380300,1.79438037109375,0.00022907429956831038,0.00007635809743078426,0.001832594396546483
1772720872968977000,1.812976806640625,-0.00007635809743078426,0.00038179047987796366,0.0015271619195118546
1772720872987573800,1.83157373046875,0.000839939049910754,0.00038179047987796366,0.0030543238390237093
1772720873006170600,1.850170654296875,-0.00007635809743078426,-0.000839939049910754,0.0015271619195118546
1772720873024767500,1.868767578125,-0.00007635809743078426,-0.0005345066892914474,0.0027488914784044027
1772720873043364000,1.887364013671875,0.0005345066892914474,0.0006872228696011007,0.0030543238390237093
1772720873061961000,1.9059609375,-0.00038179047987796366,-0.0005345066892914474,0.0015271619195118546
1772720873080557800,1.924557861328125,-0.00007635809743078426,-0.000839939049910754,0.0015271619195118546
1772720873099154400,1.943154541015625,-0.00007635809743078426,-0.0005345066892914474,0.0021380267571657896
1772720873117751300,1.961751220703125,-0.00007635809743078426,-0.0005345066892914474,0.0015271619195118546
1772720873136348200,1.98034814453125,-0.00007635809743078426,0.00007635809743078426,0.001221729558892548
1772720873154944800,1.99894482421875,0.000839939049910754,-0.000839939049910754,0.001221729558892548
1772720873173541600,2.017541748046875,-0.00007635809743078426,0.00007635809743078426,0.002443459117785096
1772720873192138200,2.03613818359375,0.000839939049910754,0.00007635809743078426,0.0015271619195118546
1772720873210735000,2.054735107421875,0.0005345066892914474,0.0012980876490473747,0.0021380267571657896
1772720873229331700,2.073331787109375,-0.00038179047987796366,-0.000839939049910754,0.0021380267571657896
1772720873247928600,2.091928466796875,0.00022907429956831038,0.00038179047987796366,0.0030543238390237093
1772720873266525400,2.110525390625,0.0005345066892914474,-0.000839939049910754,0.001832594396546483
1772720873285122000,2.1291220703125,-0.00007635809743078426,-0.0005345066892914474,0.001832594396546483
1772720873303719000,2.147718994140625,0.0005345066892914474,0.00007635809743078426,0.001832594396546483
1772720873322315800,2.166315673828125,-0.00007635809743078426,0.0006872228696011007,0.001832594396546483
1772720873340912400,2.184912353515625,-0.00007635809743078426,-0.0005345066892914474,0.0021380267571657896
1772720873359509200,2.20350927734375,0.000839939049910754,-0.0005345066892914474,0.001832594396546483
1772720873378105900,2.22210595703125,0.0011453714687377214,-0.0011453714687377214,0.001832594396546483
1772720873396702700,2.24070263671875,0.00022907429956831038,-0.000839939049910754,0.001832594396546483
1772720873415299300,2.25929931640625,0.001450803829357028,0.00007635809743078426,0.002443459117785096
1772720873433896200,2.277896240234375,0.00022907429956831038,-0.00022907429956831038,0.001832594396546483
1772720873452493000,2.2964931640625,0.00022907429956831038,-0.00022907429956831038,0.001832594396546483
1772720873471089700,2.315089599609375,-0.00007635809743078426,-0.000839939049910754,0.0015271619195118546
1772720873489686300,2.333686279296875,0.0011453714687377214,-0.0005345066892914474,0.003359756199643016
1772720873508283100,2.352283203125,-0.00007635809743078426,-0.0011453714687377214,0.0021380267571657896
1772720873526880000,2.3708798828125,-0.0012980876490473747,0.00038179047987796366,0.001832594396546483
1772720873545476600,2.3894765625,-0.00038179047987796366,0.00007635809743078426,0.0021380267571657896
1772720873564073500,2.408073486328125,0.001450803829357028,-0.0005345066892914474,0.002443459117785096
1772720873582670000,2.426670166015625,0.00022907429956831038,0.00007635809743078426,0.001832594396546483
1772720873601267000,2.445266845703125,0.0005345066892914474,-0.000839939049910754,0.002443459117785096
1772720873619863600,2.463863525390625,-0.00007635809743078426,-0.00022907429956831038,0.001832594396546483
1772720873638460400,2.48246044921875,0.00022907429956831038,0.00007635809743078426,0.0015271619195118546
1772720873657057000,2.50105712890625,-0.00007635809743078426,-0.0011453714687377214,0.0015271619195118546
1772720873675654000,2.51965380859375,-0.00038179047987796366,0.00007635809743078426,0.001832594396546483
1772720873694250500,2.53825048828125,-0.00038179047987796366,-0.00022907429956831038,0.002443459117785096
1772720873712847400,2.556847412109375,0.00022907429956831038,0.00007635809743078426,0.0021380267571657896
1772720873731444200,2.5754443359375,-0.00007635809743078426,-0.000839939049910754,0.001832594396546483
1772720873750040800,2.594040771484375,-0.00038179047987796366,0.00007635809743078426,0.0015271619195118546
1772720873768637400,2.612637451171875,0.0005345066892914474,0.0006872228696011007,0.0009162971982732415
1772720873787234300,2.631234375,0.0005345066892914474,-0.00022907429956831038,0.001832594396546483
1772720873805831000,2.649830810546875,0.00022907429956831038,0.00007635809743078426,0.001221729558892548
1772720873824427800,2.668427734375,0.00022907429956831038,-0.00022907429956831038,0.001221729558892548
1772720873843024400,2.6870244140625,-0.00007635809743078426,-0.00022907429956831038,0.0021380267571657896
1772720873861621200,2.705621337890625,0.00022907429956831038,0.00007635809743078426,0.001832594396546483
1772720873880217900,2.7242177734375,0.001450803829357028,-0.0005345066892914474,0.0009162971982732415
1772720873898814700,2.742814697265625,0.0005345066892914474,0.00007635809743078426,0.001832594396546483
1772720873917411300,2.761411376953125,0.00022907429956831038,0.00007635809743078426,0.0021380267571657896
1772720873936008000,2.780008056640625,-0.0006872228696011007,0.00007635809743078426,0.0021380267571657896
1772720873954604800,2.798604736328125,0.0005345066892914474,-0.000839939049910754,0.0015271619195118546
1772720873973201400,2.817201416015625,0.00022907429956831038,0.00007635809743078426,0.001832594396546483
1772720873991798300,2.83579833984375,0.000839939049910754,-0.000839939049910754,0.001832594396546483
1772720874010395000,2.854394775390625,0.000839939049910754,-0.00022907429956831038,0.0021380267571657896
1772720874028991500,2.872991455078125,-0.00007635809743078426,0.00038179047987796366,0.0015271619195118546
1772720874047588400,2.89158837890625,-0.00007635809743078426,0.00038179047987796366,0.000610864779446274
1772720874066185000,2.91018505859375,0.00022907429956831038,-0.00022907429956831038,0.0009162971982732415
1772720874084781800,2.92878173828125,-0.00007635809743078426,0.0009926552884280682,0.002443459117785096
1772720874103378400,2.94737841796875,-0.00007635809743078426,-0.00022907429956831038,0.002443459117785096
1772720874121975300,2.965975341796875,0.00022907429956831038,-0.00022907429956831038,0.001832594396546483
1772720874140572000,2.984572021484375,0.0005345066892914474,-0.00022907429956831038,0.0015271619195118546
1772720874159168800,3.003168701171875,0.00022907429956831038,-0.000839939049910754,0.0015271619195118546
1772720874177765400,3.021765380859375,0.0005345066892914474,0.00007635809743078426,0.001832594396546483
1772720874196362000,3.040362060546875,0.00022907429956831038,0.00007635809743078426,0.001832594396546483
1772720874214958800,3.058958740234375,0.0011453714687377214,-0.000839939049910754,0.001221729558892548
1772720874233555500,3.077555419921875,-0.00007635809743078426,-0.0005345066892914474,0.000610864779446274
1772720874252152000,3.096152099609375,0.00022907429956831038,-0.00022907429956831038,0.0015271619195118546
1772720874270749000,3.1147490234375,-0.00007635809743078426,-0.00022907429956831038,0.002443459117785096
1772720874289345500,3.133345458984375,0.000839939049910754,-0.0005345066892914474,0.0021380267571657896
1772720874307942100,3.151942138671875,-0.00007635809743078426,-0.0005345066892914474,0.001832594396546483
1772720874326539000,3.1705390625,0.0011453714687377214,0.00007635809743078426,0.0015271619195118546
1772720874345135600,3.189135498046875,0.00022907429956831038,-0.0005345066892914474,0.0021380267571657896
1772720874363732200,3.207732177734375,0.0005345066892914474,0.00007635809743078426,0.0009162971982732415
1772720874382329000,3.2263291015625,0.00022907429956831038,-0.00022907429956831038,0.0015271619195118546
1772720874400925700,3.24492578125,-0.00007635809743078426,-0.00022907429956831038,0.001221729558892548
1772720874419522300,3.263522216796875,-0.00007635809743078426,-0.0005345066892914474,0.001832594396546483
1772720874438119200,3.282119140625,0.0005345066892914474,0.00007635809743078426,0.0021380267571657896
1772720874456715800,3.3007158203125,-0.00007635809743078426,-0.00022907429956831038,0.001832594396546483
1772720874475312600,3.319312744140625,0.00022907429956831038,0.00007635809743078426,0.001832594396546483
1772720874493909200,3.3379091796875,0.00022907429956831038,0.00007635809743078426,0.0015271619195118546
1772720874512505900,3.356505859375,0.0017562361899763346,-0.000839939049910754,0.001832594396546483
1772720874531102500,3.3751025390625,0.000839939049910754,-0.000839939049910754,0.001832594396546483
1772720874549699300,3.39369921875,0.000839939049910754,-0.0005345066892914474,0.001832594396546483
1772720874568296000,3.4122958984375,0.00022907429956831038,-0.0011453714687377214,0.001832594396546483
1772720874586892500,3.430892578125,0.0005345066892914474,-0.000839939049910754,0.001832594396546483
1772720874605489400,3.449489501953125,0.00022907429956831038,-0.0005345066892914474,0.0015271619195118546
1772720874624086000,3.4680859375,0.0011453714687377214,-0.0005345066892914474,0.002443459117785096
1772720874642682600,3.4866826171875,-0.00007635809743078426,-0.0011453714687377214,0.001832594396546483
1772720874661279200,3.505279296875,0.00022907429956831038,-0.00022907429956831038,0.0021380267571657896
1772720874679876000,3.5238759765625,-0.00007635809743078426,-0.00022907429956831038,0.0021380267571657896
1772720874698472700,3.54247265625,-0.00007635809743078426,-0.00022907429956831038,0.0009162971982732415
1772720874717069300,3.5610693359375,0.00022907429956831038,0.00007635809743078426,0.0021380267571657896
1772720874735666200,3.579666259765625,-0.00007635809743078426,-0.0005345066892914474,0.0015271619195118546
1772720874754262800,3.5982626953125,-0.00038179047987796366,-0.0005345066892914474,0.001832594396546483
1772720874772859400,3.616859375,0.000839939049910754,-0.0011453714687377214,0.001832594396546483
1772720874791456000,3.6354560546875,-0.00038179047987796366,-0.0005345066892914474,0.0021380267571657896
1772720874810052900,3.654052978515625,-0.0006872228696011007,-0.00022907429956831038,0.001832594396546483
1772720874828649500,3.6726494140625,-0.00038179047987796366,0.00007635809743078426,0.001832594396546483
1772720874847246000,3.69124609375,-0.00007635809743078426,0.0006872228696011007,0.000305432389723137
1772720874865842700,3.7098427734375,0.0011453714687377214,-0.0005345066892914474,0.001832594396546483
1772720874884439300,3.728439208984375,0.00022907429956831038,-0.0005345066892914474,0.001832594396546483
1772720874903036200,3.7470361328125,-0.00038179047987796366,-0.00022907429956831038,0.001832594396546483
1772720874921632800,3.7656328125,0.00022907429956831038,-0.000839939049910754,0.0015271619195118546
1772720874940229400,3.7842294921875,0.00022907429956831038,0.00007635809743078426,0.001832594396546483
1772720874958826000,3.802825927734375,-0.00038179047987796366,-0.000839939049910754,0.0015271619195118546
1772720874977422800,3.8214228515625,-0.0006872228696011007,-0.000839939049910754,0.0021380267571657896
1772720874996019500,3.84001953125,-0.00007635809743078426,-0.00022907429956831038,0.0015271619195118546
1772720875014616000,3.858615966796875,0.0005345066892914474,0.00007635809743078426,0.001832594396546483
1772720875033212700,3.877212646484375,-0.0006872228696011007,0.00007635809743078426,0.0015271619195118546
1772720875051809300,3.895809326171875,-0.00038179047987796366,-0.00022907429956831038,0.001221729558892548
1772720875070406000,3.914406005859375,-0.00007635809743078426,-0.00022907429956831038,0.001832594396546483
1772720875089002800,3.933002685546875,-0.00038179047987796366,-0.00022907429956831038,0.001832594396546483
1772720875107599400,3.951599365234375,0.000839939049910754,0.00038179047987796366,0.0027488914784044027
1772720875126196000,3.970196044921875,0.000839939049910754,-0.00022907429956831038,0.0021380267571657896
1772720875144792600,3.98879248046875,-0.00007635809743078426,0.00007635809743078426,0.001221729558892548
1772720875163389200,4.00738916015625,0.00022907429956831038,0.00007635809743078426,0.001832594396546483
1772720875181986000,4.025986083984375,-0.0006872228696011007,-0.000839939049910754,0.001832594396546483
1772720875200582700,4.044582763671875,-0.00007635809743078426,0.0006872228696011007,0.001221729558892548
1772720875219179300,4.06317919921875,0.00022907429956831038,-0.00022907429956831038,0.001832594396546483
1772720875237776000,4.08177587890625,-0.00007635809743078426,-0.000839939049910754,0.002443459117785096
1772720875256372500,4.10037255859375,-0.00038179047987796366,-0.00022907429956831038,0.0015271619195118546
1772720875274969000,4.118968994140625,0.000839939049910754,-0.00022907429956831038,0.0021380267571657896
1772720875293566000,4.13756591796875,-0.0006872228696011007,-0.00022907429956831038,0.0009162971982732415
1772720875312162600,4.15616259765625,-0.0006872228696011007,0.00038179047987796366,0.0021380267571657896
1772720875330759200,4.17475927734375,-0.00007635809743078426,-0.00022907429956831038,0.001221729558892548
1772720875349355800,4.193355712890625,0.00022907429956831038,-0.0005345066892914474,0.001832594396546483
1772720875367952400,4.211952392578125,0.00022907429956831038,-0.00022907429956831038,0.001832594396546483
1772720875386549000,4.230549072265625,0.000839939049910754,-0.00022907429956831038,0.0021380267571657896
1772720875405145600,4.2491455078125,0.0005345066892914474,-0.0005345066892914474,0.0015271619195118546
1772720875423742200,4.2677421875,-0.00007635809743078426,-0.00022907429956831038,0.0021380267571657896
1772720875442339000,4.286339111328125,0.0005345066892914474,-0.000839939049910754,0.001221729558892548
1772720875460935700,4.304935791015625,-0.00038179047987796366,0.00007635809743078426,0.000610864779446274
1772720875479532300,4.3235322265625,0.00022907429956831038,-0.0005345066892914474,0.001832594396546483
1772720875498129000,4.34212890625,0.00022907429956831038,0.00007635809743078426,0.002443459117785096
1772720875516725500,4.3607255859375,0.00022907429956831038,0.00007635809743078426,0.002443459117785096
1772720875535322000,4.379322021484375,-0.00038179047987796366,0.00038179047987796366,0.0015271619195118546
1772720875553918700,4.397918701171875,0.0005345066892914474,0.00007635809743078426,0.0021380267571657896
1772720875572515300,4.416515380859375,-0.00007635809743078426,0.00038179047987796366,0.0009162971982732415
1772720875591112200,4.4351123046875,0.0005345066892914474,-0.00022907429956831038,0.0015271619195118546
1772720875609708800,4.453708740234375,-0.00038179047987796366,0.00007635809743078426,0.001832594396546483
1772720875628305400,4.472305419921875,-0.00038179047987796366,-0.0005345066892914474,0.001832594396546483
1772720875646902000,4.490902099609375,-0.0012980876490473747,0.00007635809743078426,0.0021380267571657896
1772720875665498600,4.50949853515625,0.000839939049910754,-0.0005345066892914474,0.0015271619195118546
1772720875684095200,4.52809521484375,-0.00038179047987796366,0.00038179047987796366,0.001832594396546483
1772720875702691800,4.54669189453125,0.0005345066892914474,-0.00022907429956831038,0.0015271619195118546
1772720875721288400,4.565288330078125,0.00022907429956831038,-0.0005345066892914474,0.002443459117785096
1772720875739885000,4.583885009765625,0.0005345066892914474,-0.00022907429956831038,0.0009162971982732415
1772720875758481700,4.602481689453125,0.00022907429956831038,-0.000839939049910754,0.0015271619195118546
1772720875777078300,4.621078369140625,0.0011453714687377214,-0.0005345066892914474,0.001221729558892548
1772720875795675000,4.6396748046875,0.00022907429956831038,-0.00022907429956831038,0.0021380267571657896
1772720875814271500,4.658271484375,0.0005345066892914474,0.00007635809743078426,0.0015271619195118546
1772720875832868000,4.6768681640625,-0.0006872228696011007,-0.0005345066892914474,0.001221729558892548
1772720875851464700,4.695464599609375,0.00022907429956831038,-0.0005345066892914474,0.002443459117785096
1772720875870061300,4.714061279296875,0.00022907429956831038,0.00007635809743078426,0.001832594396546483
1772720875888658200,4.732658203125,-0.00007635809743078426,-0.000839939049910754,0.001832594396546483
1772720875907254800,4.7512548828125,0.0005345066892914474,0.00007635809743078426,0.0015271619195118546
1772720875925851400,4.769851318359375,0.00022907429956831038,-0.000839939049910754,0.001832594396546483
1772720875944447700,4.78844775390625,0.00022907429956831038,0.00007635809743078426,0.0015271619195118546
1772720875963044600,4.807044677734375,-0.00038179047987796366,0.00007635809743078426,0.0015271619195118546
1772720875981641000,4.825640869140625,-0.0006872228696011007,0.00007635809743078426,0.0021380267571657896
1772720876000237800,4.84423779296875,-0.0006872228696011007,-0.00022907429956831038,0.0021380267571657896
1772720876018834400,4.86283447265625,-0.00007635809743078426,-0.00022907429956831038,0.0009162971982732415
1772720876037431000,4.88143115234375,0.0005345066892914474,-0.00022907429956831038,0.0015271619195118546
1772720876056027600,4.900027587890625,-0.00038179047987796366,-0.00022907429956831038,0.0009162971982732415
1772720876074624300,4.918624267578125,0.00022907429956831038,-0.00022907429956831038,0.001221729558892548
1772720876093220900,4.937220947265625,0.00022907429956831038,-0.00022907429956831038,0.0015271619195118546
1772720876111817200,4.955817138671875,0.0005345066892914474,0.00007635809743078426,0.0015271619195118546
1772720876130414000,4.9744140625,-0.0016035200096666813,-0.0005345066892914474,0.001832594396546483
1772720876149010400,4.993010498046875,-0.00038179047987796366,0.00038179047987796366,0.0015271619195118546
1772720876167607300,5.011607177734375,0.00022907429956831038,-0.0005345066892914474,0.0021380267571657896
1772720876186204000,5.030203857421875,0.000839939049910754,-0.0005345066892914474,0.0015271619195118546
1772720876204800300,5.04880029296875,-0.0006872228696011007,0.0006872228696011007,0.0015271619195118546
1772720876223397000,5.067397216796875,0.000839939049910754,0.0006872228696011007,0.0015271619195118546
1772720876241993500,5.085993408203125,0.00022907429956831038,0.00007635809743078426,0.0015271619195118546
1772720876260590000,5.104590087890625,0.0011453714687377214,0.00007635809743078426,0.0015271619195118546
1772720876279186700,5.123186767578125,-0.0006872228696011007,-0.0005345066892914474,0.001221729558892548
1772720876297783300,5.141783203125,-0.0006872228696011007,0.00038179047987796366,0.0015271619195118546
1772720876316380000,5.1603798828125,0.0005345066892914474,0.00007635809743078426,0.002443459117785096
1772720876334976500,5.1789765625,-0.00007635809743078426,-0.0005345066892914474,0.0015271619195118546
1772720876353573000,5.197572998046875,-0.00038179047987796366,0.00007635809743078426,0.0021380267571657896
1772720876372169700,5.216169677734375,0.00022907429956831038,0.00007635809743078426,0.0009162971982732415
1772720876390766300,5.234766357421875,-0.00038179047987796366,-0.00022907429956831038,0.0015271619195118546
1772720876409363000,5.253363037109375,-0.00007635809743078426,-0.0005345066892914474,0.0027488914784044027
1772720876427959600,5.27195947265625,0.00022907429956831038,0.00007635809743078426,0.001832594396546483
1772720876446556200,5.29055615234375,-0.00038179047987796366,0.00038179047987796366,0.001221729558892548
1772720876465152500,5.309152587890625,0.00022907429956831038,0.00007635809743078426,0.001221729558892548
1772720876483749000,5.3277490234375,-0.00007635809743078426,-0.00022907429956831038,0.001221729558892548
1772720876502345700,5.346345703125,-0.00007635809743078426,-0.00022907429956831038,0.001832594396546483
1772720876520942300,5.3649423828125,-0.00007635809743078426,-0.0005345066892914474,0.001221729558892548
1772720876539539000,5.3835390625,0.000839939049910754,-0.0005345066892914474,0.000610864779446274
1772720876558135600,5.402135498046875,-0.00007635809743078426,0.00007635809743078426,0.000610864779446274
1772720876576732200,5.420732177734375,0.00022907429956831038,0.00007635809743078426,0.001832594396546483
1772720876595328800,5.439328857421875,-0.00007635809743078426,-0.00022907429956831038,0.001221729558892548
1772720876613925000,5.457925048828125,0.00022907429956831038,-0.00022907429956831038,0.001221729558892548
1772720876632522000,5.47652197265625,0.0005345066892914474,0.00007635809743078426,0.001832594396546483
1772720876651118600,5.49511865234375,0.00022907429956831038,0.00038179047987796366,0.001832594396546483
1772720876669715000,5.51371484375,-0.00038179047987796366,0.00007635809743078426,0.0009162971982732415
1772720876688311600,5.5323115234375,-0.00007635809743078426,-0.00022907429956831038,0.0015271619195118546
1772720876706908200,5.550908203125,0.00022907429956831038,0.00007635809743078426,0.0021380267571657896
1772720876725504800,5.5695048828125,-0.00038179047987796366,0.00007635809743078426,0.0009162971982732415
1772720876744101400,5.588101318359375,0.000839939049910754,-0.0005345066892914474,0.001221729558892548
1772720876762697700,5.60669775390625,0.000839939049910754,0.00007635809743078426,0.0015271619195118546
1772720876781294300,5.62529443359375,0.00022907429956831038,-0.00022907429956831038,0.0009162971982732415
1772720876799891000,5.643890869140625,-0.00007635809743078426,-0.0005345066892914474,0.0015271619195118546
1772720876818487600,5.662487548828125,0.00022907429956831038,-0.00022907429956831038,0.0015271619195118546
1772720876837084200,5.681084228515625,0.00022907429956831038,-0.00022907429956831038,0.0021380267571657896
1772720876855680800,5.6996806640625,0.0005345066892914474,-0.00022907429956831038,0.0015271619195118546
1772720876874277000,5.718277099609375,-0.00038179047987796366,0.00038179047987796366,0.0009162971982732415
1772720876892873700,5.736873779296875,-0.0006872228696011007,0.00007635809743078426,0.001832594396546483
1772720876911470300,5.75547021484375,-0.00007635809743078426,0.00038179047987796366,0.001221729558892548
1772720876930067000,5.77406689453125,0.000839939049910754,0.00007635809743078426,0.0021380267571657896
1772720876948663600,5.79266357421875,-0.00007635809743078426,0.00007635809743078426,0.0009162971982732415
1772720876967260200,5.81126025390625,0.00022907429956831038,-0.00022907429956831038,0.001832594396546483
1772720876985856500,5.8298564453125,-0.00038179047987796366,0.00007635809743078426,0.001221729558892548
1772720877004453000,5.848453125,0.00022907429956831038,-0.0005345066892914474,0.001832594396546483
1772720877023049700,5.8670498046875,-0.00038179047987796366,-0.00022907429956831038,0.001832594396546483
1772720877041646300,5.885646240234375,-0.00007635809743078426,-0.00022907429956831038,0.0015271619195118546
1772720877060242700,5.90424267578125,-0.00038179047987796366,-0.00022907429956831038,0.0015271619195118546
1772720877078839300,5.92283935546875,-0.0006872228696011007,-0.00022907429956831038,0.0015271619195118546
1772720877097436000,5.941435791015625,-0.00038179047987796366,-0.0005345066892914474,0.001221729558892548
1772720877116032500,5.960032470703125,0.0011453714687377214,-0.000839939049910754,0.001832594396546483
1772720877134628900,5.97862890625,-0.00007635809743078426,-0.00022907429956831038,0.000305432389723137
1772720877153225500,5.9972255859375,-0.0006872228696011007,0.0009926552884280682,0.0015271619195118546
1772720877171822000,6.015822021484375,-0.00007635809743078426,-0.0005345066892914474,0.0009162971982732415
1772720877190418700,6.034418701171875,-0.00007635809743078426,-0.000839939049910754,0.001832594396546483
1772720877209015000,6.05301513671875,-0.00038179047987796366,-0.00022907429956831038,0.0021380267571657896
1772720877227611600,6.071611572265625,-0.00007635809743078426,-0.000839939049910754,0.0015271619195118546
1772720877246208300,6.090208251953125,0.00022907429956831038,0.00007635809743078426,0.0021380267571657896
1772720877264804900,6.108804931640625,0.00022907429956831038,-0.00022907429956831038,0.001832594396546483
1772720877283401200,6.127401123046875,0.00022907429956831038,0.00007635809743078426,0.001832594396546483
1772720877301997800,6.145997802734375,-0.00038179047987796366,-0.0005345066892914474,0.001832594396546483
1772720877320594400,6.164594482421875,0.0005345066892914474,-0.0005345066892914474,0.0015271619195118546
1772720877339191000,6.18319091796875,-0.00038179047987796366,0.00007635809743078426,0.0015271619195118546
1772720877357787400,6.201787353515625,0.001450803829357028,-0.0005345066892914474,0.001221729558892548
1772720877376384000,6.220384033203125,-0.00007635809743078426,0.00007635809743078426,0.0009162971982732415
1772720877394980600,6.238980712890625,-0.00038179047987796366,0.00007635809743078426,0.0015271619195118546
1772720877413577200,6.2575771484375,-0.00038179047987796366,0.00038179047987796366,0.0009162971982732415
1772720877432173600,6.276173583984375,-0.00038179047987796366,0.0006872228696011007,0.000610864779446274
1772720877450770200,6.294770263671875,-0.00007635809743078426,-0.0005345066892914474,0.0027488914784044027
1772720877469366800,6.31336669921875,0.00022907429956831038,-0.00022907429956831038,0.000610864779446274
1772720877487963100,6.331963134765625,0.00022907429956831038,0.00038179047987796366,0.001832594396546483
1772720877506559700,6.350559814453125,-0.0009926552884280682,-0.00022907429956831038,0.001221729558892548
1772720877525156400,6.36915625,-0.00007635809743078426,-0.00022907429956831038,0.0021380267571657896
1772720877543752700,6.387752685546875,-0.00007635809743078426,0.00038179047987796366,0.0009162971982732415
1772720877562349300,6.406349365234375,-0.00007635809743078426,0.00007635809743078426,0.001221729558892548
1772720877580946000,6.42494580078125,-0.00007635809743078426,-0.000839939049910754,0.0015271619195118546
1772720877599542300,6.443542236328125,0.00022907429956831038,-0.0005345066892914474,0.0015271619195118546
1772720877618139000,6.462138916015625,0.00022907429956831038,-0.0005345066892914474,0.002443459117785096
1772720877636735200,6.4807353515625,-0.0006872228696011007,0.00007635809743078426,0.0015271619195118546
1772720877655331800,6.499331787109375,0.00022907429956831038,-0.0005345066892914474,0.001832594396546483
1772720877673928400,6.517928466796875,0.000839939049910754,0.00038179047987796366,0.001832594396546483
1772720877692525000,6.536525146484375,-0.00007635809743078426,-0.00022907429956831038,0.001221729558892548
1772720877711121400,6.555121337890625,-0.00038179047987796366,0.00038179047987796366,0.001221729558892548
1772720877729718000,6.573718017578125,0.00022907429956831038,-0.000839939049910754,0.0015271619195118546
1772720877748314600,6.592314697265625,-0.0006872228696011007,-0.0011453714687377214,0.001832594396546483
1772720877766911000,6.610910888671875,-0.00007635809743078426,0.0006872228696011007,0.001221729558892548
1772720877785507600,6.629507568359375,-0.00007635809743078426,-0.00022907429956831038,0.000610864779446274
1772720877804104000,6.64810400390625,0.00022907429956831038,0.00038179047987796366,0.0009162971982732415
1772720877822700500,6.666700439453125,0.00022907429956831038,0.00007635809743078426,0.0015271619195118546
1772720877841297000,6.685296875,-0.00038179047987796366,-0.0005345066892914474,0.0009162971982732415
1772720877859893500,6.7038935546875,-0.00007635809743078426,-0.00022907429956831038,0.0015271619195118546
1772720877878490000,6.722489990234375,-0.00007635809743078426,0.00007635809743078426,0.0015271619195118546
1772720877897086700,6.741086669921875,-0.00038179047987796366,0.0009926552884280682,0.000610864779446274
1772720877915683000,6.75968310546875,-0.00038179047987796366,-0.0005345066892914474,0.0009162971982732415
1772720877934279700,6.77827978515625,-0.00007635809743078426,-0.00022907429956831038,0.0009162971982732415
1772720877952876000,6.7968759765625,-0.00007635809743078426,0.00007635809743078426,0.001832594396546483
1772720877971472600,6.81547265625,-0.0009926552884280682,0.00038179047987796366,0.001221729558892548
1772720877990069000,6.834069091796875,-0.00007635809743078426,-0.00022907429956831038,0.001221729558892548
1772720878008665600,6.85266552734375,0.0005345066892914474,-0.00022907429956831038,0.001221729558892548
1772720878027262200,6.87126220703125,-0.00038179047987796366,-0.00022907429956831038,0.0015271619195118546
1772720878045858600,6.889858642578125,-0.00038179047987796366,-0.0005345066892914474,0.000305432389723137
1772720878064455200,6.908455078125,-0.00007635809743078426,0.00007635809743078426,0.001221729558892548
1772720878083051800,6.9270517578125,-0.00038179047987796366,0.00007635809743078426,0.0009162971982732415
1772720878101648100,6.945648193359375,-0.00007635809743078426,0.00007635809743078426,0.0009162971982732415
1772720878120244700,6.96424462890625,-0.00038179047987796366,-0.00022907429956831038,0.0021380267571657896
1772720878138841000,6.982841064453125,-0.00038179047987796366,0.00007635809743078426,0.000305432389723137
1772720878157437700,7.001437744140625,-0.0006872228696011007,0.00007635809743078426,0.0015271619195118546
1772720878176034300,7.020034423828125,-0.0006872228696011007,0.00007635809743078426,0.000610864779446274
1772720878194630700,7.038630615234375,-0.0009926552884280682,0.00007635809743078426,0.0009162971982732415
1772720878213227000,7.05722705078125,-0.00038179047987796366,-0.000839939049910754,0.0009162971982732415
1772720878231823600,7.07582373046875,-0.00007635809743078426,-0.0005345066892914474,0.000610864779446274
1772720878250420200,7.094420166015625,-0.00007635809743078426,-0.00022907429956831038,0.0009162971982732415
1772720878269016600,7.1130166015625,-0.00038179047987796366,-0.0005345066892914474,0.001221729558892548
1772720878287613200,7.13161328125,-0.00007635809743078426,-0.00022907429956831038,0.0009162971982732415
1772720878306209500,7.15020947265625,0.00022907429956831038,0.00007635809743078426,0.0009162971982732415
1772720878324806100,7.16880615234375,-0.00038179047987796366,-0.00022907429956831038,0.001221729558892548
1772720878343402800,7.18740283203125,-0.0006872228696011007,0.00007635809743078426,0.0009162971982732415
1772720878361999000,7.2059990234375,0.00022907429956831038,-0.00022907429956831038,0.0009162971982732415
1772720878380595500,7.224595458984375,0.000839939049910754,0.00007635809743078426,0.0009162971982732415
1772720878399192000,7.243192138671875,-0.00038179047987796366,0.0006872228696011007,0.0009162971982732415
1772720878417788700,7.26178857421875,-0.00038179047987796366,0.00007635809743078426,0.0015271619195118546
1772720878436385000,7.280385009765625,0.000839939049910754,-0.0005345066892914474,0.0015271619195118546
1772720878454981400,7.2989814453125,-0.00007635809743078426,0.00007635809743078426,0.001221729558892548
1772720878473578000,7.317577880859375,-0.0006872228696011007,-0.0011453714687377214,0.001221729558892548
1772720878492174600,7.336174560546875,-0.00038179047987796366,0.00007635809743078426,0.0015271619195118546
1772720878510771000,7.35477099609375,0.00022907429956831038,0.00007635809743078426,0.0009162971982732415
1772720878529367600,7.373367431640625,-0.00007635809743078426,-0.00022907429956831038,0.000610864779446274
1772720878547964000,7.3919638671875,0.00022907429956831038,0.00007635809743078426,0.0015271619195118546
1772720878566560500,7.410560546875,0.000839939049910754,-0.00022907429956831038,0.0021380267571657896
1772720878585156900,7.429156982421875,-0.0006872228696011007,-0.00022907429956831038,0.0015271619195118546
1772720878603753500,7.44775341796875,-0.00038179047987796366,-0.0011453714687377214,0.0015271619195118546
1772720878622349800,7.466349853515625,-0.00038179047987796366,-0.00022907429956831038,0.001832594396546483
1772720878640946400,7.484946533203125,-0.0006872228696011007,-0.00022907429956831038,0.001832594396546483
1772720878659542800,7.503542724609375,-0.00007635809743078426,-0.00022907429956831038,0.001221729558892548
1772720878678139400,7.522139404296875,-0.00007635809743078426,0.00007635809743078426,0.0015271619195118546
1772720878696735700,7.54073583984375,0.000839939049910754,-0.00022907429956831038,0.002443459117785096
1772720878715332000,7.55933203125,-0.00038179047987796366,0.00007635809743078426,0.001221729558892548
1772720878733928700,7.5779287109375,0.00022907429956831038,-0.00022907429956831038,0.001221729558892548
1772720878752525000,7.596525146484375,0.00022907429956831038,-0.000839939049910754,0.001221729558892548
1772720878771121700,7.61512158203125,0.00022907429956831038,0.00007635809743078426,0.0009162971982732415
1772720878789718300,7.63371826171875,-0.0006872228696011007,0.00007635809743078426,0.001832594396546483
1772720878808314600,7.652314697265625,0.0005345066892914474,-0.0005345066892914474,0.0015271619195118546
1772720878826911000,7.670910888671875,-0.00038179047987796366,0.00038179047987796366,0.001221729558892548
1772720878845507600,7.689507568359375,-0.00007635809743078426,0.00007635809743078426,0.001221729558892548
1772720878864104000,7.70810400390625,-0.00007635809743078426,-0.00022907429956831038,0.001221729558892548
1772720878882700500,7.726700439453125,-0.0006872228696011007,-0.000839939049910754,0.0015271619195118546
1772720878901297000,7.745296875,0.00022907429956831038,0.00038179047987796366,0.001832594396546483
1772720878919893200,7.763893310546875,-0.00007635809743078426,-0.0005345066892914474,0.001221729558892548
1772720878938489900,7.78248974609375,0.0005345066892914474,-0.0005345066892914474,0.0009162971982732415
1772720878957086200,7.801086181640625,-0.00038179047987796366,0.00007635809743078426,0.000305432389723137
1772720878975682800,7.819682861328125,-0.00038179047987796366,-0.0005345066892914474,0.001221729558892548
1772720878994279200,7.838279052734375,0.0005345066892914474,0.0012980876490473747,0.0009162971982732415
1772720879012875800,7.856875732421875,-0.00007635809743078426,0.00038179047987796366,0.0015271619195118546
1772720879031472000,7.87547216796875,0.0005345066892914474,-0.000839939049910754,0.001221729558892548
1772720879050068500,7.894068359375,-0.00007635809743078426,0.00038179047987796366,0.001832594396546483
1772720879068665000,7.9126650390625,-0.0006872228696011007,0.00007635809743078426,0.0009162971982732415
1772720879087261400,7.931261474609375,-0.00007635809743078426,0.00007635809743078426,0.001221729558892548
1772720879105858000,7.949858154296875,-0.00007635809743078426,0.00007635809743078426,-0.000305432389723137
1772720879124454400,7.968454345703125,-0.0006872228696011007,-0.00022907429956831038,0.001221729558892548
1772720879143050800,7.98705078125,0.00022907429956831038,0.00007635809743078426,0.001221729558892548
1772720879161647400,8.0056474609375,0.0005345066892914474,-0.0005345066892914474,0.001832594396546483
1772720879180243700,8.02424365234375,-0.00007635809743078426,-0.0005345066892914474,0.0009162971982732415
1772720879198840300,8.04284033203125,-0.00038179047987796366,-0.00022907429956831038,0.001832594396546483
1772720879217436700,8.061436767578124,-0.00038179047987796366,-0.0011453714687377214,0.001221729558892548
1772720879236033300,8.080033203125,-0.00007635809743078426,-0.0005345066892914474,0.0021380267571657896
1772720879254629600,8.098629638671875,-0.00038179047987796366,0.00038179047987796366,0.001221729558892548
1772720879273226000,8.11722607421875,-0.00038179047987796366,-0.0005345066892914474,0.0015271619195118546
1772720879291822600,8.135822509765624,0.00022907429956831038,0.00007635809743078426,0.0015271619195118546
1772720879310419000,8.1544189453125,-0.0006872228696011007,-0.00022907429956831038,0.0009162971982732415
1772720879329015300,8.173015380859376,0.00022907429956831038,-0.00022907429956831038,0.002443459117785096
1772720879347612000,8.19161181640625,-0.0009926552884280682,0.00038179047987796366,0.0015271619195118546
1772720879366208300,8.210208251953125,-0.00038179047987796366,0.00007635809743078426,0.001832594396546483
1772720879384804600,8.2288046875,-0.00007635809743078426,-0.000839939049910754,0.0015271619195118546
1772720879403401200,8.247401123046876,-0.00007635809743078426,-0.00022907429956831038,0.000610864779446274
1772720879421997600,8.26599755859375,0.00022907429956831038,-0.00022907429956831038,0.0009162971982732415
1772720879440594000,8.284593994140625,0.00022907429956831038,0.00007635809743078426,0.001832594396546483
1772720879459190500,8.3031904296875,-0.0009926552884280682,0.00007635809743078426,-0.000305432389723137
1772720879477787000,8.321786865234374,0.0005345066892914474,-0.00022907429956831038,0.000610864779446274
1772720879496383500,8.340383544921876,0.00022907429956831038,-0.0005345066892914474,0.001221729558892548
1772720879514979800,8.358979736328125,-0.0009926552884280682,0.00007635809743078426,0.0009162971982732415
1772720879533576200,8.377576171875,-0.00007635809743078426,-0.000839939049910754,0.001221729558892548
1772720879552172500,8.396172607421875,-0.00007635809743078426,-0.0005345066892914474,0.0015271619195118546
1772720879570769200,8.41476904296875,-0.00038179047987796366,-0.000839939049910754,0.0015271619195118546
1772720879589365500,8.433365478515626,-0.00007635809743078426,-0.00022907429956831038,0.0009162971982732415
1772720879607961900,8.4519619140625,0.00022907429956831038,-0.00022907429956831038,0.001832594396546483
1772720879626558500,8.470558349609375,-0.00038179047987796366,-0.00022907429956831038,0.0009162971982732415
1772720879645154800,8.48915478515625,0.00022907429956831038,0.00007635809743078426,0.001221729558892548
1772720879663751200,8.507751220703126,0.00022907429956831038,0.00007635809743078426,0.0015271619195118546
1772720879682347500,8.526347412109375,0.000839939049910754,0.00007635809743078426,0.001221729558892548
1772720879700944100,8.544944091796875,-0.00007635809743078426,0.00007635809743078426,0.0015271619195118546
1772720879719540500,8.56354052734375,-0.00007635809743078426,0.00038179047987796366,0.001221729558892548
1772720879738136800,8.58213671875,-0.0006872228696011007,-0.00022907429956831038,0.000610864779446274
1772720879756733400,8.6007333984375,0.00022907429956831038,-0.0005345066892914474,0.0021380267571657896
1772720879775329800,8.619329833984375,-0.0009926552884280682,-0.00022907429956831038,0.0015271619195118546
1772720879793926100,8.637926025390625,0.0005345066892914474,0.00007635809743078426,0.001221729558892548
1772720879812522800,8.656522705078125,-0.00007635809743078426,0.00007635809743078426,0.001221729558892548
1772720879831119000,8.675119140625,-0.00007635809743078426,-0.0011453714687377214,0.000610864779446274
1772720879849715500,8.693715576171876,-0.00007635809743078426,0.00007635809743078426,0.001832594396546483
1772720879868311800,8.712311767578125,-0.00038179047987796366,-0.0005345066892914474,0.0009162971982732415
1772720879886908200,8.730908203125,-0.00007635809743078426,0.00007635809743078426,0.001832594396546483
1772720879905504800,8.7495048828125,-0.0006872228696011007,-0.00022907429956831038,0.000610864779446274
1772720879924101000,8.76810107421875,-0.0006872228696011007,0.00007635809743078426,0.001832594396546483
1772720879942697500,8.786697509765625,0.0005345066892914474,-0.000839939049910754,0.001221729558892548
1772720879961293800,8.8052939453125,0.00022907429956831038,-0.0005345066892914474,0.001832594396546483
1772720879979890400,8.823890380859375,-0.0006872228696011007,-0.000839939049910754,0.000610864779446274
1772720879998486800,8.84248681640625,0.0005345066892914474,-0.00022907429956831038,0.001832594396546483
1772720880017083100,8.861083251953126,-0.00038179047987796366,-0.0011453714687377214,0.001221729558892548
1772720880035679500,8.879679443359375,-0.00038179047987796366,0.00007635809743078426,0.0015271619195118546
1772720880054276000,8.898276123046875,-0.0009926552884280682,-0.00022907429956831038,0.001221729558892548
1772720880072872400,8.91687255859375,0.0005345066892914474,-0.0005345066892914474,0.0015271619195118546
1772720880091468800,8.93546875,0.00022907429956831038,-0.00022907429956831038,0.001221729558892548
1772720880110065200,8.954065185546876,-0.00007635809743078426,-0.00022907429956831038,0.0009162971982732415
1772720880128661500,8.97266162109375,-0.00007635809743078426,-0.0005345066892914474,0.001221729558892548
1772720880147257900,8.9912578125,-0.00038179047987796366,-0.000839939049910754,0.000305432389723137
1772720880165854500,9.0098544921875,-0.0006872228696011007,0.00007635809743078426,0.001221729558892548
1772720880184450800,9.028450927734376,0.0005345066892914474,-0.00022907429956831038,0.0015271619195118546
1772720880203047200,9.047047119140625,-0.00007635809743078426,-0.00022907429956831038,0.0009162971982732415
1772720880221643500,9.0656435546875,-0.00038179047987796366,0.00007635809743078426,0.0009162971982732415
1772720880240240000,9.084240234375,-0.00007635809743078426,-0.0005345066892914474,0.0009162971982732415
1772720880258836500,9.10283642578125,-0.00007635809743078426,-0.00022907429956831038,0.0015271619195118546
1772720880277432800,9.121432861328126,-0.0006872228696011007,0.00038179047987796366,0.0015271619195118546
1772720880296029200,9.140029296875,-0.0006872228696011007,0.00038179047987796366,0.0009162971982732415
1772720880314625500,9.15862548828125,-0.00007635809743078426,-0.00022907429956831038,0.000610864779446274
1772720880333222000,9.177221923828125,-0.0006872228696011007,-0.00022907429956831038,0.001221729558892548
1772720880351818200,9.195818359375,0.0005345066892914474,-0.0005345066892914474,0.0009162971982732415
1772720880370414800,9.214414794921876,-0.00038179047987796366,-0.0005345066892914474,0.001221729558892548
1772720880389011200,9.23301123046875,-0.0012980876490473747,-0.00022907429956831038,0.001221729558892548
1772720880407607600,9.251607666015625,-0.0006872228696011007,0.00007635809743078426,0.0009162971982732415
1772720880426204000,9.270203857421874,-0.00007635809743078426,0.00038179047987796366,0.001221729558892548
1772720880444800300,9.28880029296875,-0.0006872228696011007,-0.000839939049910754,0.001221729558892548
1772720880463396600,9.307396728515625,-0.00038179047987796366,0.00007635809743078426,0.0015271619195118546
1772720880481993000,9.325992919921875,-0.0009926552884280682,-0.00022907429956831038,0.0021380267571657896
1772720880500589600,9.344589599609375,-0.00007635809743078426,0.00007635809743078426,0.002443459117785096
1772720880519186000,9.36318603515625,0.00022907429956831038,0.0006872228696011007,0.0009162971982732415
1772720880537782300,9.3817822265625,-0.00007635809743078426,0.00038179047987796366,0.000305432389723137
1772720880556378600,9.400378662109375,0.00022907429956831038,-0.00022907429956831038,0.001221729558892548
1772720880574975000,9.41897509765625,-0.00007635809743078426,0.00007635809743078426,0.001221729558892548
1772720880593571300,9.4375712890625,-0.00007635809743078426,-0.00022907429956831038,0.001221729558892548
1772720880612167700,9.456167724609376,-0.00038179047987796366,0.00007635809743078426,0.001221729558892548
1772720880630764000,9.474763916015625,-0.00007635809743078426,0.00038179047987796366,0.0015271619195118546
1772720880649360600,9.493360595703125,-0.00007635809743078426,0.00038179047987796366,0.000305432389723137
1772720880667957000,9.51195703125,0.0005345066892914474,-0.00022907429956831038,0.001221729558892548
1772720880686553300,9.53055322265625,-0.00007635809743078426,-0.000839939049910754,0.001221729558892548
1772720880705149700,9.549149658203126,-0.00007635809743078426,0.00007635809743078426,0.0009162971982732415
1772720880723746000,9.56774609375,-0.00007635809743078426,-0.0005345066892914474,0.000610864779446274
1772720880742342400,9.58634228515625,0.00022907429956831038,-0.0011453714687377214,0.0021380267571657896
1772720880760938800,9.604938720703124,-0.00007635809743078426,-0.0005345066892914474,0.0015271619195118546
1772720880779535000,9.62353515625,-0.00038179047987796366,-0.0005345066892914474,0.0009162971982732415
1772720880798131500,9.64213134765625,0.00022907429956831038,0.00007635809743078426,0.000610864779446274
1772720880816727800,9.660727783203125,-0.0006872228696011007,0.00007635809743078426,0.0009162971982732415
1772720880835324400,9.679324462890625,-0.0006872228696011007,-0.0005345066892914474,0.0009162971982732415
1772720880853920800,9.697920654296874,-0.0006872228696011007,0.00007635809743078426,0.001221729558892548
1772720880872517000,9.71651708984375,-0.0006872228696011007,-0.00022907429956831038,0.000610864779446274
1772720880891113500,9.735113525390625,-0.0006872228696011007,0.00007635809743078426,0.001221729558892548
1772720880909709800,9.753709716796875,-0.00038179047987796366,0.00007635809743078426,0.0015271619195118546
1772720880928306200,9.77230615234375,0.000839939049910754,0.00038179047987796366,0.001221729558892548
1772720880946902500,9.790902587890624,0.00022907429956831038,0.00007635809743078426,0.0009162971982732415
1772720880965499000,9.809498779296876,-0.0006872228696011007,0.00007635809743078426,0.001221729558892548
1772720880984095200,9.82809521484375,0.00022907429956831038,0.0006872228696011007,0.0015271619195118546
1772720881002691600,9.846691650390625,-0.0006872228696011007,-0.00022907429956831038,0.0009162971982732415
1772720881021288000,9.865287841796874,-0.0006872228696011007,0.00007635809743078426,0.000610864779446274
1772720881039884300,9.88388427734375,-0.00007635809743078426,0.00038179047987796366,0.001221729558892548
1772720881058480600,9.902480712890625,-0.00007635809743078426,-0.00022907429956831038,0.0015271619195118546
1772720881077077000,9.921076904296875,-0.00038179047987796366,-0.00022907429956831038,0.000610864779446274
1772720881095673300,9.93967333984375,0.00022907429956831038,-0.0005345066892914474,0.0009162971982732415
1772720881114269700,9.958269775390624,-0.00038179047987796366,-0.0005345066892914474,0.001221729558892548
1772720881132866000,9.976865966796876,0.00022907429956831038,-0.0005345066892914474,0.0021380267571657896
1772720881151462400,9.99546240234375,-0.00007635809743078426,-0.0011453714687377214,0.0009162971982732415
1772720881170058800,10.014058837890625,-0.0006872228696011007,0.00038179047987796366,0.0015271619195118546
1772720881188655000,10.032655029296874,0.0005345066892914474,-0.00022907429956831038,0.0009162971982732415
1772720881207251500,10.05125146484375,-0.00038179047987796366,-0.00022907429956831038,0.0009162971982732415
1772720881225847800,10.069847900390625,-0.0009926552884280682,-0.0005345066892914474,0.0015271619195118546
1772720881244444200,10.088444091796875,-0.00007635809743078426,0.00038179047987796366,0.001221729558892548
1772720881263040500,10.10704052734375,-0.00038179047987796366,-0.000839939049910754,0.000610864779446274
1772720881281636900,10.125636962890624,-0.0009926552884280682,0.00007635809743078426,-0.000305432389723137
1772720881300233200,10.144233154296876,0.00022907429956831038,-0.00022907429956831038,0.001221729558892548
1772720881318829600,10.16282958984375,-0.00038179047987796366,0.00038179047987796366,0.001221729558892548
1772720881337426000,10.181426025390625,-0.00038179047987796366,-0.000839939049910754,0.0009162971982732415
1772720881356022300,10.200022216796874,-0.00007635809743078426,-0.00022907429956831038,0.001221729558892548
1772720881374618600,10.21861865234375,-0.00007635809743078426,-0.0005345066892914474,0.001221729558892548
1772720881393215000,10.237215087890625,-0.00038179047987796366,0.00007635809743078426,0.0015271619195118546
1772720881411811300,10.255811279296875,-0.00038179047987796366,0.00038179047987796366,0.0015271619195118546
1772720881430407700,10.27440771484375,-0.0006872228696011007,0.0009926552884280682,0.0009162971982732415
1772720881449004000,10.293004150390624,-0.00038179047987796366,0.00038179047987796366,0.001221729558892548
1772720881467600400,10.311600341796876,-0.00038179047987796366,-0.0005345066892914474,0.0009162971982732415
1772720881486196700,10.33019677734375,-0.00038179047987796366,0.00007635809743078426,0.0009162971982732415
1772720881504793000,10.34879296875,-0.0009926552884280682,0.00007635809743078426,0.000610864779446274
1772720881523389400,10.367389404296874,-0.00007635809743078426,-0.00022907429956831038,0.000610864779446274
1772720881541985800,10.38598583984375,-0.0006872228696011007,0.00007635809743078426,0.0009162971982732415
1772720881560582100,10.40458203125,-0.0006872228696011007,-0.0011453714687377214,0.001221729558892548
1772720881579178200,10.42317822265625,0.0005345066892914474,-0.00022907429956831038,0.000610864779446274
1772720881597774800,10.44177490234375,-0.00007635809743078426,-0.000839939049910754,-0.000305432389723137
1772720881616371200,10.46037109375,-0.0009926552884280682,0.00007635809743078426,0.001221729558892548
1772720881634967600,10.478967529296876,-0.0009926552884280682,-0.0005345066892914474,0.000610864779446274
1772720881653564000,10.49756396484375,-0.00007635809743078426,0.00038179047987796366,0.001832594396546483
1772720881672160300,10.51616015625,-0.0009926552884280682,0.0006872228696011007,0.000610864779446274
1772720881690756400,10.53475634765625,-0.00038179047987796366,-0.0005345066892914474,0.000305432389723137
1772720881709352700,10.553352783203126,-0.00007635809743078426,-0.00022907429956831038,0.0015271619195118546
1772720881727949000,10.571948974609375,0.00022907429956831038,0.00007635809743078426,0.000610864779446274
1772720881746545400,10.59054541015625,-0.00007635809743078426,-0.000839939049910754,0.000305432389723137
1772720881765141800,10.609141845703125,-0.0006872228696011007,0.00038179047987796366,0.001832594396546483
1772720881783738000,10.627738037109374,-0.0012980876490473747,0.0006872228696011007,0.000610864779446274
1772720881802334500,10.64633447265625,0.00022907429956831038,0.00007635809743078426,0.0009162971982732415
1772720881820930800,10.664930908203125,-0.00007635809743078426,0.00007635809743078426,0.0009162971982732415
1772720881839527200,10.683527099609375,-0.0006872228696011007,0.0009926552884280682,0.000610864779446274
1772720881858123300,10.702123291015624,0.00022907429956831038,-0.0005345066892914474,0.001221729558892548
1772720881876719600,10.7207197265625,-0.0006872228696011007,-0.00022907429956831038,0.000610864779446274
1772720881895316000,10.73931591796875,0.00022907429956831038,0.0006872228696011007,0.000610864779446274
1772720881913912300,10.757912353515625,-0.00038179047987796366,0.00038179047987796366,0.000305432389723137
1772720881932508700,10.7765087890625,-0.0012980876490473747,0.0006872228696011007,0.001221729558892548
1772720881951105000,10.79510498046875,-0.00038179047987796366,0.00007635809743078426,0.001221729558892548
1772720881969701400,10.813701416015626,-0.0009926552884280682,-0.00022907429956831038,0.001221729558892548
1772720881988297700,10.832297607421875,-0.006185005884617567,0.17905974388122559,0.10048725455999374
1772720882006894000,10.85089404296875,0.0011453714687377214,-0.11140646785497665,-0.043982263654470444
1772720882025490400,10.869490478515624,0.002061668550595641,-0.050319984555244446,-0.024740023538470268
1772720882044086500,10.88808642578125,0.0005345066892914474,-0.018860450014472008,-0.011606430634856224
1772720882062683000,10.906682861328125,0.0005345066892914474,-0.03810269013047218,-0.019242240116000175
