time,seconds_elapsed,z,y,x
1772537838194122500,0.09112255859375,0,0,0
1772537838212718000,0.109718017578125,0.023924827575683594,-0.00974273681640625,-0.003116399049758911
1772537838231313700,0.128313720703125,0.003582000732421875,-0.004299774765968323,0.004899844527244568
1772537838249909200,0.1469091796875,-0.00223541259765625,0.012175679206848145,0.0116749107837677
1772537838268504800,0.1655048828125,-0.007595062255859375,-0.0037551820278167725,0.015529945492744446
1772537838287100400,0.184100341796875,-0.003284454345703125,0.010838821530342102,-0.001527547836303711
1772537838305696000,0.202696044921875,-0.007939338684082031,-0.002189323306083679,-0.009160220623016357
1772537838324291600,0.22129150390625,0.007550239562988281,-0.0016501694917678833,0.0006090998649597168
1772537838342887200,0.23988720703125,0.0027132034301757812,-0.00015342235565185547,0.003795608878135681
1772537838361482800,0.258482666015625,-0.005890846252441406,-0.0040791332721710205,0.00151863694190979
1772537838380078300,0.277078369140625,-0.0028285980224609375,0.0011145472526550293,0.013838544487953186
1772537838398674000,0.295673828125,-0.015020370483398438,0.008798986673355103,-0.0003976672887802124
1772537838417269500,0.31426953125,-0.013397216796875,-0.00744377076625824,0.002023860812187195
1772537838435865000,0.332864990234375,-0.0014638900756835938,0.014015287160873413,0.009312093257904053
1772537838454460700,0.351460693359375,-0.0045070648193359375,0.006870627403259277,-0.000014260411262512207
1772537838473056300,0.37005615234375,0.00033092498779296875,-0.008135512471199036,-0.0054073333740234375
1772537838491651800,0.38865185546875,0.014150619506835938,0.022290900349617004,-0.005145609378814697
1772537838510247400,0.407247314453125,-0.008234977722167969,-0.001393437385559082,-0.0071699172258377075
1772537838528843000,0.425843017578125,-0.0020074844360351562,0.01053030788898468,0.008521780371665955
1772537838547438300,0.444438232421875,-0.0031385421752929688,0.023134946823120117,-0.004656314849853516
1772537838566034200,0.4630341796875,0.003719329833984375,0.01006782054901123,-0.004412323236465454
1772537838584629500,0.48162939453125,-0.013546943664550781,0.003021925687789917,0.00026823580265045166
1772537838603225300,0.500225341796875,0.0031328201293945312,0.0033492296934127808,0.020167574286460876
1772537838621820700,0.518820556640625,-0.0014352798461914062,-0.008023187518119812,0.01719963550567627
1772537838640416300,0.537416259765625,0.004303932189941406,0.0030460208654403687,-0.0008156746625900269
1772537838659011800,0.55601171875,-0.006217002868652344,0.004510059952735901,0.005206838250160217
1772537838677607400,0.574607421875,-0.015474319458007812,0.010806098580360413,-0.0041494667530059814
1772537838696203000,0.593203125,0.0058574676513671875,-0.004221528768539429,-0.005249187350273132
1772537838714798600,0.611798583984375,0.0033559799194335938,0.002280876040458679,0.004384517669677734
1772537838733394200,0.630394287109375,-0.006092071533203125,0.005082800984382629,0.00311143696308136
1772537838751989800,0.64898974609375,0.007927894592285156,0.009871020913124084,0.006672859191894531
1772537838770585300,0.66758544921875,0.015969276428222656,0.006421089172363281,-0.0004948228597640991
1772537838789181000,0.686180908203125,0.0062580108642578125,0.025331765413284302,0.007526174187660217
1772537838807776500,0.704776611328125,0.010611534118652344,0.02056869864463806,-0.0032452791929244995
1772537838826372000,0.7233720703125,-0.008395195007324219,0.010146230459213257,0.020413637161254883
1772537838844967700,0.7419677734375,0.0036029815673828125,-0.008402720093727112,-0.003283664584159851
1772537838863563300,0.760563232421875,-0.005742073059082031,0.006254136562347412,-0.002144917845726013
1772537838882158800,0.779158935546875,0.00846099853515625,-0.0031202584505081177,0.009639516472816467
1772537838900754200,0.797754150390625,0.0035066604614257812,0.004640519618988037,-0.003468915820121765
1772537838919350000,0.81635009765625,-0.013950347900390625,0.003750339150428772,-0.004165515303611755
1772537838937945300,0.8349453125,-0.009907722473144531,0.004947096109390259,0.008692219853401184
1772537838956541200,0.853541259765625,0.005626678466796875,0.015746399760246277,0.004061073064804077
1772537838975136500,0.872136474609375,0.010076522827148438,0.0034694522619247437,0.0006333738565444946
1772537838993732000,0.890732177734375,0.007640838623046875,0.009397000074386597,-0.0038400590419769287
1772537839012327700,0.90932763671875,-0.006442070007324219,0.014245778322219849,-0.00006802380084991455
1772537839030923300,0.92792333984375,0.010036468505859375,0.016685187816619873,0.010529622435569763
1772537839049518800,0.946518798828125,-0.0032033920288085938,0.009599640965461731,-0.0002396702766418457
1772537839068114400,0.965114501953125,-0.0009107589721679688,0.010105729103088379,0.009171053767204285
1772537839086710000,0.9837099609375,-0.004261016845703125,0.01510089635848999,-0.022630855441093445
1772537839105305600,1.0023056640625,0.006443023681640625,-0.0025289803743362427,0.009817108511924744
1772537839123901200,1.020901123046875,0.000553131103515625,0.011862009763717651,-0.005817010998725891
1772537839142496800,1.039496826171875,0.006508827209472656,0.0025878697633743286,-0.006895169615745544
1772537839161092400,1.05809228515625,0.009854316711425781,0.0003926008939743042,-0.006754651665687561
1772537839179688000,1.07668798828125,-0.0020055770874023438,0.005250260233879089,-0.0027550160884857178
1772537839198283500,1.095283447265625,-0.0018482208251953125,0.008004829287528992,0.00002034008502960205
1772537839216879000,1.113879150390625,-0.0077533721923828125,0.009441062808036804,-0.0022095292806625366
1772537839235474400,1.132474365234375,0.009906768798828125,0.015555784106254578,-0.01365584135055542
1772537839254070000,1.151070068359375,-0.014975547790527344,0.009707719087600708,0.003142043948173523
1772537839272665600,1.16966552734375,-0.005311012268066406,0.01328781247138977,0.007656678557395935
1772537839291261200,1.18826123046875,0.000759124755859375,0.023845836520195007,-0.0005642473697662354
1772537839309856800,1.206856689453125,0.0051937103271484375,0.0012606531381607056,0.0005897283554077148
1772537839328452400,1.225452392578125,-0.012279510498046875,0.012013450264930725,0.0018658638000488281
1772537839347048000,1.2440478515625,-0.004979133605957031,0.012230738997459412,-0.001735195517539978
1772537839365643500,1.2626435546875,0.009003639221191406,-0.0006803572177886963,0.004152238368988037
1772537839384239000,1.281239013671875,-0.0005369186401367188,0.005677565932273865,0.007611885666847229
1772537839402834700,1.299834716796875,0.0016889572143554688,0.014203697443008423,0.00983436405658722
1772537839421430300,1.31843017578125,-0.007588386535644531,0.011791110038757324,0.004789292812347412
1772537839440025900,1.33702587890625,-0.0028562545776367188,0.007186830043792725,0.0010940879583358765
1772537839458621400,1.355621337890625,-0.000476837158203125,0.014556512236595154,-0.008421659469604492
1772537839477217000,1.374217041015625,0.006627082824707031,0.002975761890411377,0.012739017605781555
1772537839495812400,1.392812255859375,-0.00157928466796875,0.011464625597000122,0.003118857741355896
1772537839514408000,1.411407958984375,-0.0015354156494140625,0.007806554436683655,0.0018453598022460938
1772537839533003500,1.43000341796875,0.0008172988891601562,0.010332241654396057,-0.008848145604133606
1772537839551599000,1.44859912109375,-0.015590667724609375,0.011561855673789978,0.004220068454742432
1772537839570194700,1.467194580078125,0.007054328918457031,0.016359999775886536,0.0053189098834991455
1772537839588790300,1.485790283203125,-0.0037546157836914062,0.012872099876403809,0.004159718751907349
1772537839607385900,1.5043857421875,0.0022230148315429688,0.0037240982055664062,0.007408395409584045
1772537839625981400,1.5229814453125,-0.0025072097778320312,0.010988056659698486,0.00256521999835968
1772537839644577000,1.541576904296875,-0.0048847198486328125,0.01115410029888153,0.005879148840904236
1772537839663172600,1.560172607421875,0.0011148452758789062,0.010145828127861023,-0.002187952399253845
1772537839681768000,1.578767822265625,0.0034027099609375,0.024436354637145996,0.0011880695819854736
1772537839700363800,1.59736376953125,0.0010318756103515625,0.011463627219200134,-0.004664689302444458
1772537839718959000,1.615958984375,-0.012030601501464844,0.015150025486946106,0.01569017767906189
1772537839737554700,1.6345546875,-0.00016689300537109375,0.01614336669445038,-0.007896393537521362
1772537839756150300,1.653150390625,-0.008640289306640625,0.01266045868396759,0.002962440252304077
1772537839774745900,1.671745849609375,0.00440216064453125,0.0163295716047287,-0.005303859710693359
1772537839793341400,1.690341552734375,0.004231452941894531,0.016108259558677673,0.005628615617752075
1772537839811937000,1.70893701171875,-0.009818077087402344,0.012465164065361023,-0.006268352270126343
1772537839830532600,1.72753271484375,-0.0049915313720703125,0.01983778178691864,0.010361656546592712
1772537839849128200,1.746128173828125,0.0079345703125,0.024288445711135864,0.006536006927490234
1772537839867723800,1.764723876953125,0.0064907073974609375,0.017342403531074524,-0.008475914597511292
1772537839886319400,1.7833193359375,0.0039958953857421875,0.014774814248085022,0.011660516262054443
1772537839904914700,1.801914794921875,0.0037565231323242188,0.010247558355331421,-0.001415252685546875
1772537839923510300,1.82051025390625,0.007096290588378906,0.010283470153808594,0.0033036768436431885
1772537839942105900,1.83910595703125,0.0104217529296875,-0.0012829452753067017,0.0008531361818313599
1772537839960701400,1.857701416015625,0.0077953338623046875,0.010873913764953613,0.013954132795333862
1772537839979297000,1.876297119140625,0.005352020263671875,0.015466302633285522,-0.0039948970079422
1772537839997892600,1.894892578125,-0.005360603332519531,0.030489742755889893,-0.010956346988677979
1772537840016488200,1.91348828125,-0.002895355224609375,0.017119556665420532,-0.0023810118436813354
1772537840035083800,1.932083740234375,0.008779525756835938,0.011385604739189148,-0.0033269375562667847
1772537840053679400,1.950679443359375,-0.001850128173828125,0.013790801167488098,-0.004298940300941467
1772537840072274700,1.969274658203125,0.011048316955566406,0.025634363293647766,0.007568672299385071
1772537840090870500,1.98787060546875,-0.010283470153808594,0.026440277695655823,-0.005441680550575256
1772537840109465900,2.0064658203125,0.007620811462402344,0.02957959473133087,-0.003932952880859375
1772537840128061400,2.0250615234375,0.0005950927734375,0.0021538734436035156,-0.00044746696949005127
1772537840146657000,2.043656982421875,-0.001705169677734375,-0.002424076199531555,0.00787554681301117
1772537840165252600,2.062252685546875,0.009032249450683594,0.02248840034008026,0.007713735103607178
1772537840183848200,2.08084814453125,-0.0006246566772460938,0.027974039316177368,0.017968595027923584
1772537840202443800,2.09944384765625,-0.008788108825683594,0.017213284969329834,0.014266997575759888
1772537840221039400,2.118039306640625,0.011260032653808594,0.01256801187992096,-0.00025434792041778564
1772537840239634700,2.136634765625,-0.009038925170898438,0.02198094129562378,0.0020018815994262695
1772537840258230500,2.15523046875,0.009860038757324219,0.005522102117538452,0.002007126808166504
1772537840276825900,2.173825927734375,-0.005512237548828125,0.018704980611801147,0.014987081289291382
1772537840295421400,2.19242138671875,0.0027217864990234375,0.01612447202205658,-0.0004555433988571167
1772537840314017000,2.21101708984375,-0.007805824279785156,0.019863680005073547,0.0138319730758667
1772537840332612600,2.229612548828125,-0.0018682479858398438,0.018602758646011353,-0.00514104962348938
1772537840351208200,2.248208251953125,0.010751724243164062,0.010554641485214233,0.005350738763809204
1772537840369803800,2.2668037109375,0.0021514892578125,0.013290315866470337,0.004098355770111084
1772537840388399400,2.2853994140625,0.0009145736694335938,0.007505625486373901,0.002647221088409424
1772537840406994700,2.30399462890625,-0.0073184967041015625,0.017080113291740417,-0.010500654578208923
1772537840425590500,2.322590576171875,-0.005828857421875,0.011080563068389893,0.00032047927379608154
1772537840444185900,2.341185791015625,-0.00093841552734375,0.01725517213344574,0.0026904642581939697
1772537840462781400,2.359781494140625,-0.0033855438232421875,0.005154430866241455,0.0013299733400344849
1772537840481377000,2.378376953125,0.008523941040039062,0.011454552412033081,0.005050674080848694
1772537840499972600,2.39697265625,-0.0011167526245117188,0.015118181705474854,-0.002043396234512329
1772537840518568200,2.415568115234375,0.010637283325195312,0.003524407744407654,-0.011333882808685303
1772537840537163800,2.434163818359375,0.0033550262451171875,0.01301082968711853,0.01230071485042572
1772537840555759400,2.45275927734375,-0.00023174285888671875,0.022526815533638,0.004234105348587036
1772537840574354700,2.471354736328125,-0.006191253662109375,0.017818257212638855,0.006631597876548767
1772537840592950500,2.489950439453125,0.0008687973022460938,0.017930641770362854,0.003073066473007202
1772537840611545900,2.5085458984375,0.0009717941284179688,0.027222037315368652,0.0051092952489852905
1772537840630141400,2.527141357421875,0.0043430328369140625,0.014203593134880066,-0.006676048040390015
1772537840648737000,2.545737060546875,0.004387855529785156,0.023421674966812134,-0.003055095672607422
1772537840667332600,2.56433251953125,-0.0053558349609375,0.010588154196739197,-0.019571959972381592
1772537840685928200,2.58292822265625,-0.011066436767578125,0.017789825797080994,0.004307806491851807
1772537840704523800,2.601523681640625,0.0033512115478515625,0.033886685967445374,-0.012455567717552185
1772537840723119400,2.620119384765625,0.009118080139160156,0.01944299042224884,0.00801248848438263
1772537840741714700,2.638714599609375,-0.012407302856445312,0.01351863145828247,0.011280596256256104
1772537840760310300,2.657310302734375,0.0006799697875976562,0.0064719319343566895,0.0007417947053909302
1772537840778905900,2.67590576171875,0.008825302124023438,0.009935811161994934,0.01605314016342163
1772537840797501400,2.69450146484375,-0.005452156066894531,0.021736621856689453,0.0017924010753631592
1772537840816097000,2.713096923828125,0.0038738250732421875,0.006469562649726868,0.01363101601600647
1772537840834692600,2.731692626953125,0.00019168853759765625,0.018189743161201477,-0.0065616220235824585
1772537840853288200,2.7502880859375,-0.0007066726684570312,0.013584017753601074,0.007650256156921387
1772537840871883800,2.7688837890625,-0.00555419921875,0.010212093591690063,0.0015783756971359253
1772537840890479000,2.78747900390625,-0.0054759979248046875,0.003170877695083618,-0.0007000267505645752
1772537840909074700,2.80607470703125,-0.002971649169921875,0.022117316722869873,-0.0017437785863876343
1772537840927670300,2.824670166015625,0.0007066726684570312,0.019617483019828796,0.0009046494960784912
1772537840946265900,2.843265869140625,-0.010072708129882812,0.014822855591773987,0.0031040310859680176
1772537840964861400,2.861861328125,-0.010962486267089844,0.0006154179573059082,0.0018671602010726929
1772537840983457000,2.88045703125,-0.0001964569091796875,0.008987247943878174,-0.00994420051574707
1772537841002052600,2.899052490234375,-0.001453399658203125,0.011393323540687561,-0.006324365735054016
1772537841020648000,2.91764794921875,0.0033140182495117188,0.013734191656112671,0.007993817329406738
1772537841039243500,2.936243408203125,-0.0027246475219726562,0.014934375882148743,-0.0012835860252380371
1772537841057839000,2.954839111328125,0.005710601806640625,0.018388554453849792,-0.00347040593624115
1772537841076434700,2.9734345703125,0.0032196044921875,0.017009779810905457,-0.005814656615257263
1772537841095030300,2.9920302734375,0.0009107589721679688,0.005120411515235901,0.020230695605278015
1772537841113625900,3.0106259765625,-0.007382392883300781,0.019426196813583374,-0.00933907926082611
1772537841132221400,3.029221435546875,0.0044040679931640625,0.005112022161483765,-0.00205838680267334
1772537841150817000,3.047817138671875,-0.010984420776367188,0.02527819573879242,-0.006628811359405518
1772537841169412400,3.066412353515625,0.0000782012939453125,0.012265220284461975,0.006403371691703796
1772537841188008000,3.085008056640625,-0.014089584350585938,0.008824557065963745,-0.0030159950256347656
1772537841206603500,3.103603515625,-0.0033960342407226562,0.004124626517295837,-0.0028785616159439087
1772537841225199000,3.12219921875,-0.0033111572265625,0.0029700547456741333,-0.005141302943229675
1772537841243794700,3.140794677734375,0.002655029296875,0.0030434131622314453,0.01747812330722809
1772537841262390300,3.159390380859375,-0.006754875183105469,0.003093808889389038,0.01103152334690094
1772537841280985900,3.17798583984375,0.0038728713989257812,-0.0027469247579574585,-0.003060638904571533
1772537841299581200,3.196581298828125,0.0015611648559570312,0.00922885537147522,-0.0017417669296264648
1772537841318176800,3.2151767578125,-0.0006532669067382812,0.010420620441436768,0.010203689336776733
1772537841336772400,3.2337724609375,0.007460594177246094,0.03183102607727051,-0.004046604037284851
1772537841355368000,3.252367919921875,0.001422882080078125,0.0009872764348983765,0.0055265873670578
1772537841373963500,3.270963623046875,-0.011514663696289062,0.02467028796672821,-0.004125148057937622
1772537841392559000,3.28955908203125,0.00034809112548828125,0.014047279953956604,0.005249440670013428
1772537841411154700,3.30815478515625,-0.002101898193359375,0.017437651753425598,0.013424262404441833
1772537841429750000,3.32675,-0.01745319366455078,0.016099631786346436,0.003704935312271118
1772537841448345600,3.345345703125,0.0004520416259765625,0.027748748660087585,0.0060646384954452515
1772537841466941200,3.363941162109375,0.0016489028930664062,0.02016972005367279,0.014032617211341858
1772537841485536800,3.382536865234375,0.005057334899902344,0.02950163185596466,-0.0001360774040222168
1772537841504132400,3.40113232421875,0.0013132095336914062,0.0059181153774261475,0.005922690033912659
1772537841522728000,3.41972802734375,-0.009246826171875,0.011871308088302612,-0.008266523480415344
1772537841541323500,3.438323486328125,0.005875587463378906,0.02236837148666382,-0.012794747948646545
1772537841559919000,3.456919189453125,-0.004872322082519531,0.014977425336837769,0.003979623317718506
1772537841578514400,3.475514404296875,-0.009521484375,0.024393603205680847,0.0005153268575668335
1772537841597110000,3.494110107421875,0.0048084259033203125,0.006390690803527832,0.01108907163143158
1772537841615705600,3.51270556640625,0.012935638427734375,0.0101691335439682,0.005122318863868713
1772537841634301200,3.53130126953125,0.0066986083984375,0.016137346625328064,-0.004025846719741821
1772537841652896800,3.549896728515625,0.011449813842773438,0.017181426286697388,0.012350112199783325
1772537841671492000,3.5684921875,-0.0017404556274414062,0.014951735734939575,-0.0008242279291152954
1772537841690087700,3.587087646484375,0.008880615234375,0.02201630175113678,0.00040772557258605957
1772537841708683300,3.605683349609375,0.004107475280761719,0.01384870707988739,-0.004458919167518616
1772537841727278800,3.62427880859375,0.013491630554199219,0.015154749155044556,-0.012721776962280273
1772537841745874400,3.64287451171875,0.005179405212402344,0.019858792424201965,0.002816930413246155
1772537841764470000,3.661469970703125,-0.014962196350097656,0.006927862763404846,-0.0031394660472869873
1772537841783065600,3.680065673828125,-0.0041027069091796875,0.024856165051460266,0.000516355037689209
1772537841801661200,3.6986611328125,-0.002758026123046875,0.022257357835769653,0.00643940269947052
1772537841820256500,3.717256591796875,-0.0075359344482421875,0.0067965686321258545,-0.012605547904968262
1772537841838852000,3.73585205078125,-0.006257057189941406,0.019839763641357422,0.013623058795928955
1772537841857447700,3.75444775390625,-0.00382232666015625,0.01975385844707489,0.007546767592430115
1772537841876043300,3.773043212890625,0.008059501647949219,-0.003887549042701721,-0.01256193220615387
1772537841894638800,3.791638916015625,0.0031366348266601562,0.026071622967720032,0.005360707640647888
1772537841913234200,3.810234130859375,-0.008639335632324219,0.007036909461021423,-0.0005358904600143433
1772537841931830000,3.828830078125,0.012560844421386719,0.01661492884159088,0.0004446357488632202
1772537841950425300,3.84742529296875,0.015745162963867188,0.002610713243484497,0.0088919997215271
1772537841969021000,3.86602099609375,-0.0021333694458007812,0.017051607370376587,0.005025953054428101
1772537841987616500,3.884616455078125,-0.008069992065429688,0.010020032525062561,0.00494779646396637
1772537842006212000,3.903212158203125,-0.005614280700683594,0.013648271560668945,0.00955452024936676
1772537842024807700,3.9218076171875,-0.0053958892822265625,0.0100678950548172,0.008477017283439636
1772537842043403300,3.9404033203125,-0.00055694580078125,0.012470826506614685,0.004770487546920776
1772537842061998600,3.95899853515625,0.0005922317504882812,0.01961207389831543,-0.005678340792655945
1772537842080594200,3.97759423828125,0.004116058349609375,0.02528645098209381,0.00040283799171447754
1772537842099189800,3.996189697265625,0.0051898956298828125,0.01797373592853546,0.009842932224273682
1772537842117785300,4.014785400390625,-0.010402679443359375,0.018085956573486328,0.00744260847568512
1772537842136381000,4.033380859375,0.019487380981445312,0.01895734667778015,0.00030112266540527344
1772537842154976300,4.051976318359375,0.005013465881347656,0.008245229721069336,0.014552682638168335
1772537842173571800,4.07057177734375,0.0025243759155273438,0.010802894830703735,0.008453741669654846
1772537842192167400,4.08916748046875,0.008356094360351562,0.006223008036613464,-0.0023903101682662964
1772537842210763000,4.107762939453125,-0.0001621246337890625,0.013416171073913574,0.0023297518491744995
1772537842229358600,4.126358642578125,0.0021677017211914062,0.021896541118621826,0.010694146156311035
1772537842247954200,4.1449541015625,-0.0060272216796875,0.014478936791419983,-0.00004540383815765381
1772537842266549500,4.163549560546875,-0.0061492919921875,0.006154149770736694,0.0035442858934402466
1772537842285145300,4.182145263671875,0.0009489059448242188,0.010132163763046265,-0.0000033229589462280273
1772537842303740700,4.20074072265625,-0.006206512451171875,0.025227725505828857,-0.0036240816116333008
1772537842322336300,4.219336181640625,-0.013205528259277344,0.009951755404472351,0.015096023678779602
1772537842340931800,4.237931884765625,0.008221626281738281,0.02074447274208069,-0.002819254994392395
1772537842359527400,4.25652734375,-0.0013952255249023438,0.01017327606678009,-0.017099082469940186
1772537842378123000,4.275123046875,0.005741119384765625,0.013879835605621338,0.0042012035846710205
1772537842396718300,4.29371826171875,-0.0037679672241210938,0.006637662649154663,0.004246816039085388
1772537842415314000,4.31231396484375,0.0057010650634765625,0.016174986958503723,-0.007608041167259216
1772537842433909500,4.330909423828125,0.016073226928710938,0.01264798641204834,0.004391476511955261
1772537842452505000,4.349505126953125,-0.009839057922363281,0.016347646713256836,-0.007531479001045227
1772537842471100700,4.3681005859375,0.005694389343261719,0.019769862294197083,0.009189099073410034
1772537842489696300,4.3866962890625,0.005695343017578125,0.025185927748680115,0.005529433488845825
1772537842508291600,4.40529150390625,0.0032224655151367188,0.021491557359695435,-0.0005231201648712158
1772537842526887200,4.42388720703125,-0.00034046173095703125,0.021416708827018738,-0.012142390012741089
1772537842545482800,4.442482666015625,-0.00045490264892578125,0.008568450808525085,-0.004697829484939575
1772537842564078300,4.461078369140625,-0.0017604827880859375,0.02376653254032135,0.0034011155366897583
1772537842582674000,4.479673828125,0.004250526428222656,0.011775538325309753,-0.0003367513418197632
1772537842601269500,4.49826953125,0.006512641906738281,0.02606014907360077,0.011394381523132324
1772537842619864800,4.51686474609375,0.0016813278198242188,0.008228152990341187,0.007702484726905823
1772537842638460400,4.53546044921875,-0.0030698776245117188,0.009668335318565369,-0.0028834939002990723
1772537842657056000,4.554055908203125,0.01939678192138672,0.014672324061393738,-0.015775561332702637
1772537842675651600,4.572651611328125,-0.0067996978759765625,0.011096462607383728,0.0034809857606887817
1772537842694247200,4.5912470703125,-0.0028934478759765625,0.014586657285690308,0.000049173831939697266
1772537842712842800,4.6098427734375,-0.0005483627319335938,0.009700819849967957,0.011701643466949463
1772537842731438000,4.62843798828125,0.015913963317871094,0.010813772678375244,0.00816352665424347
1772537842750033700,4.64703369140625,0.005970954895019531,-0.0008381754159927368,-0.0038021355867385864
1772537842768629200,4.665629150390625,0.000152587890625,0.020563974976539612,0.0056222230195999146
1772537842787224800,4.684224853515625,-0.010372161865234375,0.018149420619010925,0.008222207427024841
1772537842805820400,4.7028203125,-0.0008029937744140625,0.01915694773197174,-0.000219002366065979
1772537842824415700,4.721415771484375,-0.0019397735595703125,0.028344184160232544,0.010325700044631958
1772537842843011300,4.74001123046875,0.005196571350097656,0.00227317214012146,-0.0015510320663452148
1772537842861607000,4.75860693359375,-0.015984535217285156,0.010757341980934143,0.007863715291023254
1772537842880202500,4.777202392578125,-0.0026988983154296875,0.015736430883407593,0.011235311627388
1772537842898798000,4.795798095703125,0.005618095397949219,0.01703581213951111,-0.0031259655952453613
1772537842917393700,4.8143935546875,0.0007381439208984375,0.014684364199638367,0.002835512161254883
1772537842935989000,4.832989013671875,-0.0028982162475585938,0.028605014085769653,-0.0006547719240188599
1772537842954584600,4.85158447265625,-0.008673667907714844,0.007143005728721619,0.014601662755012512
1772537842973180200,4.87018017578125,-0.018041610717773438,0.01565602421760559,0.010973721742630005
1772537842991775700,4.888775634765625,-0.01288604736328125,0.024039581418037415,0.002562224864959717
1772537843010371300,4.907371337890625,-0.004410743713378906,0.013173133134841919,-0.012724041938781738
1772537843028967000,4.925966796875,0.011038780212402344,0.012168660759925842,0.009906694293022156
1772537843047562200,4.944562255859375,-0.0067844390869140625,0.005364909768104553,0.0015374720096588135
1772537843066157800,4.96315771484375,0.0017299652099609375,0.004268214106559753,0.008597254753112793
1772537843084753400,4.98175341796875,-0.004372596740722656,0.027958229184150696,0.003743395209312439
1772537843103349000,5.000348876953125,-0.007784843444824219,0.013635694980621338,0.002670466899871826
1772537843121944600,5.018944580078125,-0.006439208984375,0.011460348963737488,-0.002060413360595703
1772537843140540000,5.037539794921875,-0.0028028488159179688,0.021159514784812927,-0.0033079832792282104
1772537843159135500,5.056135498046875,-0.012263298034667969,0.005594596266746521,-0.006833598017692566
1772537843177731000,5.07473095703125,0.0035076141357421875,0.021004602313041687,0.0029276609420776367
1772537843196326700,5.09332666015625,-0.010651588439941406,0.01499699056148529,-0.006169155240058899
1772537843214922200,5.111922119140625,0.0014581680297851562,0.0019762814044952393,0.017347514629364014
1772537843233517800,5.130517822265625,0.004855155944824219,0.01979909837245941,-0.001727178692817688
1772537843252113200,5.149113037109375,0.007293701171875,0.010187357664108276,0.004250943660736084
1772537843270708700,5.167708740234375,-0.003582000732421875,0.007859036326408386,0.0004316568374633789
1772537843289304300,5.18630419921875,-0.0057277679443359375,0.01738080382347107,-0.011370941996574402
1772537843307900000,5.20489990234375,0.0039052963256835938,0.011656463146209717,0.0007525235414505005
1772537843326495500,5.22349560546875,0.0037288665771484375,0.012964963912963867,0.0008131265640258789
1772537843345091000,5.242091064453125,0.0036363601684570312,0.011844724416732788,0.017172858119010925
1772537843363686400,5.260686279296875,-0.0046100616455078125,0.014432176947593689,-0.008809536695480347
1772537843382282000,5.279281982421875,-0.0020132064819335938,0.02042478322982788,0.0041810572147369385
1772537843400877600,5.297877685546875,0.008439064025878906,0.015468388795852661,-0.0028903037309646606
1772537843419473200,5.31647314453125,0.009467124938964844,0.015237763524055481,0.001790463924407959
1772537843438068500,5.335068359375,0.00563812255859375,0.005623549222946167,-0.004120424389839172
1772537843456664000,5.3536640625,0.000858306884765625,-0.0014999806880950928,-0.0013542026281356812
1772537843475259600,5.372259765625,-0.004862785339355469,0.02484019100666046,-0.00023205578327178955
1772537843493855200,5.390855224609375,-0.008218765258789062,0.009313628077507019,-0.0036040395498275757
1772537843512450800,5.409450927734375,0.00034046173095703125,0.010535106062889099,0.0000902414321899414
1772537843531046400,5.42804638671875,-0.0008916854858398438,0.005750998854637146,0.0023245513439178467
1772537843549641700,5.446641845703125,0.004974365234375,0.016470402479171753,-0.014259129762649536
1772537843568237300,5.4652373046875,0.0025072097778320312,0.021113991737365723,-0.004572615027427673
1772537843586833000,5.4838330078125,-0.016248703002929688,0.02345694601535797,-0.0011187493801116943
1772537843605428500,5.502428466796875,0.008790016174316406,-0.0003803819417953491,0.0012229233980178833
1772537843624024000,5.521024169921875,-0.0007429122924804688,0.016297489404678345,0.005843102931976318
1772537843642619400,5.539619384765625,0.0004119873046875,0.007996633648872375,0.003451898694038391
1772537843661215000,5.558215087890625,0.0039005279541015625,0.004673406481742859,-0.007161468267440796
1772537843679810600,5.576810546875,-0.00807952880859375,0.02126222848892212,0.006727337837219238
1772537843698406100,5.59540625,-0.0044269561767578125,0.002307116985321045,0.008929803967475891
1772537843717001500,5.61400146484375,0.011987686157226562,0.007302567362785339,0.0006109923124313354
1772537843735597000,5.63259716796875,-0.011906623840332031,0.018183693289756775,0.0007993429899215698
1772537843754192600,5.651192626953125,-0.009285926818847656,0.021482735872268677,0.0007663518190383911
1772537843772788200,5.669788330078125,-0.010219573974609375,0.021502524614334106,-0.0026361048221588135
1772537843791383800,5.6883837890625,0.0006008148193359375,0.014118745923042297,0.0023183077573776245
1772537843809979400,5.7069794921875,0.0027713775634765625,0.01390063762664795,-0.014067485928535461
1772537843828574700,5.72557470703125,0.0027914047241210938,0.016368895769119263,-0.0017346590757369995
1772537843847170300,5.74417041015625,0.004008293151855469,0.02899937331676483,0.004194468259811401
1772537843865766000,5.762765869140625,-0.015954017639160156,0.021719440817832947,0.0028929859399795532
1772537843884361500,5.781361572265625,-0.0024929046630859375,0.01700855791568756,-0.003160923719406128
1772537843902956800,5.799956787109375,-0.007221221923828125,0.026394113898277283,0.009835898876190186
1772537843921552400,5.818552490234375,-0.012873649597167969,0.017832204699516296,0.005866259336471558
1772537843940148000,5.83714794921875,0.0037994384765625,0.02710805833339691,0.005894571542739868
1772537843958743600,5.85574365234375,0.014272689819335938,0.013936027884483337,-0.002448037266731262
1772537843977339000,5.8743388671875,-0.010578155517578125,0.0045091211795806885,0.000008866190910339355
1772537843995934500,5.8929345703125,0.0000762939453125,0.012963801622390747,0.004552632570266724
1772537844014530000,5.911530029296875,-0.010601997375488281,0.007105141878128052,0.006630927324295044
1772537844033125600,5.930125732421875,0.008466720581054688,0.01791827380657196,-0.0026239007711410522
1772537844051721200,5.94872119140625,0.0035104751586914062,0.028603941202163696,0.0020897388458251953
1772537844070316800,5.96731689453125,-0.0061244964599609375,0.02734459936618805,0.004317820072174072
1772537844088912100,5.985912109375,-0.0013818740844726562,0.006927266716957092,-0.017020508646965027
1772537844107507700,6.0045078125,-0.00024890899658203125,0.016622871160507202,0.009214341640472412
1772537844126103300,6.023103271484375,0.0032396316528320312,0.011727914214134216,0.004267141222953796
1772537844144699000,6.041698974609375,-0.009640693664550781,0.014101773500442505,0.0021300464868545532
1772537844163294200,6.060294189453125,0.0092010498046875,0.008339673280715942,0.0022486448287963867
1772537844181889800,6.078889892578125,0.0033826828002929688,0.015269830822944641,0.010575070977210999
1772537844200485400,6.0974853515625,-0.0049152374267578125,0.014070704579353333,0.008211955428123474
1772537844219081000,6.1160810546875,-0.0025243759155273438,0.009385377168655396,-0.011656790971755981
1772537844237676300,6.13467626953125,-0.00026988983154296875,0.02829080820083618,0.006369590759277344
1772537844256272000,6.15327197265625,-0.008523941040039062,0.01829943060874939,-0.002058669924736023
1772537844274867500,6.171867431640625,0.0010633468627929688,0.018035367131233215,-0.003199279308319092
1772537844293463000,6.190463134765625,-0.008093833923339844,0.026181519031524658,-0.0005248934030532837
1772537844312058400,6.209058349609375,-0.004245758056640625,-0.0009171217679977417,0.0053869932889938354
1772537844330654000,6.227654052734375,0.0051441192626953125,0.019226759672164917,0.0017644762992858887
1772537844349249500,6.24624951171875,-0.006622314453125,0.006492584943771362,0.0003994852304458618
1772537844367845000,6.26484521484375,-0.0101776123046875,0.005434691905975342,0.003945440053939819
1772537844386440700,6.283440673828125,0.0005054473876953125,0.017192110419273376,-0.0005112290382385254
1772537844405036300,6.302036376953125,0.0157928466796875,0.020779207348823547,0.01336735486984253
1772537844423631600,6.320631591796875,-0.005599021911621094,0.0067941248416900635,0.008398160338401794
1772537844442227200,6.339227294921875,0.0016565322875976562,0.016366228461265564,0.007226184010505676
1772537844460822800,6.35782275390625,0.005084037780761719,0.01287195086479187,0.01672688126564026
1772537844479418400,6.37641845703125,-0.0020895004272460938,0.011523440480232239,-0.010310247540473938
1772537844498013700,6.395013671875,-0.0033206939697265625,0.011542648077011108,0.005246222019195557
1772537844516609300,6.413609375,0.010840415954589844,0.009121358394622803,0.007639467716217041
1772537844535204900,6.432204833984375,-0.015406608581542969,0.006711065769195557,0.013371825218200684
1772537844553800400,6.450800537109375,-0.0033979415893554688,0.0069989413022994995,-0.0021309852600097656
1772537844572395800,6.469395751953125,-0.0021562576293945312,0.006971597671508789,-0.0032410621643066406
1772537844590991400,6.487991455078125,-0.004443168640136719,0.026973649859428406,-0.006668254733085632
1772537844609587000,6.5065869140625,0.0027551651000976562,0.021629631519317627,0.008506953716278076
1772537844628182500,6.5251826171875,-0.0028705596923828125,0.013313814997673035,-0.008008033037185669
1772537844646777900,6.54377783203125,-0.005253791809082031,0.020262643694877625,0.003872126340866089
1772537844665373400,6.56237353515625,-0.008593559265136719,0.007024124264717102,0.010907560586929321
1772537844683969000,6.580968994140625,-0.000102996826171875,0.017711982131004333,0.000380590558052063
1772537844702564600,6.599564697265625,0.0032663345336914062,0.015372321009635925,0.0015826225280761719
1772537844721160000,6.618159912109375,0.017269134521484375,0.01763591170310974,-0.0089387446641922
1772537844739755500,6.636755615234375,0.007750511169433594,0.013912022113800049,-0.006447196006774902
1772537844758351000,6.65535107421875,0.0005445480346679688,0.01174260675907135,-0.008392423391342163
1772537844776946700,6.67394677734375,0.00399017333984375,0.0011890381574630737,0.004904076457023621
1772537844795542000,6.6925419921875,-0.009089469909667969,0.014101982116699219,-0.014098644256591797
1772537844814137600,6.7111376953125,-0.0112457275390625,0.017731964588165283,0.009510695934295654
1772537844832733200,6.729733154296875,-0.008725166320800781,0.007218360900878906,0.004623785614967346
1772537844851328800,6.748328857421875,-0.00252532958984375,0.01339942216873169,0.002211526036262512
1772537844869924000,6.766924072265625,0.007843971252441406,0.018131479620933533,-0.008556947112083435
1772537844888519700,6.785519775390625,-0.004032135009765625,0.017074406147003174,0.015087813138961792
1772537844907115300,6.804115234375,0.003032684326171875,0.008825421333312988,0.004248261451721191
1772537844925710800,6.8227109375,0.005435943603515625,0.011360213160514832,0.0007881075143814087
1772537844944306200,6.84130615234375,-0.012261390686035156,0.010198920965194702,-0.00865975022315979
1772537844962901800,6.85990185546875,0.004549980163574219,0.007809057831764221,0.007930189371109009
1772537844981497000,6.8784970703125,0.0008420944213867188,0.010536029934883118,-0.005005672574043274
1772537845000092700,6.8970927734375,-0.008503913879394531,-0.007257014513015747,0.0044036805629730225
1772537845018688300,6.915688232421875,0.0034933090209960938,0.019014880061149597,0.003233984112739563
1772537845037283800,6.934283935546875,-0.0025930404663085938,0.02610410749912262,-0.00032842159271240234
1772537845055879200,6.952879150390625,-0.0050029754638671875,0.00688326358795166,0.009205341339111328
1772537845074474800,6.971474853515625,0.0022335052490234375,0.0077661871910095215,0.0022168904542922974
1772537845093070300,6.9900703125,-0.003887176513671875,0.018593162298202515,0.0046161264181137085
1772537845111666000,7.008666015625,-0.0025911331176757812,0.01852208375930786,-0.0003785640001296997
1772537845130261500,7.027261474609375,-0.007414817810058594,0.008021548390388489,-0.006313726305961609
1772537845148856800,7.04585693359375,-0.008469581604003906,0.015423879027366638,0.0021196752786636353
1772537845167452400,7.064452392578125,0.00815582275390625,0.021325647830963135,0.006775081157684326
1772537845186048000,7.083048095703125,-0.016553878784179688,0.022714167833328247,0.0019160956144332886
1772537845204643600,7.1016435546875,0.0012235641479492188,0.008441820740699768,0.006580725312232971
1772537845223239000,7.120239013671875,-0.0010576248168945312,0.01427227258682251,-0.0051084160804748535
1772537845241834500,7.13883447265625,-0.006875038146972656,0.01196075975894928,0.0018458515405654907
1772537845260430000,7.15743017578125,-0.012751579284667969,0.01655234396457672,0.0052253007888793945
1772537845279025400,7.176025390625,-0.00655364990234375,0.0033129900693893433,0.008555859327316284
1772537845297621000,7.19462109375,-0.006424903869628906,0.014166727662086487,0.00597737729549408
1772537845316216600,7.213216552734375,0.0030384063720703125,0.03768622875213623,0.004877224564552307
1772537845334812000,7.23181201171875,0.006478309631347656,0.017373889684677124,0.00009913742542266846
1772537845353407500,7.250407470703125,-0.0008039474487304688,0.012838125228881836,0.003635406494140625
1772537845372003000,7.269003173828125,0.007355690002441406,0.016459956765174866,-0.004353076219558716
1772537845390598700,7.2875986328125,0.0002422332763671875,-0.001283004879951477,-0.0031308233737945557
1772537845409194000,7.306194091796875,-0.00771331787109375,0.003619372844696045,0.0018786489963531494
1772537845427789600,7.32478955078125,0.0029468536376953125,0.008553922176361084,-0.005274936556816101
1772537845446385200,7.34338525390625,0.0063915252685546875,0.03230033814907074,0.0055077821016311646
1772537845464980500,7.36198046875,-0.0030984878540039062,0.007298454642295837,-0.012064993381500244
1772537845483576000,7.380576171875,-0.005454063415527344,0.012174233794212341,0.007038667798042297
1772537845502171600,7.399171630859375,-0.004302978515625,0.026519417762756348,0.0070317089557647705
1772537845520767200,7.417767333984375,-0.00681304931640625,0.021570920944213867,0.010623782873153687
1772537845539362600,7.436362548828125,-0.00441741943359375,0.02150838077068329,0.000019684433937072754
1772537845557958100,7.454958251953125,-0.008924484252929688,0.007033035159111023,0.0037163197994232178
1772537845576553700,7.4735537109375,-0.017068862915039062,0.007004529237747192,0.0025702863931655884
1772537845595149300,7.4921494140625,-0.0060787200927734375,0.013932392001152039,0.0027382075786590576
1772537845613744600,7.51074462890625,-0.00141143798828125,0.023431137204170227,-0.004225626587867737
1772537845632340200,7.52934033203125,-0.0025882720947265625,0.007079795002937317,-0.0008872747421264648
1772537845650935600,7.547935546875,0.004528999328613281,0.00369986891746521,-0.000859484076499939
1772537845669531100,7.56653125,-0.005103111267089844,0.016083478927612305,0.013130664825439453
1772537845688126700,7.585126708984375,0.011349678039550781,0.0081358402967453,-0.01757436990737915
1772537845706722300,7.603722412109375,0.0030231475830078125,0.007126927375793457,-0.004521369934082031
1772537845725317600,7.622317626953125,-0.00400543212890625,0.021643400192260742,-0.005377456545829773
1772537845743913200,7.640913330078125,0.0020198822021484375,0.013214796781539917,0.0076625049114227295
1772537845762508500,7.659508544921875,-0.0027408599853515625,0.01894053816795349,0.012402161955833435
1772537845781104000,7.678104248046875,0.000774383544921875,0.021183237433433533,-0.0019002258777618408
1772537845799699700,7.69669970703125,0.011366844177246094,0.016456127166748047,0.008998632431030273
1772537845818295300,7.71529541015625,-0.01015472412109375,0.004694044589996338,-0.010999724268913269
1772537845836890600,7.733890625,0.0077419281005859375,0.010801732540130615,-0.0026335865259170532
1772537845855486200,7.752486328125,-0.0029315948486328125,0.021247148513793945,0.0031959861516952515
1772537845874081800,7.771081787109375,-0.0007638931274414062,0.01286904513835907,0.0008851587772369385
1772537845892677000,7.789677001953125,-0.01145172119140625,0.015369132161140442,0.012278690934181213
1772537845911272700,7.808272705078125,-0.010120391845703125,0.008202359080314636,-0.012673720717430115
1772537845929868300,7.826868408203125,-0.0016765594482421875,0.00004380941390991211,-0.0008756965398788452
1772537845948463900,7.8454638671875,-0.0002727508544921875,0.010681316256523132,0.004772111773490906
1772537845967059200,7.86405908203125,-0.0013885498046875,0.022303998470306396,0.003620848059654236
1772537845985654800,7.88265478515625,0.005633354187011719,0.014033600687980652,-0.020876944065093994
1772537846004250000,7.90125,0.013731956481933594,0.014159530401229858,0.0019192993640899658
1772537846022845700,7.919845703125,-0.0017099380493164062,0.012889698147773743,0.006389334797859192
1772537846041441300,7.938441162109375,-0.0029163360595703125,0.009266465902328491,0.00971311330795288
1772537846060036600,7.95703662109375,-0.006396293640136719,0.020129352807998657,0.011960625648498535
1772537846078632200,7.975632080078125,-0.004935264587402344,0.019878655672073364,0.009520888328552246
1772537846097227800,7.994227783203125,-0.02013397216796875,0.005709752440452576,0.006837666034698486
1772537846115823400,8.0128232421875,0.012034416198730469,0.021315813064575195,0.0010962188243865967
1772537846134418700,8.031418701171875,-0.0023517608642578125,0.012884140014648438,0.0012722164392471313
1772537846153014300,8.05001416015625,0.007129669189453125,0.006783410906791687,-0.001115262508392334
1772537846171609600,8.068609619140625,-0.0072307586669921875,0.019864335656166077,0.00360184907913208
1772537846190205200,8.087205078125,-0.005942344665527344,0.017458826303482056,-0.002038225531578064
1772537846208800800,8.10580078125,-0.012910842895507812,0.025433674454689026,-0.0030900686979293823
1772537846227396000,8.12439599609375,0.00725555419921875,0.029740720987319946,-0.004296168684959412
1772537846245991700,8.14299169921875,0.004795074462890625,0.021334141492843628,-0.0030294954776763916
1772537846264587300,8.161587158203124,-0.005805015563964844,0.022695139050483704,0.001634255051612854
1772537846283182800,8.180182861328126,0.0026950836181640625,0.020034804940223694,-0.017342910170555115
1772537846301778200,8.198778076171875,-0.0007944107055664062,0.010517194867134094,-0.002845093607902527
1772537846320373800,8.217373779296874,-0.0055561065673828125,0.019976884126663208,0.003203168511390686
1772537846338969000,8.235968994140626,0.003970146179199219,0.02336043119430542,-0.006278857588768005
1772537846357564700,8.254564697265625,-0.0031480789184570312,0.022172749042510986,0.009245917201042175
1772537846376160000,8.273159912109374,0.004027366638183594,0.023144632577896118,-0.0027083605527877808
1772537846394755600,8.291755615234376,0.0016117095947265625,0.010951116681098938,0.005625545978546143
1772537846413351200,8.31035107421875,0.0016279220581054688,0.012195378541946411,0.010201334953308105
1772537846431946500,8.328946533203125,-0.0029840469360351562,0.009845912456512451,0.001917332410812378
1772537846450542000,8.3475419921875,-0.0017156600952148438,0.00264778733253479,0.006822764873504639
1772537846469137700,8.3661376953125,0.008823394775390625,0.012489154934883118,0.010216042399406433
1772537846487733200,8.384733154296875,-0.011284828186035156,0.009257003664970398,-0.010035678744316101
1772537846506328600,8.40332861328125,-0.005137443542480469,0.021166041493415833,0.007862642407417297
1772537846524924200,8.421924072265625,-0.0005273818969726562,0.020048990845680237,-0.00874115526676178
1772537846543519500,8.44051953125,0.0066013336181640625,0.0022046566009521484,-0.0004738420248031616
1772537846562115000,8.459114990234376,-0.000644683837890625,0.026947617530822754,0.013411179184913635
1772537846580710700,8.477710693359375,-0.0043544769287109375,0.006711781024932861,0.01698245108127594
1772537846599306000,8.496305908203125,-0.0020017623901367188,0.0057125091552734375,0.008547753095626831
1772537846617901600,8.514901611328124,0.0036458969116210938,0.008111312985420227,0.00865180790424347
1772537846636497000,8.533496826171875,-0.01279449462890625,0.0036299675703048706,0.0002184659242630005
1772537846655092500,8.552092529296875,0.0027952194213867188,0.007470995187759399,-0.015082955360412598
1772537846673688000,8.57068798828125,0.001674652099609375,0.015683338046073914,0.0005483627319335938
1772537846692283600,8.58928369140625,0.012104988098144531,0.008648350834846497,0.0031560510396957397
1772537846710879000,8.60787890625,-0.0045375823974609375,0.003938063979148865,0.004218682646751404
1772537846729474600,8.626474609375,0.00389862060546875,0.02414548397064209,0.012463778257369995
1772537846748070100,8.645070068359376,0.0036630630493164062,0.0029429197311401367,-0.005314692854881287
1772537846766665500,8.66366552734375,0.010670661926269531,0.0069073885679244995,0.0029530078172683716
1772537846785261000,8.682260986328124,-0.0025320053100585938,0.018850013613700867,0.005206257104873657
1772537846803856400,8.7008564453125,-0.0013170242309570312,0.012730404734611511,0.004069775342941284
1772537846822452000,8.719451904296875,-0.02127838134765625,0.011682942509651184,-0.0029873251914978027
1772537846841047300,8.73804736328125,-0.0068759918212890625,-0.0024137496948242188,-0.006361216306686401
1772537846859643000,8.756642822265626,-0.0009098052978515625,0.029574066400527954,0.007932975888252258
1772537846878238500,8.775238525390625,0.004918098449707031,0.00800544023513794,0.0020432621240615845
1772537846896833800,8.793833740234374,-0.009235382080078125,0.0022424012422561646,0.0008811652660369873
1772537846915429400,8.812429443359376,0.005123138427734375,0.026046916842460632,0.0010163486003875732
1772537846934024700,8.831024658203125,-0.0009527206420898438,0.01857130229473114,-0.008315980434417725
1772537846952620300,8.849620361328125,-0.00661468505859375,0.00567607581615448,-0.003354877233505249
1772537846971216000,8.8682158203125,0.0006389617919921875,0.02580203115940094,0.01585651934146881
1772537846989811200,8.886811279296875,0.020612716674804688,0.007929861545562744,0.007534429430961609
1772537847008406800,8.90540673828125,-0.007901191711425781,0.02462264895439148,0.006368294358253479
1772537847027002400,8.92400244140625,-0.001941680908203125,0.010118737816810608,0.0014905929565429688
1772537847045597700,8.94259765625,-0.0017871856689453125,0.01401086151599884,0.0015503466129302979
1772537847064193300,8.961193359375,-0.005405426025390625,0.021120965480804443,0.01669970154762268
1772537847082788600,8.97978857421875,-0.011137962341308594,0.017658308148384094,0.0022607743740081787
1772537847101384200,8.99838427734375,0.004161834716796875,0.0034398287534713745,0.0022363215684890747
1772537847119979800,9.016979736328125,-0.010160446166992188,0.008444488048553467,0.0007737874984741211
1772537847138575000,9.0355751953125,0.0041866302490234375,0.005156651139259338,-0.0064132362604141235
1772537847157170700,9.054170654296875,0.0051555633544921875,0.02294538915157318,0.007800266146659851
1772537847175766300,9.072766357421875,-0.013688087463378906,0.026381894946098328,0.005152761936187744
1772537847194361600,9.091361572265624,-0.0075969696044921875,0.012011408805847168,0.001660078763961792
1772537847212957200,9.109957275390625,-0.000354766845703125,0.014361515641212463,0.009700819849967957
1772537847231552500,9.128552490234375,0.0021209716796875,0.007313922047615051,0.00626140832901001
1772537847250148000,9.147148193359374,-0.005074501037597656,0.027441397309303284,0.009760722517967224
1772537847268743700,9.16574365234375,0.0009870529174804688,0.007306784391403198,0.01228863000869751
1772537847287339000,9.184339111328125,-0.001270294189453125,0.023815810680389404,-0.000716865062713623
1772537847305934600,9.2029345703125,0.0057830810546875,0.02494095265865326,-0.013917982578277588
1772537847324530000,9.221530029296876,0.005600929260253906,0.013111293315887451,-0.001832038164138794
1772537847343125500,9.24012548828125,0.00768280029296875,0.023632198572158813,-0.0029464513063430786
1772537847361720800,9.258720947265624,0.001697540283203125,0.0057799965143203735,-0.006360366940498352
1772537847380316400,9.27731640625,0.00392913818359375,0.011808514595031738,0.0008015632629394531
1772537847398912000,9.295912109375,-0.0020923614501953125,0.013203591108322144,-0.00029881298542022705
1772537847417507300,9.31450732421875,0.003692626953125,0.028718814253807068,0.0011907219886779785
1772537847436103000,9.33310302734375,0.000072479248046875,0.015733659267425537,-0.007148340344429016
1772537847454698200,9.3516982421875,-0.0022897720336914062,0.01575392484664917,-0.002250984311103821
1772537847473293800,9.3702939453125,0.011816024780273438,0.013479843735694885,-0.0022721439599990845
1772537847491889200,9.38888916015625,-0.008504867553710938,-0.0007301568984985352,-0.010643601417541504
1772537847510484700,9.407484619140625,-0.00823211669921875,0.01971130073070526,0.004882141947746277
1772537847529080300,9.426080322265625,0.0036029815673828125,0.019471824169158936,-0.008036062121391296
1772537847547675600,9.444675537109376,0.0010843276977539062,0.011013001203536987,0.00033205747604370117
1772537847566271200,9.463271240234375,0.001018524169921875,-0.0018116533756256104,0.007357776165008545
1772537847584866600,9.481866455078125,0.002056121826171875,0.024409011006355286,0.003846496343612671
1772537847603462100,9.500462158203124,0.0020771026611328125,0.011433064937591553,-0.00458189845085144
1772537847622057500,9.519057373046875,0.004239082336425781,0.009062126278877258,-0.005463659763336182
1772537847640653000,9.537653076171875,-0.010026931762695312,0.013843074440956116,-0.0004936903715133667
1772537847659248400,9.556248291015624,-0.013449668884277344,0.017415612936019897,0.01606912910938263
1772537847677844000,9.574843994140625,-0.0026979446411132812,0.015955626964569092,0.016810908913612366
1772537847696439300,9.593439208984375,-0.0025186538696289062,0.015992209315299988,-0.0009976774454116821
1772537847715035000,9.612034912109374,0.0022029876708984375,0.023980379104614258,-0.0010562390089035034
1772537847733630500,9.63063037109375,-0.0013284683227539062,0.00852842628955841,-0.00323408842086792
1772537847752225800,9.649225830078125,0.0021982192993164062,0.01088540256023407,-0.009303748607635498
1772537847770821400,9.6678212890625,0.0021381378173828125,0.020294591784477234,0.00037673115730285645
1772537847789416700,9.686416748046875,-0.004784584045410156,0.010848164558410645,-0.00809335708618164
1772537847808012300,9.70501220703125,-0.00455474853515625,0.009777337312698364,0.007429957389831543
1772537847826607600,9.723607666015624,-0.0020008087158203125,0.026401832699775696,0.0035583972930908203
1772537847845203200,9.742203125,0.0006256103515625,0.003611356019973755,0.010491520166397095
1772537847863798800,9.760798828125,-0.013461112976074219,0.020349636673927307,0.006691649556159973
1772537847882394000,9.77939404296875,-0.0048675537109375,0.015712827444076538,-0.005141526460647583
1772537847900989700,9.79798974609375,-0.00708770751953125,0.02043069899082184,-0.007515043020248413
1772537847919585000,9.8165849609375,0.015432357788085938,0.008803695440292358,0.01165132224559784
1772537847938180600,9.8351806640625,0.016304969787597656,0.017121553421020508,-0.0037921518087387085
1772537847956776000,9.85377587890625,0.001796722412109375,0.008993834257125854,-0.006974026560783386
1772537847975371500,9.87237158203125,0.0031042098999023438,0.017264559864997864,-0.018509715795516968
1772537847993966800,9.890966796875,0.0065631866455078125,0.01710808277130127,0.005491733551025391
1772537848012562400,9.9095625,0.00304412841796875,0.020501762628555298,0.013511791825294495
1772537848031157800,9.92815771484375,0.006717681884765625,0.013634860515594482,-0.006614625453948975
1772537848049753300,9.94675341796875,0.0029773712158203125,0.014882758259773254,-0.0030404627323150635
1772537848068348700,9.9653486328125,0.0003986358642578125,0.01859016716480255,0.007697507739067078
1772537848086944300,9.9839443359375,-0.0019769668579101562,0.019685402512550354,0.006262078881263733
1772537848105539600,10.00253955078125,-0.001842498779296875,0.022021979093551636,-0.0044432133436203
1772537848124135200,10.02113525390625,-0.0004787445068359375,0.01962403953075409,-0.0009006708860397339
1772537848142730800,10.039730712890625,-0.00045108795166015625,0.011359766125679016,-0.017310887575149536
1772537848161326000,10.058326171875,-0.013248443603515625,0.007857471704483032,0.016055598855018616
1772537848179921700,10.076921630859376,-0.009545326232910156,0.025616183876991272,0.012128591537475586
1772537848198517000,10.09551708984375,-0.010686874389648438,0.0029459893703460693,-0.00439809262752533
1772537848217112600,10.114112548828125,-0.01973438262939453,-0.00704115629196167,-0.004412755370140076
1772537848235708000,10.1327080078125,-0.0074443817138671875,0.03225107491016388,-0.004353463649749756
1772537848254303200,10.15130322265625,-0.010853767395019531,0.007273808121681213,0.0016907751560211182
1772537848272898800,10.16989892578125,0.004477500915527344,0.020377546548843384,0.001778528094291687
1772537848291494400,10.188494384765624,0.0017719268798828125,0.007401064038276672,0.015810087323188782
1772537848310089700,10.20708984375,-0.0018253326416015625,-0.0019993335008621216,0.015346750617027283
1772537848328685300,10.225685302734375,0.00748443603515625,0.00531962513923645,0.011491939425468445
1772537848347280600,10.24428076171875,-0.004338264465332031,0.028804868459701538,-0.001423954963684082
1772537848365876200,10.262876220703125,-0.0007925033569335938,0.00972844660282135,0.0034520775079727173
1772537848384471600,10.281471435546875,-0.011342048645019531,0.01330237090587616,0.0011025816202163696
1772537848403067100,10.300067138671874,-0.004172325134277344,0.014660477638244629,-0.014234557747840881
1772537848421662500,10.318662353515625,0.0029001235961914062,0.02991361916065216,0.01318405568599701
1772537848440258000,10.337258056640625,0.001483917236328125,0.024920105934143066,-0.0022297203540802
1772537848458853400,10.355853271484374,-0.01619720458984375,0.0175783634185791,-0.0033380836248397827
1772537848477449000,10.374448974609376,-0.018279075622558594,0.015091091394424438,-0.006851762533187866
1772537848496044300,10.393044189453125,-0.004978179931640625,0.019788041710853577,0.013331890106201172
1772537848514640000,10.411639892578124,-0.01644611358642578,0.010133743286132812,0.0013837963342666626
1772537848533235200,10.430235107421876,0.012030601501464844,0.009233340620994568,-0.004451856017112732
1772537848551830800,10.448830810546875,0.001407623291015625,0.007022783160209656,0.0001618117094039917
1772537848570426000,10.467426025390624,0.014215469360351562,0.004701763391494751,-0.01039208471775055
1772537848589021700,10.486021728515626,0.006993293762207031,0.017499282956123352,0.008770287036895752
1772537848607617000,10.504616943359375,-0.00028514862060546875,0.026844337582588196,0.0004300922155380249
1772537848626212600,10.523212646484374,0.005715370178222656,0.02328553795814514,0.0041161030530929565
1772537848644808000,10.541807861328126,0.0009107589721679688,0.008958503603935242,0.010919660329818726
1772537848663403500,10.560403564453125,0.0066394805908203125,0.01967771351337433,-0.010527372360229492
1772537848681998800,10.578998779296874,0.0031766891479492188,0.024351805448532104,-0.0011970102787017822
1772537848700594200,10.59759423828125,0.0018720626831054688,0.019362643361091614,0.004791155457496643
1772537848719189800,10.616189697265625,-0.000335693359375,0.019302546977996826,0.00112992525100708
1772537848737785300,10.634785400390625,0.0024728775024414062,0.008696332573890686,0.007154360413551331
1772537848756380700,10.653380615234376,0.003753662109375,0.007621556520462036,-0.0024151206016540527
1772537848774976300,10.671976318359375,0.010601997375488281,0.009040489792823792,0.002330303192138672
1772537848793571600,10.690571533203125,0.006834983825683594,0.007901787757873535,0.0024563223123550415
1772537848812167000,10.7091669921875,0.016111373901367188,0.008066326379776001,0.008189544081687927
1772537848830762500,10.727762451171875,0.00766754150390625,0.010638967156410217,0.0025270432233810425
1772537848849357800,10.74635791015625,0.011053085327148438,0.01875804364681244,0.009540468454360962
1772537848867953400,10.764953369140626,-0.006771087646484375,0.017647966742515564,-0.003657802939414978
1772537848886549000,10.783549072265625,0.0015802383422851562,0.014258578419685364,0.002393662929534912
1772537848905144300,10.802144287109375,0.0027751922607421875,0.016858309507369995,-0.00007721781730651855
1772537848923739600,10.82073974609375,0.004067420959472656,0.01591309905052185,0.009250983595848083
1772537848942335200,10.839335205078125,0.0108489990234375,0.01820191740989685,0.023339778184890747
1772537848960930600,10.8579306640625,-0.0011844635009765625,0.009837016463279724,-0.004022076725959778
1772537848979526100,10.876526123046874,-0.0034475326538085938,0.015024468302726746,0.012669384479522705
1772537848998121500,10.89512158203125,0.004657745361328125,0.02088095247745514,-0.007350340485572815
1772537849016717000,10.913717041015625,-0.005974769592285156,0.023162871599197388,-0.010531798005104065
1772537849035312400,10.9323125,-0.0035676956176757812,0.021667957305908203,0.005071163177490234
1772537849053907700,10.95090771484375,0.004700660705566406,0.00495244562625885,0.03076966106891632
1772537849072503300,10.96950341796875,-0.00146484375,0.007590591907501221,0.005267336964607239
1772537849091099000,10.988098876953124,0.007927894592285156,0.02526676654815674,-0.007761016488075256
1772537849109694200,11.006694091796875,0.0006761550903320312,0.005272656679153442,-0.0110262930393219
1772537849128289500,11.02528955078125,-0.0041370391845703125,0.013580322265625,-0.021386444568634033
1772537849146885000,11.043885009765624,-0.0041046142578125,0.010038137435913086,-0.004405558109283447
1772537849165480400,11.06248046875,0.007687568664550781,0.015106752514839172,0.01111207902431488
1772537849184076000,11.081075927734375,0.0016603469848632812,0.01396903395652771,0.002706870436668396
1772537849202671400,11.09967138671875,-0.008993148803710938,0.011646494269371033,0.010999426245689392
1772537849221266700,11.1182666015625,-0.005331993103027344,0.020043864846229553,-0.006582111120223999
1772537849239862300,11.1368623046875,-0.003909111022949219,0.01167549192905426,0.005278974771499634
1772537849258457900,11.155457763671874,0.0031309127807617188,0.012070074677467346,0.005073577165603638
1772537849277053200,11.17405322265625,-0.007622718811035156,0.01790808141231537,0.008572876453399658
1772537849295648500,11.1926484375,-0.009867668151855469,0.02251918613910675,-0.011257633566856384
1772537849314244000,11.211244140625,-0.0014905929565429688,0.024497047066688538,-0.009713143110275269
1772537849332839400,11.22983935546875,0.012694358825683594,0.022504031658172607,-0.0034991949796676636
1772537849351435000,11.24843505859375,-0.0016660690307617188,0.025444895029067993,0.023680269718170166
1772537849370030300,11.2670302734375,0.0018796920776367188,0.005883410573005676,0.0078024715185165405
1772537849388625700,11.285625732421876,0.0029745101928710938,0.01148475706577301,-0.005395650863647461
1772537849407221200,11.30422119140625,-0.0017490386962890625,0.009886160492897034,-0.010916173458099365
1772537849425816600,11.322816650390624,0.0028581619262695312,0.00951695442199707,0.002246573567390442
1772537849444412200,11.341412109375,-0.013569831848144531,0.013882771134376526,-0.0025336891412734985
1772537849463007500,11.360007568359375,0.011309623718261719,0.014837682247161865,0.008087009191513062
1772537849481602800,11.378602783203124,0.001739501953125,0.013188064098358154,-0.007384568452835083
1772537849500198400,11.397198486328126,-0.015748977661132812,0.014039009809494019,-0.005013272166252136
1772537849518794000,11.4157939453125,0.006737709045410156,0.02280883491039276,-0.006184622645378113
1772537849537389300,11.434389404296875,0.1967782974243164,0.021291807293891907,-0.01003718376159668
1772537849555984600,11.452984619140626,-0.38074207305908203,0.028032511472702026,0.001511603593826294
1772537849574580200,11.471580322265625,-0.13018035888671875,0.018993526697158813,0.00186079740524292
