time,seconds_elapsed,z,y,x
1772537838203420400,0.10042041015625,-0.0016035200096666813,0.0005345066892914474,-0.003665188793092966
1772537838222016000,0.11901611328125,-0.0009926552884280682,0.000839939049910754,-0.0030543238390237093
1772537838240611600,0.137611572265625,-0.0009926552884280682,-0.00007635809743078426,-0.002443459117785096
1772537838259207200,0.156207275390625,-0.00007635809743078426,-0.00007635809743078426,-0.0030543238390237093
1772537838277802800,0.174802734375,-0.00038179047987796366,0.0005345066892914474,-0.001832594396546483
1772537838296398300,0.1933984375,-0.0009926552884280682,-0.00007635809743078426,-0.0030543238390237093
1772537838314993700,0.21199365234375,-0.0009926552884280682,0.000839939049910754,-0.0021380267571657896
1772537838333589500,0.230589599609375,-0.0009926552884280682,0.00022907429956831038,-0.001832594396546483
1772537838352184800,0.249184814453125,-0.0006872228696011007,0.001450803829357028,-0.0027488914784044027
1772537838370780700,0.26778076171875,-0.0012980876490473747,0.00022907429956831038,-0.002443459117785096
1772537838389376000,0.2863759765625,-0.0009926552884280682,0.001450803829357028,-0.0027488914784044027
1772537838407971600,0.3049716796875,-0.0012980876490473747,-0.00007635809743078426,-0.002443459117785096
1772537838426567200,0.323567138671875,-0.0006872228696011007,0.002061668550595641,-0.002443459117785096
1772537838445162800,0.342162841796875,0.000839939049910754,-0.0006872228696011007,-0.0027488914784044027
1772537838463758300,0.36075830078125,-0.0006872228696011007,0.00022907429956831038,-0.002443459117785096
1772537838482354000,0.37935400390625,-0.0006872228696011007,-0.0006872228696011007,-0.0021380267571657896
1772537838500949500,0.397949462890625,-0.0009926552884280682,0.0005345066892914474,-0.0021380267571657896
1772537838519545000,0.416545166015625,-0.0012980876490473747,0.00022907429956831038,-0.002443459117785096
1772537838538140700,0.435140625,-0.0009926552884280682,0.0005345066892914474,-0.0015271619195118546
1772537838556736300,0.453736328125,-0.00038179047987796366,0.00022907429956831038,-0.002443459117785096
1772537838575331800,0.472331787109375,-0.00007635809743078426,-0.00038179047987796366,-0.002443459117785096
1772537838593927400,0.490927490234375,-0.0012980876490473747,0.0005345066892914474,-0.002443459117785096
1772537838612523000,0.50952294921875,-0.00007635809743078426,0.000839939049910754,-0.0027488914784044027
1772537838631118600,0.52811865234375,-0.0012980876490473747,0.000839939049910754,-0.002443459117785096
1772537838649714200,0.546714111328125,-0.0016035200096666813,0.00022907429956831038,-0.002443459117785096
1772537838668309800,0.565309814453125,-0.0012980876490473747,0.00022907429956831038,-0.0030543238390237093
1772537838686905300,0.5839052734375,-0.0006872228696011007,-0.00007635809743078426,-0.0027488914784044027
1772537838705501000,0.6025009765625,-0.00007635809743078426,0.000839939049910754,-0.0027488914784044027
1772537838724096300,0.62109619140625,-0.0009926552884280682,0.0005345066892914474,-0.0027488914784044027
1772537838742692000,0.639692138671875,-0.0012980876490473747,0.0005345066892914474,-0.0015271619195118546
1772537838761287400,0.658287353515625,-0.0006872228696011007,-0.00007635809743078426,-0.0030543238390237093
1772537838779883300,0.67688330078125,-0.0012980876490473747,-0.00038179047987796366,-0.0015271619195118546
1772537838798478600,0.695478515625,-0.0012980876490473747,0.000839939049910754,-0.0027488914784044027
1772537838817074200,0.71407421875,-0.0009926552884280682,-0.00007635809743078426,-0.0030543238390237093
1772537838835669800,0.732669677734375,-0.0009926552884280682,0.0005345066892914474,-0.0021380267571657896
1772537838854265300,0.751265380859375,-0.0009926552884280682,-0.00007635809743078426,-0.003359756199643016
1772537838872861000,0.76986083984375,-0.00038179047987796366,0.00022907429956831038,-0.001832594396546483
1772537838891456500,0.78845654296875,-0.00038179047987796366,0.00022907429956831038,-0.0027488914784044027
1772537838910052000,0.807052001953125,-0.0016035200096666813,0.0005345066892914474,-0.0030543238390237093
1772537838928647700,0.825647705078125,-0.0009926552884280682,-0.00007635809743078426,-0.002443459117785096
1772537838947243300,0.8442431640625,-0.0006872228696011007,0.00022907429956831038,-0.0027488914784044027
1772537838965838800,0.8628388671875,-0.0019089524867013097,0.0005345066892914474,-0.003665188793092966
1772537838984434400,0.881434326171875,-0.00038179047987796366,-0.00007635809743078426,-0.001832594396546483
1772537839003030000,0.900030029296875,-0.00038179047987796366,0.00022907429956831038,-0.0027488914784044027
1772537839021625600,0.91862548828125,-0.0012980876490473747,-0.00007635809743078426,-0.0021380267571657896
1772537839040221200,0.93722119140625,-0.0006872228696011007,0.0011453714687377214,-0.0027488914784044027
1772537839058816800,0.955816650390625,-0.0006872228696011007,0.00022907429956831038,-0.0027488914784044027
1772537839077412000,0.974412109375,-0.0016035200096666813,-0.00007635809743078426,-0.002443459117785096
1772537839096008000,0.993008056640625,-0.0009926552884280682,0.0005345066892914474,-0.002443459117785096
1772537839114603300,1.011603271484375,-0.0012980876490473747,0.00022907429956831038,-0.002443459117785096
1772537839133199000,1.03019921875,-0.0016035200096666813,-0.00007635809743078426,-0.002443459117785096
1772537839151794400,1.04879443359375,-0.0006872228696011007,0.00022907429956831038,-0.0021380267571657896
1772537839170390000,1.06739013671875,-0.0016035200096666813,0.0011453714687377214,-0.0030543238390237093
1772537839188985600,1.085985595703125,-0.0009926552884280682,0.0011453714687377214,-0.003359756199643016
1772537839207581200,1.104581298828125,-0.0012980876490473747,0.000839939049910754,-0.0030543238390237093
1772537839226176800,1.1231767578125,-0.0009926552884280682,0.00022907429956831038,-0.002443459117785096
1772537839244772400,1.1417724609375,-0.0006872228696011007,0.0011453714687377214,-0.0021380267571657896
1772537839263368000,1.160367919921875,-0.0006872228696011007,0.0005345066892914474,-0.0030543238390237093
1772537839281963500,1.178963623046875,-0.0012980876490473747,-0.00007635809743078426,-0.002443459117785096
1772537839300559000,1.19755908203125,-0.0012980876490473747,-0.00007635809743078426,-0.0030543238390237093
1772537839319154700,1.21615478515625,-0.00038179047987796366,-0.00007635809743078426,-0.0021380267571657896
1772537839337750000,1.23475,-0.0006872228696011007,0.0005345066892914474,-0.0027488914784044027
1772537839356345900,1.253345947265625,-0.0009926552884280682,0.0005345066892914474,-0.002443459117785096
1772537839374941200,1.271941162109375,-0.0009926552884280682,0.000839939049910754,-0.0030543238390237093
1772537839393537000,1.290537109375,-0.0012980876490473747,-0.00007635809743078426,-0.002443459117785096
1772537839412132400,1.30913232421875,-0.0009926552884280682,0.00022907429956831038,-0.002443459117785096
1772537839430728000,1.32772802734375,-0.0006872228696011007,0.00022907429956831038,-0.0030543238390237093
1772537839449323500,1.346323486328125,-0.0009926552884280682,0.0005345066892914474,-0.003359756199643016
1772537839467919000,1.364919189453125,-0.0016035200096666813,-0.00007635809743078426,-0.003970621153712273
1772537839486514700,1.3835146484375,-0.0006872228696011007,0.0005345066892914474,-0.002443459117785096
1772537839505110300,1.4021103515625,-0.0012980876490473747,-0.00007635809743078426,-0.002443459117785096
1772537839523705900,1.420705810546875,-0.00038179047987796366,-0.00038179047987796366,-0.0027488914784044027
1772537839542301400,1.439301513671875,-0.0009926552884280682,-0.00007635809743078426,-0.003359756199643016
1772537839560897000,1.45789697265625,-0.0012980876490473747,0.00022907429956831038,-0.0027488914784044027
1772537839579492600,1.47649267578125,-0.00038179047987796366,0.0005345066892914474,-0.0027488914784044027
1772537839598088000,1.495087890625,-0.0009926552884280682,0.00022907429956831038,-0.0027488914784044027
1772537839616683500,1.51368359375,-0.0009926552884280682,0.0005345066892914474,-0.003359756199643016
1772537839635279000,1.532279052734375,-0.0009926552884280682,-0.00007635809743078426,-0.0027488914784044027
1772537839653874700,1.550874755859375,-0.0009926552884280682,0.0005345066892914474,-0.0015271619195118546
1772537839672470300,1.56947021484375,-0.0006872228696011007,0.0005345066892914474,-0.003359756199643016
1772537839691065900,1.58806591796875,-0.00038179047987796366,0.000839939049910754,-0.001832594396546483
1772537839709661400,1.606661376953125,-0.00038179047987796366,0.0011453714687377214,-0.0030543238390237093
1772537839728257000,1.625257080078125,-0.00038179047987796366,-0.00007635809743078426,-0.0015271619195118546
1772537839746852600,1.6438525390625,-0.00007635809743078426,0.00022907429956831038,-0.0021380267571657896
1772537839765448200,1.6624482421875,-0.00038179047987796366,0.0005345066892914474,-0.0030543238390237093
1772537839784043800,1.681043701171875,-0.0009926552884280682,0.000839939049910754,-0.0030543238390237093
1772537839802639000,1.69963916015625,-0.0009926552884280682,-0.00007635809743078426,-0.0027488914784044027
1772537839821234700,1.718234619140625,-0.0006872228696011007,0.00022907429956831038,-0.0027488914784044027
1772537839839830300,1.736830322265625,-0.0012980876490473747,0.000839939049910754,-0.001832594396546483
1772537839858425900,1.75542578125,-0.0006872228696011007,0.0011453714687377214,-0.002443459117785096
1772537839877021400,1.774021484375,-0.00038179047987796366,0.000839939049910754,-0.0030543238390237093
1772537839895617000,1.792616943359375,-0.0009926552884280682,-0.00038179047987796366,-0.0027488914784044027
1772537839914212600,1.811212646484375,-0.0009926552884280682,0.0005345066892914474,-0.0030543238390237093
1772537839932808200,1.82980810546875,0.0005345066892914474,-0.00007635809743078426,-0.0027488914784044027
1772537839951403800,1.84840380859375,-0.0006872228696011007,-0.00007635809743078426,-0.002443459117785096
1772537839969999400,1.866999267578125,-0.00007635809743078426,-0.0006872228696011007,-0.002443459117785096
1772537839988594700,1.8855947265625,-0.00007635809743078426,0.0005345066892914474,-0.0027488914784044027
1772537840007190300,1.904190185546875,-0.00038179047987796366,0.00022907429956831038,-0.0021380267571657896
1772537840025785900,1.922785888671875,-0.0016035200096666813,0.000839939049910754,-0.0027488914784044027
1772537840044381400,1.94138134765625,-0.0006872228696011007,0.00022907429956831038,-0.002443459117785096
1772537840062977000,1.95997705078125,0.00022907429956831038,0.000839939049910754,-0.002443459117785096
1772537840081572600,1.978572509765625,-0.00038179047987796366,0.0005345066892914474,-0.0021380267571657896
1772537840100168200,1.997168212890625,-0.0006872228696011007,0.000839939049910754,-0.001832594396546483
1772537840118763800,2.015763671875,-0.0012980876490473747,0.00022907429956831038,-0.0030543238390237093
1772537840137359400,2.034359375,-0.0009926552884280682,0.000839939049910754,-0.0030543238390237093
1772537840155954700,2.05295458984375,-0.00038179047987796366,0.0005345066892914474,-0.002443459117785096
1772537840174550500,2.071550537109375,-0.0006872228696011007,0.00022907429956831038,-0.001832594396546483
1772537840193145900,2.090145751953125,-0.0009926552884280682,-0.00007635809743078426,-0.0021380267571657896
1772537840211741400,2.108741455078125,-0.00007635809743078426,0.00022907429956831038,-0.0027488914784044027
1772537840230337000,2.1273369140625,-0.00038179047987796366,-0.00038179047987796366,-0.0021380267571657896
1772537840248932600,2.1459326171875,-0.00007635809743078426,-0.00007635809743078426,-0.0030543238390237093
1772537840267528200,2.164528076171875,-0.00038179047987796366,0.0005345066892914474,-0.002443459117785096
1772537840286123800,2.183123779296875,-0.00038179047987796366,0.0005345066892914474,-0.0030543238390237093
1772537840304719400,2.20171923828125,-0.0006872228696011007,-0.00007635809743078426,-0.0027488914784044027
1772537840323314700,2.220314697265625,-0.0009926552884280682,0.000839939049910754,-0.002443459117785096
1772537840341910500,2.23891064453125,-0.00007635809743078426,0.0005345066892914474,-0.0027488914784044027
1772537840360505900,2.257505859375,-0.0019089524867013097,-0.00038179047987796366,-0.003665188793092966
1772537840379101400,2.276101318359375,-0.0009926552884280682,0.000839939049910754,-0.0030543238390237093
1772537840397697000,2.294697021484375,-0.0012980876490473747,0.00022907429956831038,-0.002443459117785096
1772537840416292600,2.313292724609375,-0.0012980876490473747,-0.00038179047987796366,-0.0021380267571657896
1772537840434888200,2.33188818359375,-0.0016035200096666813,0.0005345066892914474,-0.003665188793092966
1772537840453483800,2.35048388671875,-0.0006872228696011007,-0.00038179047987796366,-0.002443459117785096
1772537840472079400,2.369079345703125,-0.0016035200096666813,0.00022907429956831038,-0.0027488914784044027
1772537840490674700,2.3876748046875,-0.0009926552884280682,0.0005345066892914474,-0.0027488914784044027
1772537840509270500,2.4062705078125,-0.00038179047987796366,-0.00038179047987796366,-0.0021380267571657896
1772537840527865900,2.424865966796875,-0.0009926552884280682,-0.00007635809743078426,-0.0021380267571657896
1772537840546461400,2.44346142578125,-0.00007635809743078426,0.001450803829357028,-0.002443459117785096
1772537840565057000,2.46205712890625,-0.0009926552884280682,0.0005345066892914474,-0.0027488914784044027
1772537840583652600,2.480652587890625,-0.0016035200096666813,0.0011453714687377214,-0.003359756199643016
1772537840602248200,2.499248291015625,-0.0006872228696011007,0.0005345066892914474,-0.002443459117785096
1772537840620843800,2.51784375,-0.0016035200096666813,-0.00007635809743078426,-0.003359756199643016
1772537840639439400,2.536439453125,-0.00038179047987796366,0.0005345066892914474,-0.0030543238390237093
1772537840658034700,2.55503466796875,-0.0012980876490473747,0.000839939049910754,-0.0030543238390237093
1772537840676630300,2.57363037109375,-0.0009926552884280682,0.0005345066892914474,-0.0021380267571657896
1772537840695225900,2.592225830078125,-0.0006872228696011007,-0.00038179047987796366,-0.0027488914784044027
1772537840713821400,2.610821533203125,-0.00038179047987796366,0.00022907429956831038,-0.002443459117785096
1772537840732417000,2.6294169921875,-0.0016035200096666813,0.0005345066892914474,-0.0030543238390237093
1772537840751012600,2.6480126953125,-0.0016035200096666813,0.0005345066892914474,-0.0030543238390237093
1772537840769608200,2.666608154296875,-0.00038179047987796366,-0.00007635809743078426,-0.0021380267571657896
1772537840788203800,2.685203857421875,-0.0012980876490473747,0.00022907429956831038,-0.0027488914784044027
1772537840806799000,2.703799072265625,-0.00038179047987796366,-0.0006872228696011007,-0.002443459117785096
1772537840825394700,2.722394775390625,-0.00007635809743078426,0.0005345066892914474,-0.002443459117785096
1772537840843990300,2.740990234375,-0.0009926552884280682,-0.00007635809743078426,-0.0027488914784044027
1772537840862585900,2.7595859375,-0.00038179047987796366,0.0005345066892914474,-0.002443459117785096
1772537840881181400,2.778181396484375,-0.00038179047987796366,0.00022907429956831038,-0.0027488914784044027
1772537840899777000,2.796777099609375,-0.0012980876490473747,0.00022907429956831038,-0.003665188793092966
1772537840918372600,2.81537255859375,-0.0009926552884280682,0.0005345066892914474,-0.0027488914784044027
1772537840936968000,2.833968017578125,-0.00007635809743078426,-0.00007635809743078426,-0.0027488914784044027
1772537840955563800,2.852563720703125,-0.0006872228696011007,-0.00007635809743078426,-0.0021380267571657896
1772537840974159000,2.8711591796875,-0.0012980876490473747,-0.00007635809743078426,-0.0030543238390237093
1772537840992754700,2.889754638671875,-0.00007635809743078426,0.00022907429956831038,-0.003359756199643016
1772537841011350300,2.908350341796875,-0.00038179047987796366,0.00022907429956831038,-0.002443459117785096
1772537841029945900,2.92694580078125,-0.0006872228696011007,-0.00007635809743078426,-0.0021380267571657896
1772537841048541400,2.94554150390625,-0.0006872228696011007,0.0005345066892914474,-0.0027488914784044027
1772537841067137000,2.964136962890625,-0.0016035200096666813,0.000839939049910754,-0.0027488914784044027
1772537841085732600,2.982732666015625,-0.00007635809743078426,-0.00038179047987796366,-0.002443459117785096
1772537841104328000,3.001327880859375,-0.0019089524867013097,-0.00007635809743078426,-0.0030543238390237093
1772537841122923500,3.019923583984375,-0.00007635809743078426,0.001450803829357028,-0.0021380267571657896
1772537841141519000,3.03851904296875,-0.0012980876490473747,0.000839939049910754,-0.0030543238390237093
1772537841160114700,3.05711474609375,-0.0012980876490473747,0.000839939049910754,-0.002443459117785096
1772537841178710300,3.075710205078125,-0.0009926552884280682,-0.00007635809743078426,-0.0027488914784044027
1772537841197305900,3.094305908203125,-0.0006872228696011007,0.0005345066892914474,-0.0027488914784044027
1772537841215901400,3.1129013671875,-0.0009926552884280682,0.0005345066892914474,-0.001832594396546483
1772537841234497000,3.1314970703125,-0.0006872228696011007,0.00022907429956831038,-0.0027488914784044027
1772537841253092400,3.15009228515625,-0.0009926552884280682,-0.00038179047987796366,-0.0027488914784044027
1772537841271688000,3.16868798828125,-0.0006872228696011007,0.00022907429956831038,-0.002443459117785096
1772537841290283500,3.187283447265625,-0.0012980876490473747,0.00022907429956831038,-0.0030543238390237093
1772537841308879000,3.205879150390625,-0.0006872228696011007,0.0005345066892914474,-0.002443459117785096
1772537841327474700,3.224474609375,-0.0006872228696011007,0.00022907429956831038,-0.0021380267571657896
1772537841346070000,3.243070068359375,-0.00038179047987796366,0.00022907429956831038,-0.0030543238390237093
1772537841364665900,3.261665771484375,-0.00038179047987796366,0.00022907429956831038,-0.003359756199643016
1772537841383261200,3.28026123046875,-0.0009926552884280682,-0.00038179047987796366,-0.001832594396546483
1772537841401856800,3.298856689453125,-0.0009926552884280682,-0.00038179047987796366,-0.0021380267571657896
1772537841420452400,3.317452392578125,-0.0009926552884280682,-0.0006872228696011007,-0.0021380267571657896
1772537841439048000,3.3360478515625,-0.0006872228696011007,0.000839939049910754,-0.0027488914784044027
1772537841457643500,3.3546435546875,-0.0016035200096666813,0.0005345066892914474,-0.0021380267571657896
1772537841476239000,3.373239013671875,-0.00038179047987796366,0.00022907429956831038,-0.0021380267571657896
1772537841494834400,3.39183447265625,-0.0006872228696011007,-0.00038179047987796366,-0.0030543238390237093
1772537841513430000,3.410429931640625,-0.00038179047987796366,0.0005345066892914474,-0.0021380267571657896
1772537841532025600,3.429025634765625,-0.0006872228696011007,-0.00038179047987796366,-0.0021380267571657896
1772537841550621200,3.44762109375,-0.0012980876490473747,0.000839939049910754,-0.002443459117785096
1772537841569216800,3.466216796875,-0.00038179047987796366,0.0005345066892914474,-0.0027488914784044027
1772537841587812400,3.484812255859375,-0.0009926552884280682,0.000839939049910754,-0.002443459117785096
1772537841606408000,3.503407958984375,-0.0006872228696011007,0.000839939049910754,-0.0030543238390237093
1772537841625003300,3.522003173828125,-0.00038179047987796366,0.000839939049910754,-0.0030543238390237093
1772537841643598800,3.540598876953125,-0.00007635809743078426,-0.00038179047987796366,-0.0021380267571657896
1772537841662194400,3.5591943359375,-0.0009926552884280682,0.0011453714687377214,-0.002443459117785096
1772537841680790000,3.5777900390625,-0.00038179047987796366,0.0005345066892914474,-0.002443459117785096
1772537841699385600,3.596385498046875,-0.0006872228696011007,0.00022907429956831038,-0.002443459117785096
1772537841717981200,3.614981201171875,-0.00038179047987796366,0.00022907429956831038,-0.0027488914784044027
1772537841736576800,3.63357666015625,0.00022907429956831038,0.0005345066892914474,-0.002443459117785096
1772537841755172000,3.652172119140625,-0.0012980876490473747,-0.00007635809743078426,-0.0027488914784044027
1772537841773767700,3.670767578125,-0.0012980876490473747,0.00022907429956831038,-0.0027488914784044027
1772537841792363300,3.68936328125,-0.0012980876490473747,-0.00007635809743078426,-0.002443459117785096
1772537841810958800,3.707958740234375,-0.0012980876490473747,0.00022907429956831038,-0.0021380267571657896
1772537841829554400,3.726554443359375,-0.0009926552884280682,-0.00007635809743078426,-0.0021380267571657896
1772537841848150000,3.74514990234375,-0.0006872228696011007,-0.00038179047987796366,-0.0030543238390237093
1772537841866745300,3.763745361328125,-0.0006872228696011007,-0.00007635809743078426,-0.0030543238390237093
1772537841885341000,3.7823408203125,-0.0006872228696011007,0.000839939049910754,-0.0030543238390237093
1772537841903936500,3.8009365234375,-0.0009926552884280682,0.000839939049910754,-0.0027488914784044027
1772537841922532000,3.819531982421875,0.0005345066892914474,-0.00007635809743078426,-0.002443459117785096
1772537841941127700,3.838127685546875,-0.0009926552884280682,0.00022907429956831038,-0.0027488914784044027
1772537841959723300,3.85672314453125,-0.00038179047987796366,0.0005345066892914474,-0.002443459117785096
1772537841978318800,3.87531884765625,-0.0012980876490473747,0.00022907429956831038,-0.0027488914784044027
1772537841996914200,3.8939140625,-0.00038179047987796366,0.0005345066892914474,-0.0030543238390237093
1772537842015509800,3.912509765625,-0.0019089524867013097,0.0011453714687377214,-0.0027488914784044027
1772537842034105300,3.931105224609375,-0.00038179047987796366,0.0005345066892914474,-0.0027488914784044027
1772537842052701000,3.949700927734375,-0.0012980876490473747,-0.00007635809743078426,-0.0015271619195118546
1772537842071296500,3.968296630859375,-0.0019089524867013097,0.000839939049910754,-0.001832594396546483
1772537842089892000,3.98689208984375,-0.0006872228696011007,-0.0006872228696011007,-0.0030543238390237093
1772537842108487400,4.0054873046875,-0.0012980876490473747,-0.00007635809743078426,-0.0027488914784044027
1772537842127083000,4.0240830078125,-0.0006872228696011007,0.00022907429956831038,-0.0021380267571657896
1772537842145678600,4.0426787109375,-0.00038179047987796366,0.000839939049910754,-0.001832594396546483
1772537842164274200,4.061274169921875,-0.0006872228696011007,0.00022907429956831038,-0.0030543238390237093
1772537842182869800,4.079869873046875,-0.0016035200096666813,0.000839939049910754,-0.0030543238390237093
1772537842201465300,4.09846533203125,-0.0009926552884280682,0.000839939049910754,-0.003359756199643016
1772537842220060700,4.117060791015625,-0.00007635809743078426,-0.00007635809743078426,-0.0030543238390237093
1772537842238656300,4.13565625,-0.0006872228696011007,0.000839939049910754,-0.001832594396546483
1772537842257251800,4.154251953125,-0.0009926552884280682,-0.00007635809743078426,-0.0021380267571657896
1772537842275847400,4.172847412109375,-0.0012980876490473747,-0.00038179047987796366,-0.002443459117785096
1772537842294443000,4.191443115234375,-0.0012980876490473747,0.000839939049910754,-0.0030543238390237093
1772537842313038300,4.210038330078125,-0.00038179047987796366,-0.00007635809743078426,-0.0030543238390237093
1772537842331634200,4.22863427734375,-0.0012980876490473747,0.00022907429956831038,-0.0030543238390237093
1772537842350229500,4.2472294921875,-0.00038179047987796366,-0.00038179047987796366,-0.0030543238390237093
1772537842368825000,4.2658251953125,-0.0009926552884280682,0.0005345066892914474,-0.002443459117785096
1772537842387420700,4.284420654296875,-0.0012980876490473747,0.00022907429956831038,-0.0021380267571657896
1772537842406016300,4.303016357421875,-0.0006872228696011007,-0.00007635809743078426,-0.0027488914784044027
1772537842424611800,4.32161181640625,0.00022907429956831038,-0.0006872228696011007,-0.001832594396546483
1772537842443207400,4.34020751953125,-0.0009926552884280682,-0.00007635809743078426,-0.0027488914784044027
1772537842461802800,4.358802734375,-0.0006872228696011007,0.000839939049910754,-0.0030543238390237093
1772537842480398300,4.3773984375,-0.0006872228696011007,0.0005345066892914474,-0.002443459117785096
1772537842498994000,4.395993896484375,-0.00007635809743078426,-0.00007635809743078426,-0.003359756199643016
1772537842517589500,4.414589599609375,-0.0009926552884280682,-0.00007635809743078426,-0.001832594396546483
1772537842536185000,4.43318505859375,-0.0009926552884280682,-0.00038179047987796366,-0.0021380267571657896
1772537842554780700,4.45178076171875,-0.0006872228696011007,-0.00007635809743078426,-0.002443459117785096
1772537842573376000,4.4703759765625,-0.00007635809743078426,-0.00007635809743078426,-0.0030543238390237093
1772537842591971600,4.4889716796875,-0.0006872228696011007,0.0005345066892914474,-0.0030543238390237093
1772537842610567200,4.507567138671875,-0.0009926552884280682,-0.00007635809743078426,-0.003359756199643016
1772537842629162800,4.526162841796875,-0.0006872228696011007,-0.00007635809743078426,-0.003359756199643016
1772537842647758300,4.54475830078125,-0.0006872228696011007,0.000839939049910754,-0.0030543238390237093
1772537842666353700,4.563353759765625,-0.0019089524867013097,0.0005345066892914474,-0.002443459117785096
1772537842684949200,4.58194921875,-0.00038179047987796366,0.00022907429956831038,-0.001832594396546483
1772537842703544800,4.600544921875,-0.0012980876490473747,0.0005345066892914474,-0.002443459117785096
1772537842722140400,4.619140380859375,-0.0009926552884280682,0.0005345066892914474,-0.0030543238390237093
1772537842740736000,4.637736083984375,-0.0006872228696011007,0.00022907429956831038,-0.0021380267571657896
1772537842759331600,4.65633154296875,-0.00007635809743078426,-0.00007635809743078426,-0.003359756199643016
1772537842777927000,4.674927001953125,-0.0006872228696011007,0.00022907429956831038,-0.0030543238390237093
1772537842796522800,4.693522705078125,-0.0012980876490473747,0.0005345066892914474,-0.003359756199643016
1772537842815118000,4.7121181640625,-0.0012980876490473747,0.0005345066892914474,-0.0027488914784044027
1772537842833713700,4.730713623046875,-0.00038179047987796366,0.0005345066892914474,-0.002443459117785096
1772537842852309200,4.749309326171875,-0.0006872228696011007,-0.00007635809743078426,-0.003359756199643016
1772537842870904800,4.76790478515625,-0.0006872228696011007,0.000839939049910754,-0.0030543238390237093
1772537842889500200,4.786500244140625,-0.0016035200096666813,0.0005345066892914474,-0.002443459117785096
1772537842908095700,4.805095703125,-0.0019089524867013097,-0.00038179047987796366,-0.002443459117785096
1772537842926691300,4.82369140625,0.0005345066892914474,0.000839939049910754,-0.0015271619195118546
1772537842945287000,4.842286865234375,0.00022907429956831038,-0.00007635809743078426,-0.0021380267571657896
1772537842963882500,4.860882568359375,-0.0009926552884280682,0.000839939049910754,-0.003665188793092966
1772537842982477800,4.879477783203125,-0.0009926552884280682,0.00022907429956831038,-0.0030543238390237093
1772537843001073400,4.898073486328125,-0.0009926552884280682,0.000839939049910754,-0.003665188793092966
1772537843019669000,4.9166689453125,-0.00038179047987796366,-0.00038179047987796366,-0.002443459117785096
1772537843038264600,4.9352646484375,-0.0006872228696011007,0.00022907429956831038,-0.0027488914784044027
1772537843056860200,4.953860107421875,-0.0006872228696011007,0.0005345066892914474,-0.001832594396546483
1772537843075455700,4.972455810546875,-0.0009926552884280682,0.00022907429956831038,-0.002443459117785096
1772537843094051000,4.991051025390625,-0.0012980876490473747,0.0005345066892914474,-0.002443459117785096
1772537843112646700,5.009646728515625,-0.0012980876490473747,-0.00038179047987796366,-0.0027488914784044027
1772537843131242200,5.0282421875,-0.00038179047987796366,0.0005345066892914474,-0.0027488914784044027
1772537843149837800,5.046837890625,-0.0006872228696011007,0.00022907429956831038,-0.0021380267571657896
1772537843168433400,5.065433349609375,-0.0006872228696011007,-0.0006872228696011007,-0.0015271619195118546
1772537843187029000,5.084029052734375,-0.0009926552884280682,0.000839939049910754,-0.002443459117785096
1772537843205624300,5.102624267578125,-0.0009926552884280682,0.0005345066892914474,-0.002443459117785096
1772537843224220000,5.121219970703125,-0.0012980876490473747,0.0005345066892914474,-0.002443459117785096
1772537843242815500,5.1398154296875,-0.0012980876490473747,0.00022907429956831038,-0.0030543238390237093
1772537843261411000,5.1584111328125,-0.0012980876490473747,-0.00038179047987796366,-0.0021380267571657896
1772537843280006700,5.177006591796875,-0.0006872228696011007,0.0005345066892914474,-0.0030543238390237093
1772537843298602000,5.19560205078125,-0.0009926552884280682,0.000839939049910754,-0.003359756199643016
1772537843317197600,5.214197509765625,-0.0009926552884280682,0.0005345066892914474,-0.003359756199643016
1772537843335793200,5.232793212890625,-0.0009926552884280682,-0.00007635809743078426,-0.0030543238390237093
1772537843354388700,5.251388671875,-0.0006872228696011007,0.000839939049910754,-0.0030543238390237093
1772537843372984000,5.269984130859375,-0.00038179047987796366,0.000839939049910754,-0.0027488914784044027
1772537843391580000,5.288579833984375,-0.0012980876490473747,0.0005345066892914474,-0.0021380267571657896
1772537843410175200,5.30717529296875,-0.0009926552884280682,0.0005345066892914474,-0.002443459117785096
1772537843428770800,5.325770751953125,-0.00038179047987796366,-0.00007635809743078426,-0.0027488914784044027
1772537843447366400,5.344366455078125,-0.0006872228696011007,0.0005345066892914474,-0.002443459117785096
1772537843465962000,5.3629619140625,-0.0009926552884280682,0.00022907429956831038,-0.0021380267571657896
1772537843484557300,5.381557373046875,-0.0016035200096666813,-0.00007635809743078426,-0.0027488914784044027
1772537843503153000,5.40015283203125,-0.0019089524867013097,0.000839939049910754,-0.002443459117785096
1772537843521748500,5.41874853515625,-0.0009926552884280682,0.00022907429956831038,-0.001832594396546483
1772537843540344000,5.437343994140625,-0.0009926552884280682,-0.00007635809743078426,-0.002443459117785096
1772537843558939600,5.455939697265625,-0.0009926552884280682,0.00022907429956831038,-0.0030543238390237093
1772537843577535200,5.47453515625,-0.0012980876490473747,0.0005345066892914474,-0.0030543238390237093
1772537843596130600,5.493130615234375,-0.0009926552884280682,0.0005345066892914474,-0.0021380267571657896
1772537843614726100,5.51172607421875,-0.0006872228696011007,-0.00038179047987796366,-0.0021380267571657896
1772537843633321700,5.53032177734375,-0.0016035200096666813,0.000839939049910754,-0.003359756199643016
1772537843651917300,5.548917236328125,-0.0016035200096666813,0.00022907429956831038,-0.0027488914784044027
1772537843670512600,5.5675126953125,-0.00007635809743078426,-0.00038179047987796366,-0.0021380267571657896
1772537843689108200,5.586108154296875,0.00022907429956831038,0.0005345066892914474,-0.002443459117785096
1772537843707703800,5.604703857421875,-0.0022143847309052944,0.0011453714687377214,-0.0030543238390237093
1772537843726299400,5.62329931640625,-0.0012980876490473747,-0.00007635809743078426,-0.0027488914784044027
1772537843744895000,5.64189501953125,-0.0012980876490473747,-0.00007635809743078426,-0.002443459117785096
1772537843763490600,5.660490478515625,-0.0012980876490473747,0.0005345066892914474,-0.002443459117785096
1772537843782086000,5.6790859375,-0.00038179047987796366,0.0005345066892914474,-0.0027488914784044027
1772537843800681500,5.697681396484375,-0.00038179047987796366,0.000839939049910754,-0.0030543238390237093
1772537843819277000,5.716277099609375,-0.00007635809743078426,0.0005345066892914474,-0.002443459117785096
1772537843837872600,5.73487255859375,-0.00038179047987796366,0.00022907429956831038,-0.0015271619195118546
1772537843856468000,5.753468017578125,-0.0012980876490473747,0.0005345066892914474,-0.001832594396546483
1772537843875063600,5.7720634765625,-0.0006872228696011007,-0.00007635809743078426,-0.002443459117785096
1772537843893659100,5.7906591796875,-0.0006872228696011007,-0.00007635809743078426,-0.002443459117785096
1772537843912254700,5.809254638671875,-0.0012980876490473747,0.0005345066892914474,-0.0021380267571657896
1772537843930850300,5.827850341796875,-0.00038179047987796366,0.0005345066892914474,-0.003359756199643016
1772537843949445600,5.846445556640625,-0.0006872228696011007,0.0005345066892914474,-0.0030543238390237093
1772537843968041200,5.865041259765625,-0.0009926552884280682,-0.00038179047987796366,-0.003359756199643016
1772537843986636800,5.88363671875,-0.0006872228696011007,0.00022907429956831038,-0.0027488914784044027
1772537844005232400,5.902232421875,0.00022907429956831038,-0.00007635809743078426,-0.003359756199643016
1772537844023827700,5.92082763671875,-0.00038179047987796366,0.000839939049910754,-0.0030543238390237093
1772537844042423300,5.93942333984375,-0.0009926552884280682,0.00022907429956831038,-0.003665188793092966
1772537844061019000,5.958018798828125,-0.0012980876490473747,0.00022907429956831038,-0.0030543238390237093
1772537844079614500,5.976614501953125,-0.0009926552884280682,-0.0006872228696011007,-0.0027488914784044027
1772537844098209800,5.995209716796875,-0.0009926552884280682,0.000839939049910754,-0.003359756199643016
1772537844116805400,6.013805419921875,-0.0012980876490473747,-0.00038179047987796366,-0.003665188793092966
1772537844135401000,6.03240087890625,-0.0012980876490473747,0.0005345066892914474,-0.0030543238390237093
1772537844153996500,6.05099658203125,-0.00038179047987796366,0.0005345066892914474,-0.0021380267571657896
1772537844172592000,6.069592041015625,-0.00007635809743078426,0.00022907429956831038,-0.0021380267571657896
1772537844191187700,6.088187744140625,-0.0009926552884280682,-0.00007635809743078426,-0.002443459117785096
1772537844209783000,6.106782958984375,-0.0009926552884280682,0.00022907429956831038,-0.0027488914784044027
1772537844228378600,6.125378662109375,-0.0009926552884280682,0.000839939049910754,-0.001832594396546483
1772537844246974200,6.14397412109375,-0.0006872228696011007,0.00022907429956831038,-0.0027488914784044027
1772537844265569800,6.16256982421875,-0.0012980876490473747,-0.00038179047987796366,-0.002443459117785096
1772537844284165000,6.1811650390625,-0.00007635809743078426,0.0005345066892914474,-0.0021380267571657896
1772537844302760700,6.1997607421875,-0.00038179047987796366,0.001450803829357028,-0.0030543238390237093
1772537844321356300,6.218356201171875,-0.0009926552884280682,0.0005345066892914474,-0.002443459117785096
1772537844339951900,6.236951904296875,-0.0009926552884280682,0.0005345066892914474,-0.003359756199643016
1772537844358547200,6.255547119140625,-0.0012980876490473747,0.000839939049910754,-0.0030543238390237093
1772537844377142800,6.274142822265625,-0.0009926552884280682,0.000839939049910754,-0.0030543238390237093
1772537844395738400,6.29273828125,-0.0012980876490473747,-0.0006872228696011007,-0.0027488914784044027
1772537844414334000,6.311333984375,-0.0009926552884280682,0.0005345066892914474,-0.002443459117785096
1772537844432929300,6.32992919921875,-0.0012980876490473747,0.000839939049910754,-0.0030543238390237093
1772537844451524900,6.34852490234375,-0.0009926552884280682,-0.00007635809743078426,-0.0021380267571657896
1772537844470120400,6.367120361328125,-0.0006872228696011007,0.00022907429956831038,-0.002443459117785096
1772537844488716000,6.385716064453125,-0.0006872228696011007,-0.00007635809743078426,-0.002443459117785096
1772537844507311400,6.404311279296875,-0.0006872228696011007,0.0005345066892914474,-0.0021380267571657896
1772537844525907000,6.422906982421875,-0.0016035200096666813,-0.00007635809743078426,-0.002443459117785096
1772537844544502500,6.44150244140625,-0.0009926552884280682,0.0005345066892914474,-0.002443459117785096
1772537844563098000,6.46009814453125,-0.0009926552884280682,-0.00038179047987796366,-0.002443459117785096
1772537844581693400,6.478693359375,-0.00038179047987796366,0.0011453714687377214,-0.002443459117785096
1772537844600289000,6.4972890625,-0.0006872228696011007,-0.00007635809743078426,-0.002443459117785096
1772537844618884600,6.515884521484375,-0.0006872228696011007,0.000839939049910754,-0.0021380267571657896
1772537844637480200,6.534480224609375,-0.0016035200096666813,-0.00007635809743078426,-0.002443459117785096
1772537844656075800,6.55307568359375,-0.0009926552884280682,0.001450803829357028,-0.002443459117785096
1772537844674671000,6.571671142578125,-0.0012980876490473747,0.00022907429956831038,-0.003359756199643016
1772537844693266700,6.5902666015625,-0.0006872228696011007,0.000839939049910754,-0.003359756199643016
1772537844711862300,6.6088623046875,-0.0009926552884280682,0.00022907429956831038,-0.0021380267571657896
1772537844730457900,6.627457763671875,-0.0016035200096666813,0.00022907429956831038,-0.0027488914784044027
1772537844749053200,6.64605322265625,-0.0012980876490473747,0.0005345066892914474,-0.0021380267571657896
1772537844767648800,6.664648681640625,-0.0009926552884280682,-0.00007635809743078426,-0.0030543238390237093
1772537844786244400,6.683244384765625,-0.0012980876490473747,0.00022907429956831038,-0.002443459117785096
1772537844804840000,6.70183984375,-0.0009926552884280682,0.0005345066892914474,-0.0030543238390237093
1772537844823435300,6.720435302734375,-0.00038179047987796366,0.0011453714687377214,-0.0027488914784044027
1772537844842030800,6.73903076171875,-0.0009926552884280682,-0.00038179047987796366,-0.0027488914784044027
1772537844860626400,6.75762646484375,-0.0006872228696011007,-0.00007635809743078426,-0.003359756199643016
1772537844879222000,6.776221923828125,-0.0009926552884280682,-0.00038179047987796366,-0.002443459117785096
1772537844897817300,6.7948173828125,-0.0016035200096666813,0.0005345066892914474,-0.0027488914784044027
1772537844916413000,6.813412841796875,-0.0009926552884280682,0.000839939049910754,-0.0027488914784044027
1772537844935008500,6.832008544921875,-0.0006872228696011007,0.00022907429956831038,-0.002443459117785096
1772537844953604000,6.85060400390625,-0.0009926552884280682,0.00022907429956831038,-0.0027488914784044027
1772537844972199400,6.869199462890625,-0.00038179047987796366,0.0005345066892914474,-0.003665188793092966
1772537844990795000,6.887794921875,-0.0012980876490473747,0.000839939049910754,-0.001832594396546483
1772537845009390600,6.906390625,-0.0006872228696011007,-0.00007635809743078426,-0.002443459117785096
1772537845027986200,6.924986083984375,-0.0012980876490473747,-0.00007635809743078426,-0.0027488914784044027
1772537845046581500,6.94358154296875,-0.0006872228696011007,0.000839939049910754,-0.002443459117785096
1772537845065177000,6.962177001953125,-0.0012980876490473747,0.000839939049910754,-0.001832594396546483
1772537845083772700,6.980772705078125,-0.0012980876490473747,-0.00007635809743078426,-0.0030543238390237093
1772537845102368300,6.9993681640625,-0.00038179047987796366,0.00022907429956831038,-0.002443459117785096
1772537845120963600,7.017963623046875,-0.00007635809743078426,-0.00007635809743078426,-0.0027488914784044027
1772537845139559200,7.03655908203125,-0.0012980876490473747,0.00022907429956831038,-0.0027488914784044027
1772537845158154500,7.055154541015625,-0.0009926552884280682,0.00022907429956831038,-0.003359756199643016
1772537845176750000,7.07375,-0.0009926552884280682,-0.00007635809743078426,-0.003359756199643016
1772537845195345700,7.092345703125,-0.0009926552884280682,0.000839939049910754,-0.0021380267571657896
1772537845213941200,7.110941162109375,-0.0009926552884280682,0.00022907429956831038,-0.0021380267571657896
1772537845232536600,7.12953662109375,-0.0009926552884280682,0.000839939049910754,-0.002443459117785096
1772537845251132200,7.148132080078125,-0.00038179047987796366,0.0005345066892914474,-0.002443459117785096
1772537845269727700,7.166727783203125,-0.0006872228696011007,-0.00007635809743078426,-0.0021380267571657896
1772537845288323300,7.1853232421875,-0.0012980876490473747,-0.0006872228696011007,-0.0027488914784044027
1772537845306918700,7.203918701171875,-0.0012980876490473747,0.000839939049910754,-0.0027488914784044027
1772537845325514200,7.22251416015625,-0.0016035200096666813,0.0005345066892914474,-0.0027488914784044027
1772537845344109800,7.24110986328125,-0.0012980876490473747,0.000839939049910754,-0.003359756199643016
1772537845362705400,7.259705322265625,-0.0009926552884280682,0.0005345066892914474,-0.002443459117785096
1772537845381300700,7.27830078125,-0.0009926552884280682,-0.00007635809743078426,-0.001832594396546483
1772537845399896300,7.296896240234375,-0.0012980876490473747,0.0011453714687377214,-0.0027488914784044027
1772537845418492000,7.315491943359375,-0.0012980876490473747,0.000839939049910754,-0.0030543238390237093
1772537845437087200,7.334087158203125,-0.0006872228696011007,0.0011453714687377214,-0.0030543238390237093
1772537845455682800,7.352682861328125,-0.0012980876490473747,0.000839939049910754,-0.0021380267571657896
1772537845474278400,7.3712783203125,-0.0009926552884280682,0.00022907429956831038,-0.0030543238390237093
1772537845492874000,7.3898740234375,-0.0009926552884280682,0.00022907429956831038,-0.0030543238390237093
1772537845511469300,7.40846923828125,-0.00038179047987796366,0.000839939049910754,-0.0021380267571657896
1772537845530065000,7.42706494140625,-0.0006872228696011007,0.000839939049910754,-0.002443459117785096
1772537845548660200,7.44566015625,-0.0016035200096666813,0.00022907429956831038,-0.0021380267571657896
1772537845567255800,7.464255859375,-0.0012980876490473747,-0.00038179047987796366,-0.0027488914784044027
1772537845585851400,7.482851318359375,-0.0006872228696011007,0.0005345066892914474,-0.002443459117785096
1772537845604447000,7.501447021484375,-0.00038179047987796366,0.0011453714687377214,-0.002443459117785096
1772537845623042300,7.520042236328125,-0.0006872228696011007,0.0005345066892914474,-0.0030543238390237093
1772537845641638000,7.538637939453125,-0.0009926552884280682,0.00022907429956831038,-0.0027488914784044027
1772537845660233500,7.5572333984375,-0.00038179047987796366,-0.00038179047987796366,-0.004276053514331579
1772537845678828800,7.575828857421875,-0.0009926552884280682,0.00022907429956831038,-0.003665188793092966
1772537845697424400,7.59442431640625,-0.00007635809743078426,-0.00038179047987796366,-0.003359756199643016
1772537845716020000,7.61302001953125,-0.0006872228696011007,0.000839939049910754,-0.003359756199643016
1772537845734615600,7.631615478515625,-0.0012980876490473747,0.0005345066892914474,-0.0027488914784044027
1772537845753211000,7.6502109375,-0.0016035200096666813,0.0005345066892914474,-0.0027488914784044027
1772537845771806500,7.668806396484375,-0.0012980876490473747,0.0005345066892914474,-0.0030543238390237093
1772537845790401800,7.68740185546875,-0.0009926552884280682,-0.00007635809743078426,-0.0030543238390237093
1772537845808997400,7.705997314453125,-0.0006872228696011007,0.0005345066892914474,-0.003359756199643016
1772537845827593000,7.724593017578125,-0.0006872228696011007,0.00022907429956831038,-0.0021380267571657896
1772537845846188500,7.7431884765625,-0.0009926552884280682,0.00022907429956831038,-0.0021380267571657896
1772537845864784000,7.761783935546875,-0.0012980876490473747,-0.00007635809743078426,-0.0030543238390237093
1772537845883379500,7.78037939453125,-0.0006872228696011007,0.00022907429956831038,-0.0027488914784044027
1772537845901975000,7.79897509765625,-0.0009926552884280682,0.00022907429956831038,-0.0021380267571657896
1772537845920570400,7.8175703125,-0.00038179047987796366,-0.00038179047987796366,-0.0027488914784044027
1772537845939166000,7.836166015625,-0.0006872228696011007,0.00022907429956831038,-0.002443459117785096
1772537845957761500,7.854761474609375,-0.0012980876490473747,0.0005345066892914474,-0.0027488914784044027
1772537845976357000,7.873357177734375,-0.0006872228696011007,0.000839939049910754,-0.0021380267571657896
1772537845994952400,7.891952392578125,-0.00038179047987796366,0.0005345066892914474,-0.0027488914784044027
1772537846013548000,7.910548095703125,0.00022907429956831038,-0.00007635809743078426,-0.0015271619195118546
1772537846032143400,7.929143310546875,-0.0009926552884280682,0.0011453714687377214,-0.003359756199643016
1772537846050739000,7.947739013671875,-0.0016035200096666813,0.0005345066892914474,-0.0030543238390237093
1772537846069334500,7.96633447265625,-0.0012980876490473747,0.00022907429956831038,-0.0027488914784044027
1772537846087929900,7.984929931640625,0.0005345066892914474,0.0005345066892914474,-0.002443459117785096
1772537846106525400,8.003525390625,-0.0006872228696011007,0.0005345066892914474,-0.0030543238390237093
1772537846125121000,8.02212109375,-0.00038179047987796366,0.000839939049910754,-0.0027488914784044027
1772537846143716600,8.040716552734375,-0.0012980876490473747,-0.00038179047987796366,-0.002443459117785096
1772537846162312000,8.05931201171875,-0.00007635809743078426,-0.00007635809743078426,-0.001832594396546483
1772537846180907500,8.077907470703124,-0.0019089524867013097,-0.00007635809743078426,-0.003359756199643016
1772537846199502800,8.0965029296875,-0.0009926552884280682,0.00022907429956831038,-0.0027488914784044027
1772537846218098400,8.115098388671875,-0.0009926552884280682,0.0005345066892914474,-0.0021380267571657896
1772537846236694000,8.133694091796874,-0.0009926552884280682,0.0005345066892914474,-0.002443459117785096
1772537846255289300,8.152289306640625,-0.0006872228696011007,-0.00007635809743078426,-0.0030543238390237093
1772537846273885000,8.170885009765625,-0.0012980876490473747,0.00022907429956831038,-0.001832594396546483
1772537846292480500,8.18948046875,-0.0006872228696011007,-0.00038179047987796366,-0.0021380267571657896
1772537846311075800,8.208075927734376,-0.0012980876490473747,0.000839939049910754,-0.0015271619195118546
1772537846329671400,8.22667138671875,-0.0016035200096666813,0.0005345066892914474,-0.003359756199643016
1772537846348267000,8.24526708984375,-0.0012980876490473747,-0.00007635809743078426,-0.002443459117785096
1772537846366862300,8.2638623046875,-0.00038179047987796366,-0.00007635809743078426,-0.0021380267571657896
1772537846385458000,8.2824580078125,-0.0006872228696011007,0.0005345066892914474,-0.002443459117785096
1772537846404053200,8.30105322265625,-0.00007635809743078426,0.0005345066892914474,-0.0027488914784044027
1772537846422648800,8.31964892578125,-0.0009926552884280682,0.0005345066892914474,-0.003359756199643016
1772537846441244400,8.338244384765625,-0.0016035200096666813,0.0005345066892914474,-0.001832594396546483
1772537846459840000,8.356840087890625,-0.0006872228696011007,-0.00038179047987796366,-0.0027488914784044027
1772537846478435300,8.375435302734376,-0.0009926552884280682,-0.00038179047987796366,-0.0030543238390237093
1772537846497031000,8.394031005859375,-0.0006872228696011007,0.00022907429956831038,-0.002443459117785096
1772537846515626500,8.41262646484375,-0.00007635809743078426,0.00022907429956831038,-0.0030543238390237093
1772537846534221800,8.431221923828126,-0.0012980876490473747,0.0005345066892914474,-0.0027488914784044027
1772537846552817400,8.4498173828125,-0.0016035200096666813,0.00022907429956831038,-0.0021380267571657896
1772537846571412700,8.468412841796875,-0.0006872228696011007,0.000839939049910754,-0.002443459117785096
1772537846590008300,8.48700830078125,-0.00038179047987796366,0.0011453714687377214,-0.0027488914784044027
1772537846608603600,8.505603759765625,-0.0009926552884280682,0.000839939049910754,-0.002443459117785096
1772537846627199200,8.52419921875,-0.0009926552884280682,0.00022907429956831038,-0.0027488914784044027
1772537846645794800,8.542794921875,-0.0012980876490473747,0.00022907429956831038,-0.0030543238390237093
1772537846664390400,8.561390380859375,-0.0006872228696011007,-0.00007635809743078426,-0.0021380267571657896
1772537846682985700,8.57998583984375,-0.0009926552884280682,0.000839939049910754,-0.0009162971982732415
1772537846701581300,8.598581298828124,-0.0009926552884280682,0.0005345066892914474,-0.0027488914784044027
1772537846720177000,8.617177001953126,-0.0012980876490473747,-0.00007635809743078426,-0.0027488914784044027
1772537846738772200,8.635772216796875,-0.0012980876490473747,0.0011453714687377214,-0.003359756199643016
1772537846757367800,8.654367919921874,-0.0016035200096666813,0.00022907429956831038,-0.0027488914784044027
1772537846775963100,8.672963134765626,-0.00007635809743078426,-0.00007635809743078426,-0.002443459117785096
1772537846794558700,8.691558837890625,-0.0016035200096666813,0.0005345066892914474,-0.001832594396546483
1772537846813154300,8.710154296875,-0.0006872228696011007,0.0005345066892914474,-0.001832594396546483
1772537846831749600,8.72874951171875,-0.0006872228696011007,0.0005345066892914474,-0.002443459117785096
1772537846850345200,8.74734521484375,-0.0012980876490473747,0.0005345066892914474,-0.0027488914784044027
1772537846868940500,8.7659404296875,-0.0009926552884280682,0.0005345066892914474,-0.002443459117785096
1772537846887536000,8.7845361328125,-0.0006872228696011007,-0.00007635809743078426,-0.0030543238390237093
1772537846906131700,8.803131591796875,-0.0012980876490473747,0.0005345066892914474,-0.0027488914784044027
1772537846924727000,8.82172705078125,-0.0019089524867013097,0.000839939049910754,-0.001832594396546483
1772537846943322600,8.840322509765626,-0.0009926552884280682,0.00022907429956831038,-0.002443459117785096
1772537846961918000,8.85891796875,-0.0012980876490473747,0.0011453714687377214,-0.002443459117785096
1772537846980513500,8.877513427734375,-0.0006872228696011007,0.0005345066892914474,-0.0015271619195118546
1772537846999109000,8.896109130859376,-0.0009926552884280682,0.00022907429956831038,-0.002443459117785096
1772537847017704400,8.914704345703125,-0.0016035200096666813,0.0005345066892914474,-0.0027488914784044027
1772537847036300000,8.933300048828125,-0.0012980876490473747,-0.00007635809743078426,-0.0030543238390237093
1772537847054895400,8.951895263671876,-0.00038179047987796366,-0.00038179047987796366,-0.003359756199643016
1772537847073491000,8.970490966796875,-0.0016035200096666813,-0.00007635809743078426,-0.0027488914784044027
1772537847092086500,8.98908642578125,-0.0012980876490473747,0.0005345066892914474,-0.0027488914784044027
1772537847110681900,9.007681884765624,-0.0016035200096666813,0.0005345066892914474,-0.0030543238390237093
1772537847129277400,9.02627734375,-0.0012980876490473747,-0.00007635809743078426,-0.003359756199643016
1772537847147873000,9.044873046875,-0.0009926552884280682,0.00022907429956831038,-0.0030543238390237093
1772537847166468400,9.06346826171875,-0.0009926552884280682,0.00022907429956831038,-0.0027488914784044027
1772537847185064000,9.08206396484375,-0.0006872228696011007,-0.00007635809743078426,-0.0027488914784044027
1772537847203659500,9.100659423828125,-0.00038179047987796366,-0.00007635809743078426,-0.002443459117785096
1772537847222254800,9.1192548828125,-0.0016035200096666813,0.00022907429956831038,-0.002443459117785096
1772537847240850400,9.137850341796875,-0.0012980876490473747,0.00022907429956831038,-0.0027488914784044027
1772537847259445800,9.15644580078125,-0.0009926552884280682,0.00022907429956831038,-0.0030543238390237093
1772537847278041300,9.175041259765624,-0.00038179047987796366,0.0005345066892914474,-0.003359756199643016
1772537847296636700,9.19363671875,-0.0006872228696011007,-0.00007635809743078426,-0.0030543238390237093
1772537847315232300,9.212232177734375,-0.0012980876490473747,0.00022907429956831038,-0.003359756199643016
1772537847333827800,9.230827880859374,-0.0006872228696011007,0.00022907429956831038,-0.003359756199643016
1772537847352423200,9.249423095703126,-0.0016035200096666813,0.000839939049910754,-0.0027488914784044027
1772537847371018800,9.268018798828125,-0.0009926552884280682,0.00022907429956831038,-0.001832594396546483
1772537847389614000,9.286614013671874,-0.0009926552884280682,-0.00007635809743078426,-0.0030543238390237093
1772537847408209700,9.305209716796876,-0.0006872228696011007,0.0005345066892914474,-0.0027488914784044027
1772537847426805200,9.32380517578125,-0.0012980876490473747,-0.00007635809743078426,-0.002443459117785096
1772537847445400600,9.342400634765625,-0.0009926552884280682,0.0005345066892914474,-0.0027488914784044027
1772537847463996200,9.36099609375,-0.0016035200096666813,0.00022907429956831038,-0.0027488914784044027
1772537847482591500,9.379591552734375,-0.0009926552884280682,-0.00038179047987796366,-0.0030543238390237093
1772537847501187000,9.39818701171875,-0.0006872228696011007,0.00022907429956831038,-0.003359756199643016
1772537847519782400,9.416782470703126,-0.0016035200096666813,-0.00007635809743078426,-0.0021380267571657896
1772537847538378000,9.4353779296875,-0.0016035200096666813,-0.00007635809743078426,-0.0027488914784044027
1772537847556973300,9.453973388671875,-0.0006872228696011007,0.0005345066892914474,-0.003665188793092966
1772537847575569000,9.47256884765625,-0.00007635809743078426,0.00022907429956831038,-0.0021380267571657896
1772537847594164500,9.49116455078125,-0.0012980876490473747,-0.00007635809743078426,-0.003970621153712273
1772537847612759800,9.509759765625,-0.0012980876490473747,0.0005345066892914474,-0.002443459117785096
1772537847631355400,9.52835546875,-0.0006872228696011007,0.000839939049910754,-0.0030543238390237093
1772537847649950700,9.54695068359375,-0.0012980876490473747,0.000839939049910754,-0.0030543238390237093
1772537847668546300,9.56554638671875,-0.0009926552884280682,0.00022907429956831038,-0.0030543238390237093
1772537847687141600,9.5841416015625,-0.0009926552884280682,0.00022907429956831038,-0.002443459117785096
1772537847705737200,9.6027373046875,-0.0006872228696011007,-0.00038179047987796366,-0.002443459117785096
1772537847724332500,9.62133251953125,-0.0006872228696011007,0.0005345066892914474,-0.0030543238390237093
1772537847742928100,9.63992822265625,-0.0012980876490473747,0.00022907429956831038,-0.003359756199643016
1772537847761523500,9.6585234375,-0.0012980876490473747,-0.00007635809743078426,-0.0027488914784044027
1772537847780119000,9.677119140625,-0.0016035200096666813,-0.00007635809743078426,-0.003359756199643016
1772537847798714600,9.695714599609374,-0.0016035200096666813,-0.00007635809743078426,-0.002443459117785096
1772537847817310000,9.71431005859375,-0.00007635809743078426,-0.00007635809743078426,-0.0021380267571657896
1772537847835905500,9.732905517578125,-0.0009926552884280682,0.00022907429956831038,-0.0030543238390237093
1772537847854500900,9.7515009765625,-0.0006872228696011007,0.00022907429956831038,-0.002443459117785096
1772537847873096400,9.770096435546876,-0.0009926552884280682,0.0005345066892914474,-0.0030543238390237093
1772537847891691800,9.78869189453125,-0.0006872228696011007,-0.00007635809743078426,-0.0030543238390237093
1772537847910287400,9.807287353515624,-0.0012980876490473747,0.0005345066892914474,-0.0027488914784044027
1772537847928883000,9.825883056640626,-0.0006872228696011007,0.00022907429956831038,-0.0030543238390237093
1772537847947478300,9.844478271484375,-0.0009926552884280682,0.000839939049910754,-0.003665188793092966
1772537847966073900,9.863073974609375,-0.0012980876490473747,0.000839939049910754,-0.0027488914784044027
1772537847984669200,9.881669189453126,-0.0012980876490473747,0.0005345066892914474,-0.0027488914784044027
1772537848003264800,9.9002646484375,-0.0009926552884280682,0.000839939049910754,-0.003359756199643016
1772537848021860000,9.918860107421875,-0.0006872228696011007,-0.00038179047987796366,-0.0030543238390237093
1772537848040455400,9.937455322265626,-0.0009926552884280682,0.000839939049910754,-0.0027488914784044027
1772537848059051000,9.956051025390625,-0.0022143847309052944,0.0005345066892914474,-0.003359756199643016
1772537848077646600,9.974646484375,-0.0006872228696011007,0.00022907429956831038,-0.0030543238390237093
1772537848096242000,9.993241943359376,-0.0009926552884280682,0.00022907429956831038,-0.003970621153712273
1772537848114837500,10.01183740234375,-0.0016035200096666813,0.0005345066892914474,-0.003359756199643016
1772537848133432800,10.030432861328125,-0.0006872228696011007,0.00022907429956831038,-0.0027488914784044027
1772537848152028400,10.0490283203125,-0.0009926552884280682,0.000839939049910754,-0.0030543238390237093
1772537848170624000,10.0676240234375,-0.0016035200096666813,-0.00038179047987796366,-0.003665188793092966
1772537848189219300,10.08621923828125,-0.0006872228696011007,0.0005345066892914474,-0.0030543238390237093
1772537848207814700,10.104814697265626,-0.0012980876490473747,0.00022907429956831038,-0.003665188793092966
1772537848226410200,10.12341015625,-0.0016035200096666813,0.00022907429956831038,-0.0027488914784044027
1772537848245005600,10.142005615234375,-0.00038179047987796366,-0.00007635809743078426,-0.0027488914784044027
1772537848263601200,10.16060107421875,-0.0012980876490473747,0.00022907429956831038,-0.0027488914784044027
1772537848282196500,10.179196533203125,-0.0012980876490473747,-0.00007635809743078426,-0.003665188793092966
1772537848300792000,10.1977919921875,-0.0009926552884280682,-0.00038179047987796366,-0.0027488914784044027
1772537848319387600,10.2163876953125,-0.0009926552884280682,0.00022907429956831038,-0.002443459117785096
1772537848337983000,10.23498291015625,-0.0006872228696011007,0.000839939049910754,-0.0027488914784044027
1772537848356578600,10.25357861328125,-0.00038179047987796366,0.0005345066892914474,-0.003970621153712273
1772537848375174000,10.272173828125,-0.0016035200096666813,0.0005345066892914474,-0.002443459117785096
1772537848393769200,10.290769287109375,-0.0006872228696011007,-0.00007635809743078426,-0.0027488914784044027
1772537848412364800,10.30936474609375,-0.0006872228696011007,0.00022907429956831038,-0.0021380267571657896
1772537848430960000,10.327960205078124,-0.0012980876490473747,-0.00007635809743078426,-0.002443459117785096
1772537848449555700,10.3465556640625,-0.0012980876490473747,0.000839939049910754,-0.0021380267571657896
1772537848468151300,10.3651513671875,-0.0012980876490473747,-0.00007635809743078426,-0.0027488914784044027
1772537848486746600,10.38374658203125,-0.0016035200096666813,-0.00038179047987796366,-0.003359756199643016
1772537848505342200,10.40234228515625,-0.00038179047987796366,0.0005345066892914474,-0.001832594396546483
1772537848523937500,10.4209375,-0.0009926552884280682,0.000839939049910754,-0.003359756199643016
1772537848542532900,10.439532958984374,-0.0019089524867013097,-0.00007635809743078426,-0.002443459117785096
1772537848561128400,10.45812841796875,-0.0012980876490473747,-0.00038179047987796366,-0.0021380267571657896
1772537848579723800,10.476723876953125,-0.0016035200096666813,0.0005345066892914474,-0.0027488914784044027
1772537848598319400,10.4953193359375,-0.00038179047987796366,0.00022907429956831038,-0.002443459117785096
1772537848616914700,10.513914794921876,-0.0009926552884280682,0.0005345066892914474,-0.0030543238390237093
1772537848635510300,10.53251025390625,-0.00038179047987796366,0.00022907429956831038,-0.002443459117785096
1772537848654105900,10.55110595703125,-0.0016035200096666813,0.00022907429956831038,-0.003359756199643016
1772537848672701200,10.569701171875,-0.0016035200096666813,0.00022907429956831038,-0.0027488914784044027
1772537848691296500,10.588296630859375,-0.00038179047987796366,0.00022907429956831038,-0.0021380267571657896
1772537848709892000,10.60689208984375,-0.0006872228696011007,0.00022907429956831038,-0.0027488914784044027
1772537848728487400,10.6254873046875,-0.0006872228696011007,0.0011453714687377214,-0.0027488914784044027
1772537848747083000,10.6440830078125,-0.0012980876490473747,-0.00007635809743078426,-0.0027488914784044027
1772537848765678300,10.66267822265625,-0.0009926552884280682,0.0005345066892914474,-0.002443459117785096
1772537848784274000,10.68127392578125,-0.0012980876490473747,0.0005345066892914474,-0.0030543238390237093
1772537848802869200,10.699869140625,-0.00038179047987796366,-0.00007635809743078426,-0.0030543238390237093
1772537848821464800,10.71846484375,-0.0009926552884280682,-0.00007635809743078426,-0.003359756199643016
1772537848840060200,10.73706005859375,-0.0016035200096666813,0.0005345066892914474,-0.0027488914784044027
1772537848858655700,10.75565576171875,-0.0009926552884280682,0.0005345066892914474,-0.0030543238390237093
1772537848877251000,10.7742509765625,-0.0006872228696011007,0.00022907429956831038,-0.0030543238390237093
1772537848895846700,10.7928466796875,-0.0012980876490473747,0.00022907429956831038,-0.0030543238390237093
1772537848914442000,10.81144189453125,-0.0016035200096666813,-0.00007635809743078426,-0.0027488914784044027
1772537848933037300,10.830037353515625,-0.0016035200096666813,0.00022907429956831038,-0.002443459117785096
1772537848951633000,10.8486328125,-0.0009926552884280682,0.00022907429956831038,-0.003359756199643016
1772537848970228500,10.867228515625,-0.0006872228696011007,0.001450803829357028,-0.003665188793092966
1772537848988823800,10.88582373046875,-0.0012980876490473747,0.0005345066892914474,-0.0027488914784044027
1772537849007419100,10.904419189453124,-0.0006872228696011007,0.0005345066892914474,-0.0030543238390237093
1772537849026014700,10.9230146484375,-0.0016035200096666813,0.0005345066892914474,-0.0030543238390237093
1772537849044610000,10.941610107421875,-0.0012980876490473747,0.000839939049910754,-0.0021380267571657896
1772537849063205600,10.96020556640625,-0.00038179047987796366,-0.00038179047987796366,-0.0027488914784044027
1772537849081801000,10.978801025390625,-0.00038179047987796366,0.00022907429956831038,-0.0030543238390237093
1772537849100396500,10.997396484375,0.00022907429956831038,0.0005345066892914474,-0.002443459117785096
1772537849118992000,11.015991943359374,-0.0012980876490473747,0.00022907429956831038,-0.003970621153712273
1772537849137587200,11.034587158203125,-0.0009926552884280682,0.0005345066892914474,-0.002443459117785096
1772537849156182800,11.053182861328125,-0.0009926552884280682,0.000839939049910754,-0.003359756199643016
1772537849174778400,11.0717783203125,-0.0022143847309052944,0.00022907429956831038,-0.003665188793092966
1772537849193373700,11.090373779296876,-0.0006872228696011007,0.00022907429956831038,-0.003665188793092966
1772537849211969000,11.108968994140625,-0.0016035200096666813,0.00022907429956831038,-0.0030543238390237093
1772537849230564600,11.127564697265624,-0.0009926552884280682,0.0005345066892914474,-0.004276053514331579
1772537849249160000,11.146159912109376,-0.0012980876490473747,-0.00007635809743078426,-0.003359756199643016
1772537849267755500,11.164755615234375,-0.0016035200096666813,0.001450803829357028,-0.002443459117785096
1772537849286350800,11.183350830078124,-0.0006872228696011007,0.000839939049910754,-0.002443459117785096
1772537849304946200,11.2019462890625,-0.0012980876490473747,-0.00007635809743078426,-0.002443459117785096
1772537849323541800,11.220541748046875,-0.000305432389723137,0.00022907429956831038,0
1772537849342137000,11.23913720703125,0.0009162971982732415,0.00022907429956831038,-0.000610864779446274
1772537849360732700,11.257732666015626,0.000610864779446274,0.0005345066892914474,-0.000610864779446274
1772537849379328000,11.276327880859375,0.000305432389723137,-0.00007635809743078426,0.0009162971982732415
1772537849397923600,11.294923583984374,0.001221729558892548,-0.00007635809743078426,0
1772537849416519000,11.313518798828126,0.000305432389723137,0.0005345066892914474,0.000305432389723137
1772537849435114500,11.332114501953125,-0.0009162971982732415,-0.00007635809743078426,0.000305432389723137
1772537849453709800,11.350709716796874,0.000305432389723137,0.00022907429956831038,0
1772537849472305200,11.36930517578125,0,-0.00038179047987796366,0.000610864779446274
1772537849490900700,11.387900634765625,0.000305432389723137,0.00022907429956831038,0.000305432389723137
1772537849509496000,11.40649609375,-0.000610864779446274,-0.00038179047987796366,-0.000610864779446274
1772537849528091600,11.425091552734376,-0.006719512399286032,-0.033368486911058426,0.043982263654470444
1772537849546687000,11.44368701171875,0.000610864779446274,0.02283107116818428,-0.023823726922273636
1772537849565282300,11.4622822265625,0.001832594396546483,-0.011988221667706966,0.013439024798572063
1772537849583878000,11.4808779296875,-0.0021380267571657896,-0.010766491293907166,0.01435532234609127
