time,seconds_elapsed,z,y,x
1772721647075125000,0.086125,0,0,0
1772721647093720300,0.10472021484375,-0.022542953491210938,0.024084925651550293,0.005250275135040283
1772721647112315600,0.123315673828125,0.0358734130859375,0.13275420665740967,-0.003130197525024414
1772721647130911000,0.141910888671875,0.031212806701660156,-0.0028384923934936523,0.14432722330093384
1772721647149506600,0.160506591796875,0.34064769744873047,0.04046452045440674,0.36054888367652893
1772721647168102000,0.179101806640625,0.4337730407714844,-0.19246041774749756,1.3387283086776733
1772721647186697200,0.197697265625,0.08260917663574219,-0.230279803276062,1.7108030319213867
1772721647205292500,0.21629248046875,-0.5867490768432617,0.2327040433883667,0.2727820873260498
1772721647223888000,0.234887939453125,-1.5622978210449219,0.20944786071777344,-0.776928186416626
1772721647242483500,0.2534833984375,-1.5727739334106445,-0.13877785205841064,-0.6103465557098389
1772721647261078800,0.272078857421875,-1.620997428894043,-0.07889962196350098,-0.09392526000738144
1772721647279674000,0.290674072265625,-1.6455059051513672,-0.029504060745239258,0.18736304342746735
1772721647298269400,0.30926953125,-1.6314105987548828,-0.4659123420715332,0.38832780718803406
1772721647316865000,0.327864990234375,-2.8313770294189453,-1.1853786706924438,0.21257272362709045
1772721647335460400,0.34646044921875,-3.8816604614257812,-1.507201075553894,0.3262035846710205
1772721647354055700,0.3650556640625,-3.2757015228271484,-2.145359516143799,1.0315349102020264
1772721647372651000,0.383651123046875,-2.1460299491882324,-0.7853406667709351,0.09306487441062927
1772721647391246300,0.402246337890625,0.4320230484008789,-0.7546941041946411,-0.013871878385543823
1772721647409842000,0.420842041015625,6.399937152862549,0.18015164136886597,-1.2075202465057373
1772721647428437200,0.439437255859375,14.626280784606934,0.44247448444366455,-2.9712018966674805
1772721647447032600,0.458032470703125,18.662708282470703,0.2357206493616104,-1.3722537755966187
1772721647465628000,0.4766279296875,18.054418563842773,0.8219660520553589,0.22609037160873413
1772721647484223500,0.495223388671875,16.1375789642334,2.1352858543395996,-0.4539470076560974
1772721647502818800,0.51381884765625,13.406791687011719,2.6033496856689453,-1.6974376440048218
1772721647521414100,0.5324140625,9.934479713439941,2.83193302154541,-1.0502221584320068
1772721647540009500,0.551009521484375,5.9676971435546875,3.5385661125183105,0.31430763006210327
1772721647558604800,0.569604736328125,1.599832534790039,3.5460100173950195,0.25839734077453613
1772721647577200000,0.5882001953125,-2.166855812072754,2.4454293251037598,1.757150411605835
1772721647595795700,0.606795654296875,-5.698034286499023,0.7145838737487793,2.0016448497772217
1772721647614391000,0.62539111328125,-7.877171993255615,-0.13322842121124268,0.6307317018508911
1772721647632986400,0.643986328125,-8.60400390625,-1.1824610233306885,-0.21525681018829346
1772721647651581700,0.662581787109375,-8.538130760192871,-1.5955839157104492,0.714236855506897
1772721647670177000,0.681177001953125,-10.137519836425781,-3.1295220851898193,-0.1564123034477234
1772721647688772600,0.699772705078125,-10.744189262390137,-3.929206371307373,-0.24551010131835938
1772721647707368000,0.718367919921875,-11.72332763671875,-3.9959301948547363,-1.1465044021606445
1772721647725963300,0.73696337890625,-12.677877426147461,-3.900491952896118,-0.8463768362998962
1772721647744558600,0.75555859375,-12.714458465576172,-3.731562614440918,0.7454407215118408
1772721647763154000,0.77415380859375,-12.611739158630371,-3.171772003173828,1.4323806762695312
1772721647781749500,0.79274951171875,-11.89102554321289,-2.5784075260162354,1.1911581754684448
1772721647800344800,0.8113447265625,-10.42057991027832,-2.1258809566497803,1.246663212776184
1772721647818940200,0.829940185546875,-8.752582550048828,-2.037130117416382,1.2525017261505127
1772721647846833200,0.857833251953125,-4.629694938659668,-1.303276538848877,-0.8718439340591431
1772721647865428500,0.876428466796875,3.653881072998047,-1.163819670677185,-1.1305639743804932
1772721647884024000,0.895024169921875,14.296798706054688,0.03676903247833252,-1.6725996732711792
1772721647902619400,0.913619384765625,21.113924026489258,1.6698464155197144,-1.358263373374939
1772721647921214700,0.932214599609375,20.55908966064453,0.791678786277771,-1.5931023359298706
1772721647939810000,0.95081005859375,15.992137908935547,1.9233214855194092,-2.487244129180908
1772721647958405400,0.9694052734375,13.093541145324707,3.0652432441711426,-3.1228830814361572
1772721647977001000,0.9880009765625,12.278916358947754,4.115022659301758,-2.89837646484375
1772721647995596300,1.00659619140625,11.481285095214844,4.056471347808838,-1.3043574094772339
1772721648014191600,1.025191650390625,10.769824028015137,3.5826754570007324,0.6983453631401062
1772721648032787000,1.043786865234375,8.655172348022461,2.62066650390625,1.2790048122406006
1772721648051382500,1.062382568359375,4.024259567260742,1.9779138565063477,2.0522079467773438
1772721648069977900,1.080977783203125,-0.8526668548583984,0.7795802354812622,2.62115216255188
1772721648088573200,1.0995732421875,-4.3974175453186035,0.34429219365119934,1.0706180334091187
1772721648107168500,1.11816845703125,-7.013316631317139,-0.06427665054798126,-1.0218403339385986
1772721648125763800,1.136763916015625,-8.8440523147583,-0.34411442279815674,-1.6050145626068115
1772721648144359400,1.155359375,-10.436253547668457,-1.1529521942138672,-1.0288586616516113
1772721648162954800,1.173954833984375,-12.082683563232422,-1.9660918712615967,-0.6364790797233582
1772721648181550000,1.192550048828125,-13.272470474243164,-2.1372151374816895,-0.7078570127487183
1772721648200145400,1.2111455078125,-13.60128402709961,-1.7188923358917236,-1.0999985933303833
1772721648218740700,1.22974072265625,-12.711359024047852,-1.4079262018203735,-0.8944908380508423
1772721648237336300,1.24833642578125,-10.746261596679688,-1.3439912796020508,-0.139539897441864
1772721648255931400,1.266931396484375,-8.896924018859863,-1.455876111984253,0.6160778999328613
1772721648274527000,1.28552685546875,-7.657680511474609,-1.7861058712005615,1.1751633882522583
1772721648293122300,1.304122314453125,-6.711862087249756,-1.8100398778915405,1.120558261871338
1772721648311717600,1.322717529296875,-5.5363078117370605,-1.6093542575836182,0.9865394830703735
1772721648330313000,1.34131298828125,-4.274105072021484,-1.1028425693511963,0.5461563467979431
1772721648348908500,1.359908447265625,-1.3716411590576172,-0.9424945712089539,-0.201346755027771
1772721648367504000,1.37850390625,4.383905410766602,-1.7704393863677979,-1.4033973217010498
1772721648386099200,1.39709912109375,10.372093200683594,-0.5783937573432922,-3.82979679107666
1772721648404694500,1.415694580078125,14.432943344116211,2.0361552238464355,-3.4789633750915527
1772721648423289900,1.434289794921875,15.509209632873535,1.2009490728378296,-0.7432856559753418
1772721648441885400,1.452885498046875,16.648727416992188,0.8734476566314697,-4.276806354522705
1772721648460480800,1.471480712890625,19.025299072265625,0.22236603498458862,-5.032419681549072
1772721648479076000,1.490076171875,19.32309341430664,-1.24331533908844,-1.7373100519180298
1772721648497671400,1.50867138671875,18.429481506347656,-1.3213310241699219,-1.3490413427352905
1772721648516266800,1.527266845703125,15.215527534484863,-0.8534044027328491,-0.7345768213272095
1772721648534862300,1.5458623046875,9.393799781799316,-1.0555287599563599,0.7139891386032104
1772721648553457700,1.564457763671875,3.1459293365478516,-1.1843326091766357,0.8602823615074158
1772721648572053000,1.583052978515625,-1.881688117980957,-1.2853655815124512,0.12585985660552979
1772721648590648300,1.6016484375,-5.042113304138184,-1.8862152099609375,-0.17401722073554993
1772721648609244000,1.620243896484375,-6.035647392272949,-2.6766469478607178,0.8612058162689209
1772721648627839200,1.638839111328125,-8.069090843200684,-3.336695909500122,1.1722900867462158
1772721648646434600,1.6574345703125,-11.387600898742676,-3.866602897644043,-0.524756669998169
1772721648665030000,1.67602978515625,-14.466018676757812,-3.233255386352539,-1.9161128997802734
1772721648683625500,1.69462548828125,-15.762125015258789,-2.7063989639282227,-1.582392930984497
1772721648702220800,1.713220703125,-15.494068145751953,-2.205214500427246,-0.7807560563087463
1772721648720816000,1.731816162109375,-14.436124801635742,-1.4112818241119385,-0.03301054239273071
1772721648739411500,1.750411376953125,-13.234479904174805,-1.075200080871582,1.1624295711517334
1772721648758006800,1.7690068359375,-12.30970573425293,-0.7759057283401489,2.2215261459350586
1772721648776602000,1.78760205078125,-12.50790786743164,-0.32290807366371155,2.6561338901519775
1772721648795197700,1.80619775390625,-12.104338645935059,-0.18823972344398499,2.2688841819763184
1772721648813793000,1.82479296875,-9.960262298583984,-0.23516592383384705,0.7968876361846924
1772721648832388400,1.843388427734375,-5.9332780838012695,0.10244596004486084,-0.3250710964202881
1772721648850983700,1.861983642578125,1.4552288055419922,0.056293368339538574,-0.8265441656112671
1772721648869579000,1.8805791015625,8.662550926208496,-0.5955823659896851,2.30222749710083
1772721648888174600,1.899174560546875,11.354637145996094,0.23445099592208862,2.4081661701202393
1772721648906770000,1.91777001953125,10.84603500366211,1.3684568405151367,-0.6773821115493774
1772721648925365200,1.936365234375,12.182260513305664,1.8934717178344727,-1.1280118227005005
1772721648943960600,1.954960693359375,14.874939918518066,2.553598403930664,1.5862336158752441
1772721648962556200,1.97355615234375,17.887554168701172,1.3952393531799316,3.6457340717315674
1772721648981151500,1.9921513671875,18.586240768432617,0.13448989391326904,2.628871440887451
1772721648999746800,2.010746826171875,16.262842178344727,-0.5477975606918335,2.948213815689087
1772721649018342100,2.029342041015625,16.07522964477539,-0.5650719404220581,1.1341609954833984
1772721649036937700,2.047937744140625,18.25,0.34896236658096313,-1.1869410276412964
1772721649055533000,2.066532958984375,14.859136581420898,0.7112284898757935,-0.29330939054489136
1772721649074128400,2.08512841796875,6.962111473083496,0.7025157809257507,0.9761661291122437
1772721649092723700,2.1037236328125,1.2650623321533203,-0.1103212833404541,1.1996630430221558
1772721649111319300,2.1223193359375,-3.0712223052978516,-0.7276847958564758,-0.23476600646972656
1772721649129914600,2.14091455078125,-6.274529933929443,-1.5697813034057617,-3.4369616508483887
1772721649148510000,2.159510009765625,-9.273564338684082,-2.0313668251037598,-6.590638160705566
1772721649167105300,2.178105224609375,-11.853991508483887,-2.27687668800354,-6.777403831481934
1772721649185700600,2.19670068359375,-13.937440872192383,-2.717834234237671,-4.920886516571045
1772721649204296200,2.215296142578125,-15.597393035888672,-2.5679848194122314,-3.573798179626465
1772721649222891500,2.2338916015625,-16.854721069335938,-1.8202030658721924,-2.6181838512420654
1772721649241486800,2.25248681640625,-17.354646682739258,-0.8357357978820801,-1.968717336654663
1772721649260082200,2.271082275390625,-16.659469604492188,-0.04992763325572014,-1.019153118133545
1772721649278677800,2.289677734375,-14.32122802734375,0.5172585248947144,-0.12055620551109314
1772721649297273000,2.308273193359375,-10.515519142150879,0.5277359485626221,0.22235579788684845
1772721649315868400,2.326868408203125,-7.033350944519043,0.15470707416534424,0.2650848925113678
1772721649334463700,2.345463623046875,-4.823590278625488,-0.21302902698516846,0.028486132621765137
1772721649353059300,2.364059326171875,-3.662914276123047,-0.4426840543746948,-0.7846185564994812
1772721649371654700,2.382654541015625,-2.909602165222168,-0.30239081382751465,-2.1914496421813965
1772721649390250000,2.40125,-0.14795494079589844,-0.27083349227905273,-1.8207769393920898
1772721649408845300,2.41984521484375,4.281432151794434,-0.8963053226470947,-0.8200581073760986
1772721649427441000,2.43844091796875,7.215742111206055,-0.731966495513916,-0.16436541080474854
1772721649446036000,2.457035888671875,10.218371391296387,0.18262922763824463,0.3526660203933716
1772721649464631600,2.475631591796875,14.177351951599121,-0.6161942481994629,2.597095251083374
1772721649483227000,2.494226806640625,17.446056365966797,-2.2709803581237793,3.314284086227417
1772721649501822500,2.512822509765625,16.86775779724121,-3.237730026245117,-0.6014891862869263
1772721649520417500,2.53141748046875,16.34945297241211,-2.6977133750915527,-1.5681748390197754
1772721649539013000,2.55001318359375,16.75234603881836,-2.4538652896881104,-0.8876047134399414
1772721649557608400,2.5686083984375,18.811279296875,-2.0741474628448486,-1.4639601707458496
1772721649576203800,2.587203857421875,18.05113983154297,-0.5735572576522827,-1.7014615535736084
1772721649594799000,2.605799072265625,13.205951690673828,0.2968709468841553,0.8827865123748779
1772721649613394700,2.624394775390625,5.631671905517578,0.2908526062965393,2.0780928134918213
1772721649631990000,2.642989990234375,-1.9331350326538086,-0.21747171878814697,0.47602689266204834
1772721649650585300,2.66158544921875,-7.190650463104248,-0.7834760546684265,-1.8240309953689575
1772721649669180700,2.6801806640625,-10.482444763183594,-1.8943731784820557,-4.210629940032959
1772721649687776300,2.6987763671875,-11.8811616897583,-2.661665678024292,-4.808844566345215
1772721649706371600,2.71737158203125,-11.537055969238281,-2.9153125286102295,-3.9402151107788086
1772721649724967000,2.735966796875,-11.114788055419922,-2.7142977714538574,-2.8703792095184326
1772721649743562200,2.754562255859375,-12.033830642700195,-2.5645198822021484,-2.0156965255737305
1772721649762157800,2.77315771484375,-13.519790649414062,-2.3169963359832764,-1.764268398284912
1772721649780753200,2.791753173828125,-14.892993927001953,-1.6502487659454346,-1.5198314189910889
1772721649799348500,2.810348388671875,-15.635295867919922,-0.7382989525794983,-1.2099173069000244
1772721649817943800,2.82894384765625,-15.035557746887207,-0.0991034209728241,-0.9765334129333496
1772721649836539100,2.8475390625,-12.769247055053711,0.38523826003074646,-1.0157136917114258
1772721649855134700,2.866134765625,-9.323598861694336,0.8300093412399292,-0.6073876619338989
1772721649873730000,2.88472998046875,-5.7546491622924805,1.0223357677459717,-0.14031097292900085
1772721649892325400,2.903325439453125,-1.8282532691955566,0.6751871109008789,0.052104413509368896
1772721649910920700,2.921920654296875,1.874715805053711,0.04653823375701904,-1.139721393585205
1772721649929516300,2.940516357421875,3.881077766418457,-0.11601066589355469,-2.6209936141967773
1772721649948111600,2.959111572265625,5.9033308029174805,1.2417551279067993,-4.138253211975098
1772721649966707000,2.97770703125,9.499151229858398,3.605477809906006,-4.068050384521484
1772721649985302300,2.99630224609375,11.691386222839355,4.769927024841309,-2.182861328125
1772721650003897900,3.01489794921875,13.422791481018066,3.4959716796875,-1.5543655157089233
1772721650022493200,3.0334931640625,14.888211250305176,1.2156188488006592,-1.749512791633606
1772721650041088500,3.052088623046875,15.818711280822754,-0.1524486541748047,-2.181440591812134
1772721650059683800,3.070683837890625,18.225961685180664,-1.2668994665145874,-0.9337769746780396
1772721650078279200,3.089279052734375,20.84667205810547,-4.583765506744385,0.4636472165584564
1772721650096874800,3.107874755859375,17.354217529296875,-5.562344074249268,-0.5735136270523071
1772721650115470000,3.126469970703125,11.830877304077148,-4.674896717071533,-0.16150051355361938
1772721650134065400,3.1450654296875,7.117720603942871,-3.4631686210632324,0.7093539237976074
1772721650152660700,3.16366064453125,2.285093307495117,-2.728238105773926,0.8055208921432495
1772721650171256300,3.18225634765625,-3.686948776245117,-2.815648078918457,0.630060076713562
1772721650189851600,3.2008515625,-8.82492446899414,-2.4413862228393555,-0.4826313853263855
1772721650208447000,3.219447021484375,-12.425631523132324,-1.788002848625183,-2.3992919921875
1772721650227042300,3.238042236328125,-13.92455768585205,-1.574311375617981,-3.770064115524292
1772721650245637600,3.2566376953125,-13.954595565795898,-1.1240580081939697,-3.5536181926727295
1772721650264233000,3.27523291015625,-13.342905044555664,-0.5578871965408325,-2.7957210540771484
1772721650282828500,3.29382861328125,-12.633438110351562,-0.07883468270301819,-1.369374394416809
1772721650301423900,3.312423828125,-13.171915054321289,0.4249418079853058,-0.009970545768737793
1772721650320019200,3.331019287109375,-13.824419021606445,0.6460905075073242,0.24534285068511963
1772721650338614500,3.349614501953125,-13.62266731262207,0.9068695306777954,-0.08200019598007202
1772721650357210000,3.368210205078125,-11.726144790649414,0.8187083601951599,0.10228657722473145
1772721650375805400,3.386805419921875,-9.519922256469727,0.8850609660148621,0.5506904125213623
1772721650394400800,3.40540087890625,-7.744419574737549,0.8352323770523071,1.711409568786621
1772721650412996000,3.42399609375,-6.0329909324646,0.5546491146087646,2.9339115619659424
1772721650431591400,3.44259130859375,-4.257899284362793,0.32244718074798584,3.219360828399658
1772721650450187000,3.46118701171875,-2.098480224609375,0.17416274547576904,2.408181667327881
1772721650468782300,3.4797822265625,0.24875450134277344,-0.37801671028137207,2.365975856781006
1772721650487377700,3.498377685546875,5.297926902770996,-0.8187869787216187,1.0323035717010498
1772721650505973000,3.516972900390625,11.060834884643555,0.23123395442962646,-0.04600942134857178
1772721650524568300,3.535568359375,14.45546817779541,-0.10533928871154785,3.334432363510132
1772721650543164000,3.554163818359375,18.506393432617188,-1.9360356330871582,4.973989486694336
1772721650561759200,3.57275927734375,21.823001861572266,-4.594925403594971,2.836491823196411
1772721650580354600,3.5913544921875,23.661142349243164,-6.688952445983887,-2.6392099857330322
1772721650598950000,3.609949951171875,25.75402069091797,-7.227115154266357,-6.474289894104004
1772721650617545500,3.62854541015625,26.381839752197266,-5.140565395355225,-6.61660099029541
1772721650636140800,3.647140869140625,22.711071014404297,-3.1933631896972656,-5.429595947265625
1772721650654736100,3.665736083984375,15.937759399414062,-2.380880832672119,-2.0765185356140137
1772721650673331500,3.68433154296875,6.041260719299316,-2.515367269515991,0.8037319779396057
1772721650691926800,3.7029267578125,-4.382322311401367,-1.9305753707885742,0.7168195247650146
1772721650710522000,3.721522216796875,-12.049284934997559,-1.72701895236969,-0.43916577100753784
1772721650729117400,3.740117431640625,-15.284463882446289,-2.476576089859009,-1.5556126832962036
1772721650747713000,3.758713134765625,-15.830373764038086,-3.003020763397217,-1.0890175104141235
1772721650766308400,3.777308349609375,-16.532184600830078,-3.0793023109436035,-0.6159689426422119
1772721650784903700,3.795903564453125,-16.94266128540039,-2.5709307193756104,-0.365579217672348
1772721650803499000,3.8144990234375,-16.580968856811523,-2.6466140747070312,-0.3626452386379242
1772721650822094600,3.833094482421875,-16.18246841430664,-2.430447816848755,-0.218966543674469
1772721650840690000,3.85168994140625,-15.664031982421875,-2.2450523376464844,0.8879272937774658
1772721650859285200,3.87028515625,-14.651208877563477,-2.3767640590667725,-0.635761022567749
1772721650877880600,3.888880615234375,-13.670365333557129,-2.0787034034729004,0.6714324951171875
1772721650896476000,3.907475830078125,-11.855692863464355,-2.8143868446350098,0.9496769309043884
1772721650915071500,3.926071533203125,-10.268529891967773,-2.678309202194214,1.5558083057403564
1772721650933666800,3.944666748046875,-9.077857971191406,-2.4096908569335938,1.9013794660568237
1772721650952262100,3.96326220703125,-7.714873790740967,-1.7862110137939453,2.4106664657592773
1772721650970857500,3.981857421875,-5.538267135620117,-0.9900078177452087,2.3487844467163086
1772721650989452800,4.000452880859375,-2.134256362915039,-0.07270091772079468,1.4621965885162354
1772721651008048400,4.01904833984375,7.107478141784668,0.380205363035202,0.27275657653808594
1772721651026643700,4.037643798828125,17.952350616455078,0.5351026654243469,1.6036198139190674
1772721651045239000,4.056239013671875,23.71524429321289,0.1771518588066101,1.6751229763031006
1772721651063834400,4.07483447265625,24.872650146484375,-0.6391735076904297,1.632084846496582
1772721651082430000,4.093429931640625,21.130647659301758,-0.24056535959243774,-0.9129170179367065
1772721651101025300,4.112025390625,19.489151000976562,1.3383336067199707,-0.6460262537002563
1772721651119620600,4.13062060546875,16.305278778076172,1.480240821838379,2.098616600036621
1772721651138216000,4.1492158203125,11.347148895263672,2.3314261436462402,1.824094295501709
1772721651156811500,4.1678115234375,8.174795150756836,2.25773024559021,0.5677536129951477
1772721651175406600,4.186406494140625,5.764870643615723,0.387959361076355,0.0427640900015831
1772721651194002200,4.205002197265625,3.631683349609375,-1.4715228080749512,-1.1972838640213013
1772721651212597500,4.223597412109375,0.8752593994140625,-2.381092071533203,-3.0893046855926514
1772721651231192800,4.24219287109375,-3.225656509399414,-2.5695173740386963,-4.182193756103516
1772721651249788200,4.2607880859375,-7.270979404449463,-2.3688442707061768,-4.407280445098877
1772721651268383700,4.2793837890625,-10.435376167297363,-2.0137228965759277,-4.020754814147949
1772721651286979000,4.29797900390625,-12.436225891113281,-1.508526086807251,-2.415997266769409
1772721651305574400,4.316574462890625,-13.759435653686523,-0.9533498287200928,-0.9047663807868958
1772721651324169700,4.335169677734375,-13.996173858642578,-0.6802042126655579,-0.182546004652977
1772721651342765300,4.353765380859375,-13.526325225830078,-0.339089035987854,-0.520414412021637
1772721651361360600,4.372360595703125,-12.68581771850586,-0.3872157335281372,-0.9620723724365234
1772721651379956000,4.3909560546875,-11.361536026000977,-0.3507491946220398,-0.657714307308197
1772721651398551300,4.40955126953125,-10.155987739562988,-0.6319960355758667,-0.33373111486434937
1772721651417147000,4.42814697265625,-9.35128116607666,-1.2351255416870117,0.09218382835388184
1772721651435742200,4.4467421875,-8.775202751159668,-2.007166862487793,1.0203256607055664
1772721651454337500,4.465337646484375,-8.1681489944458,-2.5537233352661133,2.137908458709717
1772721651472932900,4.483932861328125,-6.6336822509765625,-1.97651207447052,0.5634596347808838
1772721651491528400,4.502528564453125,-3.34700870513916,-0.7764214277267456,-1.74309241771698
1772721651510123800,4.521123779296875,3.0183982849121094,-0.14787673950195312,-0.5874647498130798
1772721651528719000,4.539718994140625,11.465315818786621,-1.1345243453979492,6.503059387207031
1772721651547314700,4.558314697265625,15.722722053527832,-0.6025984287261963,4.866844177246094
1772721651565910000,4.576909912109375,17.65243148803711,-1.6336190700531006,2.2691726684570312
1772721651584505300,4.59550537109375,14.491520881652832,4.9721879959106445,0.6831008791923523
1772721651603100700,4.6141005859375,21.30129051208496,4.781413555145264,-1.6138553619384766
1772721651621696300,4.6326962890625,30.205665588378906,2.884406328201294,-2.5655601024627686
1772721651640291600,4.65129150390625,29.346210479736328,-0.41774773597717285,0.13098648190498352
1772721651658887000,4.669886962890625,16.95937728881836,-1.768518328666687,-1.7758363485336304
1772721651677482200,4.688482177734375,6.179414749145508,-2.1829519271850586,-3.8277840614318848
1772721651696077800,4.707077880859375,1.245499610900879,-2.541252613067627,-3.6927363872528076
1772721651714673200,4.725673095703125,-1.8772411346435547,-3.1147513389587402,-3.315775156021118
1772721651733268500,4.7442685546875,-3.9430437088012695,-3.9400529861450195,-3.7351324558258057
1772721651751864000,4.762864013671875,-4.276467800140381,-4.764152526855469,-3.0586230754852295
1772721651770459400,4.78145947265625,-4.050848007202148,-5.089729309082031,0.16583886742591858
1772721651789054700,4.8000546875,-5.174931049346924,-4.637048721313477,5.0696258544921875
1772721651807650000,4.818650146484375,-9.966070175170898,-6.325287342071533,3.9199907779693604
1772721651826245600,4.83724560546875,-21.987045288085938,-7.104875564575195,-2.1895592212677
1772721651844841000,4.855841064453125,-26.034461975097656,-5.585036277770996,-3.2642982006073
1772721651863436300,4.874436279296875,-26.970577239990234,-4.612483501434326,0.17652249336242676
1772721651882031900,4.893031982421875,-26.339527130126953,-3.3394851684570312,2.3650522232055664
1772721651900627200,4.911627197265625,-21.1561279296875,-3.8810834884643555,3.107879638671875
1772721651919222500,4.930222412109375,-15.21739387512207,-4.915337562561035,2.563490152359009
1772721651937817900,4.94881787109375,-6.320859909057617,-5.322240829467773,-0.03626014292240143
1772721651956413400,4.967413330078125,-2.2817764282226562,-5.372488975524902,-0.9726800322532654
1772721651975008800,4.9860087890625,0.1116485595703125,-4.680292129516602,-3.245354652404785
1772721651993604000,5.00460400390625,3.032090187072754,-2.8155946731567383,-3.323362112045288
1772721652012199700,5.02319970703125,4.109746932983398,-0.304013192653656,-1.3146812915802002
1772721652030795000,5.041794921875,4.676061630249023,2.1940200328826904,-1.0782119035720825
1772721652049390600,5.060390625,6.744890213012695,3.669422149658203,-0.26818808913230896
1772721652067986000,5.07898583984375,13.715414047241211,1.7450182437896729,4.259959697723389
1772721652086581200,5.097581298828125,23.114696502685547,0.20734822750091553,5.185028076171875
1772721652105176600,5.116176513671875,22.011249542236328,-0.8417493104934692,6.841861248016357
1772721652123772000,5.13477197265625,20.211307525634766,-2.7081618309020996,2.0345449447631836
1772721652142367500,5.153367431640625,18.343029022216797,-3.5643210411071777,-2.794867753982544
1772721652160962800,5.171962890625,16.50185775756836,-2.7222282886505127,-4.120395660400391
1772721652179558400,5.190558349609375,12.702237129211426,-1.9114630222320557,-1.7185426950454712
1772721652198153700,5.20915380859375,8.833239555358887,-1.9119822978973389,0.4821375012397766
1772721652216749000,5.2277490234375,4.611037254333496,-2.002793312072754,-0.798678994178772
1772721652235344600,5.2463447265625,1.183638572692871,-1.952665090560913,-2.567591667175293
1772721652253939700,5.264939697265625,-1.683974266052246,-1.3625390529632568,-3.173523426055908
1772721652272535300,5.283535400390625,-4.509673118591309,-0.7115670442581177,-2.974881172180176
1772721652291130600,5.302130615234375,-7.221567153930664,-0.33638477325439453,-2.3534324169158936
1772721652309726200,5.320726318359375,-9.488186836242676,-0.17403459548950195,-1.7149933576583862
1772721652328321500,5.339321533203125,-11.151921272277832,-0.34832465648651123,-0.7334179282188416
1772721652346916900,5.357916748046875,-12.366395950317383,-0.3795398473739624,-0.4318532347679138
1772721652365512400,5.376512451171875,-12.686309814453125,-0.17943108081817627,0.4077424705028534
1772721652384107800,5.395107666015625,-12.720767974853516,-0.26389968395233154,1.5896974802017212
1772721652402703000,5.413703125,-14.593070983886719,-0.5952452421188354,2.0340051651000977
1772721652421298400,5.43229833984375,-14.836008071899414,-0.4956051707267761,2.249608278274536
1772721652439894000,5.45089404296875,-13.705314636230469,-1.0265036821365356,3.378037452697754
1772721652458489300,5.4694892578125,-12.148362159729004,-1.8465471267700195,3.3512840270996094
1772721652477084700,5.488084716796875,-9.624753952026367,-2.3621103763580322,2.1201889514923096
1772721652495680300,5.50668017578125,-6.156688690185547,-2.646400213241577,1.0626379251480103
1772721652514275600,5.525275634765625,-2.6043834686279297,-2.598933696746826,-1.1326427459716797
1772721652532871000,5.543870849609375,0.962855339050293,-2.437930107116699,-2.7960221767425537
1772721652551466500,5.562466552734375,3.750833511352539,-1.504411220550537,-3.6160855293273926
1772721652570061800,5.581061767578125,6.5001068115234375,1.8723161220550537,-5.2751569747924805
1772721652588657200,5.5996572265625,10.494449615478516,3.1182384490966797,-5.377963066101074
1772721652607252500,5.61825244140625,15.619368553161621,0.7927829623222351,-2.814329147338867
1772721652625848000,5.63684814453125,17.034263610839844,-0.912074089050293,-1.3208595514297485
1772721652644443400,5.655443359375,15.70966625213623,-2.2173280715942383,-4.594992160797119
1772721652663038700,5.674038818359375,18.744966506958008,-3.089236259460449,-10.06074333190918
1772721652681634300,5.69263427734375,23.265666961669922,-1.5233793258666992,-13.187143325805664
1772721652700229600,5.711229736328125,23.040573120117188,-0.15689849853515625,-8.028810501098633
1772721652718825000,5.729824951171875,13.259867668151855,0.10083973407745361,-0.7031923532485962
1772721652737420300,5.748420166015625,2.6581859588623047,1.0302151441574097,0.52720707654953
1772721652756015900,5.767015869140625,-3.4004287719726562,0.6150578260421753,-0.930449903011322
1772721652774611200,5.785611083984375,-7.281531810760498,0.010959267616271973,-4.086667537689209
1772721652793206500,5.80420654296875,-8.957063674926758,-0.9974534511566162,-5.149261474609375
1772721652811802000,5.822802001953125,-10.498786926269531,-2.100501775741577,-3.5642757415771484
1772721652830397400,5.8413974609375,-12.285154342651367,-3.1706929206848145,-2.118539333343506
1772721652848992800,5.85999267578125,-14.58060073852539,-2.942350387573242,-1.6601582765579224
1772721652867588000,5.878588134765625,-15.014411926269531,-2.023984909057617,-0.46378421783447266
1772721652886183700,5.89718359375,-16.986942291259766,-1.8285768032073975,-0.431659460067749
1772721652904779000,5.915779052734375,-20.622312545776367,-1.0563888549804688,-0.5309582352638245
1772721652923374300,5.934374267578125,-19.53156852722168,-0.11652371287345886,0.5421633720397949
1772721652941970000,5.952969970703125,-11.800363540649414,0.18496645987033844,1.165852665901184
1772721652960565200,5.971565185546875,-4.807764053344727,-0.736096978187561,2.353461980819702
1772721652979160600,5.99016064453125,0.6367216110229492,-1.9949769973754883,0.6727206110954285
1772721652997756200,6.008756103515625,3.1740989685058594,-2.170616626739502,-1.9194862842559814
1772721653016351500,6.0273515625,3.2914228439331055,-1.6715240478515625,-1.5228049755096436
1772721653034946800,6.04594677734375,2.407543182373047,-0.4805971384048462,-0.15359842777252197
1772721653053542100,6.064542236328125,2.1110668182373047,1.5123000144958496,-2.033486843109131
1772721653072137700,6.0831376953125,4.309809684753418,3.040158748626709,-4.562556266784668
1772721653090733000,6.101733154296875,11.561140060424805,2.5416767597198486,-2.262983798980713
1772721653109328400,6.120328369140625,18.383758544921875,2.7721619606018066,0.6254590749740601
1772721653127923700,6.138923828125,18.329463958740234,2.4369969367980957,-0.272296667098999
1772721653146519300,6.157519287109375,15.903029441833496,1.5841342210769653,-1.7781615257263184
1772721653165114600,6.176114501953125,14.037278175354004,1.745025634765625,-3.81540584564209
1772721653183710000,6.1947099609375,14.400368690490723,0.49838289618492126,-3.926022529602051
1772721653202305500,6.213305419921875,13.103047370910645,-0.034796953201293945,-4.045815467834473
1772721653220900900,6.23190087890625,8.662778854370117,-0.42615413665771484,-3.0584020614624023
1772721653239496200,6.25049609375,3.136734962463379,-0.9052981734275818,-1.4159237146377563
1772721653258091500,6.269091552734375,-1.633835792541504,-1.5412180423736572,-0.4497373700141907
1772721653276687000,6.28768701171875,-4.831484794616699,-2.1526029109954834,-0.2438398003578186
1772721653295282400,6.306282470703125,-6.794193267822266,-2.1146187782287598,0.7154277563095093
1772721653313877800,6.324877685546875,-8.572033882141113,-2.4858508110046387,2.160817861557007
1772721653332473300,6.343473388671875,-11.393232345581055,-2.978416681289673,2.093257427215576
1772721653351068700,6.362068603515625,-13.934381484985352,-2.4838972091674805,1.318122386932373
1772721653369664000,6.3806640625,-15.778970718383789,-1.4305058717727661,0.6344387531280518
1772721653388259300,6.39925927734375,-16.54184913635254,-0.5007741451263428,-0.003919005393981934
1772721653406855000,6.41785498046875,-14.89661979675293,-0.03897252678871155,-0.4165980815887451
1772721653425450200,6.4364501953125,-11.630924224853516,0.10505467653274536,-0.7127072215080261
1772721653444045600,6.455045654296875,-9.299357414245605,0.05366933345794678,-0.5568653345108032
1772721653462641000,6.473640869140625,-8.205915451049805,-0.1539716124534607,-0.8775841593742371
1772721653481236500,6.492236572265625,-8.252595901489258,-0.564605712890625,-1.0964932441711426
1772721653499831800,6.510831787109375,-7.541223526000977,-0.946858286857605,-0.831601619720459
1772721653518427100,6.52942724609375,-5.315728187561035,-1.2887136936187744,-0.48611152172088623
1772721653537022700,6.548022705078125,-1.2943248748779297,-1.5171445608139038,-0.5955662727355957
1772721653555618000,6.5666181640625,4.533454895019531,-0.9287046194076538,-0.7659271955490112
1772721653574213400,6.58521337890625,11.911152839660645,-0.2329009771347046,-1.5310206413269043
1772721653592808700,6.60380859375,15.713199615478516,-0.2507995367050171,-1.2033692598342896
1772721653611404300,6.622404296875,15.537714004516602,-1.0848910808563232,1.082223653793335
1772721653629999600,6.64099951171875,14.51778507232666,0.6710339188575745,2.604548692703247
1772721653648595000,6.659594970703125,13.392985343933105,2.6876730918884277,3.1592750549316406
1772721653667190300,6.678190185546875,15.292407035827637,1.5897730588912964,0.35111305117607117
1772721653685785900,6.696785888671875,20.156953811645508,-0.3479585647583008,-4.684055805206299
1772721653704381200,6.715381103515625,21.21375274658203,-0.024682998657226562,-7.18243932723999
1772721653722976500,6.7339765625,16.155338287353516,0.2957167625427246,-6.408904552459717
1772721653741571800,6.75257177734375,8.3643798828125,-0.4343634843826294,-2.2051405906677246
1772721653760167400,6.77116748046875,0.4033031463623047,-2.6249136924743652,0.7928219437599182
1772721653778762800,6.7897626953125,-6.296592712402344,-3.4353928565979004,0.9330054521560669
1772721653797358000,6.808358154296875,-10.237470626831055,-3.915621280670166,0.9369447231292725
1772721653815953400,6.826953369140625,-12.1152982711792,-4.496523380279541,1.1300926208496094
1772721653834549000,6.845549072265625,-14.005647659301758,-4.96604061126709,0.9638693332672119
1772721653853144300,6.864144287109375,-15.469579696655273,-5.225523471832275,0.703569769859314
1772721653871739600,6.88273974609375,-18.228286743164062,-5.660637855529785,-0.5300947427749634
1772721653890335000,6.9013349609375,-19.282489776611328,-4.390194892883301,-1.6140873432159424
1772721653908930600,6.9199306640625,-18.846040725708008,-3.570188283920288,-1.6785945892333984
1772721653927526000,6.93852587890625,-16.951679229736328,-2.6649532318115234,-0.7967164516448975
1772721653946121200,6.957121337890625,-14.26164722442627,-1.9170751571655273,-0.35950708389282227
1772721653964716500,6.975716552734375,-8.729722023010254,-0.7842527627944946,0.2797529101371765
1772721653983312100,6.99431201171875,-4.045923233032227,-0.5018413066864014,2.797677993774414
1772721654001907500,7.012907470703125,0.40253543853759766,-0.9942277073860168,5.149563789367676
1772721654020502800,7.031502685546875,4.583929061889648,-1.5011963844299316,6.0622453689575195
1772721654039098000,7.05009814453125,4.243598937988281,-1.121335744857788,3.427888870239258
1772721654057693700,7.068693603515625,4.014097213745117,0.21676377952098846,-1.2551419734954834
1772721654076289000,7.0872890625,6.571195602416992,1.7190299034118652,-3.2460145950317383
1772721654094884400,7.10588427734375,10.770209312438965,1.2083158493041992,-0.46887123584747314
1772721654113479700,7.124479736328125,16.217729568481445,1.2232625484466553,2.978783130645752
1772721654132075300,7.1430751953125,19.664424896240234,2.181454658508301,5.200819492340088
1772721654150670600,7.161670654296875,22.547502517700195,1.067094326019287,1.2310445308685303
1772721654169266000,7.180265869140625,24.162368774414062,-1.3631055355072021,-4.669809818267822
1772721654187861200,7.198861328125,24.767501831054688,-1.6249223947525024,-8.97172737121582
1772721654206456800,7.217456787109375,22.763309478759766,-1.3600212335586548,-7.320732116699219
1772721654225052000,7.236052001953125,14.983647346496582,-0.38712626695632935,-3.168269157409668
1772721654243647500,7.2546474609375,5.530420303344727,0.09272909164428711,0.0779760479927063
1772721654262242800,7.273242919921875,-0.37702369689941406,-1.1518943309783936,1.05216383934021
1772721654280838100,7.291838134765625,-4.442690849304199,-3.1756205558776855,0.6392261981964111
1772721654299433500,7.31043359375,-8.734064102172852,-4.88527774810791,0.9456344842910767
1772721654318029000,7.329029052734375,-13.726513862609863,-7.01673698425293,0.8750117421150208
1772721654336624400,7.347624267578125,-19.515426635742188,-8.79659652709961,0.1636076420545578
1772721654355219700,7.3662197265625,-23.34917449951172,-8.529202461242676,-1.2958966493606567
1772721654373815000,7.38481494140625,-24.344970703125,-7.986025810241699,0.19873103499412537
1772721654392410600,7.40341064453125,-20.999401092529297,-7.243513107299805,0.7430161237716675
1772721654411006000,7.422005859375,-17.178857803344727,-6.660305023193359,0.7640876770019531
1772721654429601300,7.440601318359375,-15.887981414794922,-6.094377517700195,-0.027849674224853516
1772721654448196600,7.459196533203125,-11.218886375427246,-4.78955078125,-0.4137309789657593
1772721654466792000,7.4777919921875,-8.209972381591797,-4.540166854858398,1.7202335596084595
1772721654485387500,7.496387451171875,-4.423697471618652,-3.1502959728240967,2.829951286315918
1772721654503982800,7.51498291015625,-2.6489744186401367,-2.0650534629821777,3.442991256713867
1772721654522578200,7.533578125,-1.6188044548034668,-1.0518347024917603,0.7786591053009033
1772721654541173500,7.552173583984375,3.119784355163574,-0.39241212606430054,-1.5950133800506592
1772721654559768800,7.570768798828125,8.719473838806152,0.3943215608596802,-1.25709867477417
1772721654578364400,7.589364501953125,11.713068962097168,1.8685394525527954,-0.5061140060424805
1772721654596959700,7.607959716796875,13.046160697937012,2.6459298133850098,-0.2897980213165283
1772721654615555000,7.62655517578125,16.420320510864258,1.180227518081665,4.194424629211426
1772721654634150400,7.645150390625,17.120471954345703,2.8379945755004883,5.165103435516357
1772721654652746000,7.66374609375,20.015737533569336,3.509190797805786,3.192593574523926
1772721654671341300,7.68234130859375,26.311859130859375,0.5151733160018921,-1.6748061180114746
1772721654689936600,7.7009365234375,25.134788513183594,-0.884973406791687,-5.953115463256836
1772721654708532000,7.719531982421875,17.383106231689453,-1.636285424232483,-6.009363174438477
1772721654727127300,7.738127197265625,8.876221656799316,-2.0053865909576416,-2.2684950828552246
1772721654745723000,7.756722900390625,1.1513967514038086,-1.7930629253387451,0.8041576743125916
1772721654764318000,7.77531787109375,-4.812264442443848,-1.5389361381530762,1.214523434638977
1772721654782913500,7.79391357421875,-8.830354690551758,-2.35760498046875,-2.690769910812378
1772721654801508900,7.8125087890625,-10.617332458496094,-3.6335396766662598,-5.709820747375488
1772721654820104200,7.831104248046875,-12.968796730041504,-4.628185272216797,-5.656966209411621
1772721654838699500,7.849699462890625,-15.355810165405273,-4.924893856048584,-3.5436651706695557
1772721654857294800,7.868294921875,-16.01247787475586,-4.124603748321533,-0.6996291279792786
1772721654875890400,7.886890380859375,-16.316850662231445,-2.9905006885528564,1.0315817594528198
1772721654894485800,7.90548583984375,-17.250017166137695,-2.5921170711517334,0.8306934833526611
1772721654913081000,7.9240810546875,-16.328262329101562,-2.417682647705078,0.8604320287704468
1772721654931676400,7.942676513671875,-13.515874862670898,-2.390856981277466,0.4775572419166565
1772721654950271700,7.961271728515625,-10.328254699707031,-2.4522924423217773,0.5026752948760986
1772721654968867300,7.979867431640625,-7.758715629577637,-2.2678749561309814,0.6654807329177856
1772721654987462700,7.998462646484375,-5.361964225769043,-1.6857702732086182,1.3566150665283203
1772721655006058000,8.01705810546875,-3.164050579071045,-0.871448278427124,1.8669688701629639
1772721655024653300,8.0356533203125,1.1171293258666992,-0.08163362741470337,1.496852159500122
1772721655043248600,8.05424853515625,7.7336883544921875,0.6683492660522461,1.7821139097213745
1772721655061844000,8.072843994140625,13.398201942443848,1.165766954421997,3.390678882598877
1772721655080439300,8.091439208984376,13.556145668029785,2.3018405437469482,3.911746025085449
1772721655099035000,8.110034912109375,11.25407600402832,1.1940679550170898,2.8812355995178223
1772721655117630200,8.128630126953125,11.262995719909668,1.4259355068206787,1.016331672668457
1772721655136225500,8.1472255859375,13.070191383361816,0.4451492428779602,0.429065465927124
1772721655154820900,8.16582080078125,14.809432029724121,-1.123496174812317,-0.7258375883102417
1772721655173416200,8.184416259765625,17.090274810791016,-1.986554503440857,-5.440645217895508
1772721655192011500,8.203011474609376,18.65703582763672,-0.965288519859314,-8.87779712677002
1772721655210607000,8.221607177734375,17.041324615478516,-0.0669548511505127,-8.252666473388672
1772721655229202400,8.240202392578125,10.989400863647461,-0.504135012626648,-5.7037739753723145
1772721655247797800,8.2587978515625,2.886331558227539,-1.247637152671814,-2.6848630905151367
1772721655266393000,8.27739306640625,-3.2409372329711914,-2.7401084899902344,-1.256015419960022
1772721655284988400,8.295988525390625,-7.040526390075684,-3.0925374031066895,-1.0218725204467773
1772721655303583700,8.314583740234376,-10.101924896240234,-2.9940288066864014,-1.0533528327941895
1772721655322179300,8.333179443359375,-12.55045223236084,-2.947866439819336,-0.9304627776145935
1772721655340774400,8.3517744140625,-13.882354736328125,-2.258077383041382,-0.6710031032562256
1772721655359370000,8.370369873046876,-14.58334732055664,-1.1905505657196045,-0.8282290101051331
1772721655377965300,8.38896533203125,-14.173664093017578,-0.43403178453445435,-0.7838574051856995
1772721655396560600,8.407560546875,-13.320329666137695,-0.00031745433807373047,0.13504773378372192
1772721655415156000,8.426156005859376,-13.289369583129883,0.46789565682411194,1.2708323001861572
1772721655433751300,8.444751220703125,-12.849380493164062,1.0157074928283691,1.9630897045135498
1772721655452346600,8.4633466796875,-11.54898452758789,1.1744804382324219,2.283686637878418
1772721655470942000,8.48194189453125,-9.595541954040527,0.7963544130325317,2.3585753440856934
1772721655489537500,8.50053759765625,-6.591586589813232,0.6137678623199463,2.5658209323883057
1772721655508132900,8.5191328125,-4.149458885192871,0.2863885760307312,3.3073697090148926
1772721655526728200,8.537728271484376,-0.7093887329101562,-0.48284363746643066,2.937180519104004
1772721655545323500,8.556323486328125,2.4681396484375,-1.0284587144851685,1.1443783044815063
1772721655563918800,8.5749189453125,5.352320671081543,-0.27203965187072754,-2.277317523956299
1772721655582514200,8.59351416015625,10.151959419250488,1.2071189880371094,-2.5721216201782227
1772721655601109500,8.612109619140625,17.600736618041992,0.517179548740387,0.8506249785423279
1772721655619704800,8.630704833984375,22.947355270385742,-0.057238221168518066,4.36942195892334
1772721655638300200,8.649300048828126,21.021533966064453,-0.08744996786117554,6.249807834625244
1772721655656895700,8.667895751953125,18.431060791015625,-0.6465927958488464,3.81886625289917
1772721655675491000,8.686490966796875,18.673442840576172,-1.0096641778945923,-1.4946272373199463
1772721655694086400,8.70508642578125,17.959699630737305,0.8716440200805664,-4.366945266723633
1772721655712681700,8.723681640625,13.349279403686523,2.1072049140930176,-3.098109245300293
1772721655731277000,8.742277099609375,5.666265487670898,1.923569679260254,0.2710917592048645
1772721655749872400,8.760872314453126,-1.9772777557373047,0.995739758014679,2.016113519668579
1772721655768467700,8.7794677734375,-6.017032146453857,-0.5662238597869873,1.4838314056396484
1772721655787063300,8.798063232421875,-7.149271011352539,-2.1507480144500732,-0.31723552942276
1772721655805658400,8.816658447265626,-7.701445579528809,-3.0766642093658447,-1.3326778411865234
1772721655824254000,8.83525390625,-9.597390174865723,-3.5708603858947754,-0.6904032230377197
1772721655842849300,8.853849365234375,-12.603995323181152,-3.40077543258667,0.1738981008529663
1772721655861444600,8.872444580078126,-15.032167434692383,-2.7057032585144043,1.1842046976089478
1772721655880040000,8.8910400390625,-15.777532577514648,-2.2244467735290527,2.2990665435791016
1772721655898635300,8.90963525390625,-14.85018539428711,-1.8058494329452515,2.9806811809539795
1772721655917230600,8.928230712890626,-13.657561302185059,-1.3484092950820923,2.7551231384277344
1772721655935826000,8.946825927734375,-12.385351181030273,-1.2271029949188232,1.3921537399291992
1772721655954421200,8.965421142578125,-10.99876594543457,-1.203792691230774,0.4812853932380676
1772721655973016800,8.984016845703126,-9.12337589263916,-1.8199920654296875,-0.18705958127975464
1772721655991612000,9.00261181640625,-6.291488170623779,-2.1736907958984375,-0.8506588935852051
1772721656010207200,9.021207275390625,-3.0474462509155273,-2.205961227416992,-0.436531662940979
1772721656028802800,9.039802734375,0.29362010955810547,-2.017031669616699,0.0862807035446167
1772721656047398100,9.058398193359375,5.386944770812988,-1.384467601776123,-0.8188048601150513
1772721656065993500,9.076993408203125,10.016754150390625,1.2427600622177124,-2.1392412185668945
1772721656084588800,9.0955888671875,14.366172790527344,2.547313928604126,-0.5443966388702393
1772721656103184100,9.11418408203125,19.689342498779297,0.7075647115707397,1.9628627300262451
1772721656121779500,9.132779541015625,21.12343978881836,0.4201004207134247,3.047149181365967
1772721656140374800,9.151374755859376,17.796493530273438,1.1524600982666016,3.0302138328552246
1772721656158970000,9.16997021484375,14.669726371765137,1.5138230323791504,1.8440967798233032
1772721656177565400,9.1885654296875,11.823567390441895,1.5547653436660767,0.16937166452407837
1772721656196160800,9.207160888671876,10.242205619812012,0.34817206859588623,-0.39972949028015137
1772721656214756000,9.225756103515625,9.392583847045898,-1.2895493507385254,-0.7008539438247681
1772721656233351400,9.244351318359374,5.734284400939941,-1.2365421056747437,-0.7470654249191284
1772721656251946800,9.26294677734375,-0.46232128143310547,-1.2593039274215698,-0.40556859970092773
1772721656270542300,9.281542236328125,-6.21930456161499,-1.8735255002975464,0.1238107681274414
1772721656289137700,9.3001376953125,-11.330007553100586,-1.9130738973617554,0.5207546949386597
1772721656307732700,9.318732666015626,-15.266140937805176,-2.0192134380340576,-0.43772363662719727
1772721656326328300,9.337328369140625,-16.065813064575195,-2.013603687286377,-0.8191510438919067
1772721656344923600,9.355923583984374,-13.985533714294434,-2.0429303646087646,-0.2729678153991699
1772721656363519000,9.37451904296875,-10.603135108947754,-2.2049224376678467,0.23172104358673096
1772721656382114300,9.3931142578125,-8.429452896118164,-2.188685894012451,0.8535510301589966
1772721656400709600,9.411709716796874,-8.450454711914062,-2.0554795265197754,1.7649283409118652
1772721656419305000,9.430304931640626,-10.060168266296387,-1.961466908454895,1.8784492015838623
1772721656437900300,9.448900390625,-11.57084846496582,-1.8549129962921143,1.3987197875976562
1772721656456495600,9.46749560546875,-11.572368621826172,-1.8341445922851562,1.3790924549102783
1772721656475091000,9.486091064453126,-9.034751892089844,-1.758984088897705,0.9548737406730652
1772721656493686300,9.504686279296875,-5.66094970703125,-1.1120989322662354,1.1516433954238892
1772721656512281600,9.523281494140624,-2.7693700790405273,-0.08219587802886963,1.6631258726119995
1772721656530877000,9.541876953125,1.7898292541503906,0.5816460251808167,0.9552469849586487
1772721656549472300,9.56047216796875,7.495833396911621,1.919105887413025,-0.9288066625595093
1772721656568067600,9.579067626953124,11.850835800170898,3.554767608642578,-3.5620014667510986
1772721656586663000,9.597662841796875,15.849534034729004,0.8702688813209534,-1.366072416305542
1772721656605258200,9.61625830078125,19.015893936157227,-0.4278983473777771,0.5797401666641235
1772721656623853600,9.634853515625,20.365493774414062,-1.4107686281204224,-1.1529297828674316
1772721656642449000,9.653448974609375,21.261863708496094,-2.2099251747131348,-1.6441612243652344
1772721656661044200,9.672044189453125,20.03799819946289,-2.3794009685516357,-0.02955484390258789
1772721656679639600,9.6906396484375,14.485701560974121,-0.9442077279090881,1.3616163730621338
1772721656698235000,9.70923486328125,7.880720138549805,0.35846754908561707,1.5361230373382568
1772721656716830500,9.72783056640625,2.4935855865478516,1.0550867319107056,2.8020830154418945
1772721656735425800,9.74642578125,-2.873281478881836,1.1127190589904785,3.244450569152832
1772721656754020900,9.765020751953125,-6.571344375610352,0.5632807612419128,1.7773113250732422
1772721656772616200,9.7836162109375,-8.15031623840332,-0.7485589981079102,0.6447101831436157
1772721656791211500,9.80221142578125,-8.64108657836914,-1.1995904445648193,0.34603989124298096
1772721656809807000,9.82080712890625,-9.6559476852417,-1.6306424140930176,-0.4861534833908081
1772721656828402400,9.83940234375,-10.600434303283691,-1.7125213146209717,-0.5715392827987671
1772721656846997800,9.857997802734374,-11.743026733398438,-1.7981250286102295,0.07643532752990723
1772721656865593000,9.876593017578125,-12.716038703918457,-1.6405099630355835,1.0126590728759766
1772721656884188200,9.895188232421875,-13.18121337890625,-1.3105535507202148,1.6158052682876587
1772721656902783500,9.913783447265626,-13.214750289916992,-0.9062168598175049,2.1219534873962402
1772721656921379000,9.932379150390625,-12.46768569946289,-0.5177461504936218,2.513187885284424
1772721656939974400,9.950974365234375,-10.389305114746094,-0.24810683727264404,2.186706066131592
1772721656958569700,9.96956982421875,-7.413474082946777,-0.05571538209915161,1.9268742799758911
1772721656977165000,9.9881650390625,-3.895374298095703,-0.43346309661865234,1.1566799879074097
1772721656995760000,10.006760009765625,0.13920974731445312,-0.48677489161491394,0.07289505004882812
1772721657014355500,10.02535546875,2.5872325897216797,0.7848415374755859,-0.559363842010498
1772721657032951000,10.043950927734375,4.148930549621582,1.833103895187378,-1.9074044227600098
1772721657051546400,10.06254638671875,7.817085266113281,2.845088005065918,-2.992297649383545
1772721657070141700,10.0811416015625,11.614668846130371,2.4030680656433105,-1.939218282699585
1772721657088737000,10.099737060546875,12.387104988098145,1.507887363433838,-0.6726992130279541
1772721657107332400,10.118332275390625,11.00967025756836,1.6556122303009033,-1.3671939373016357
1772721657125927400,10.136927490234376,11.206815719604492,1.869728446006775,-2.0567784309387207
1772721657144522800,10.155522705078125,14.107099533081055,0.8556694984436035,-1.5324784517288208
1772721657163118300,10.174118408203125,14.14212703704834,-0.0938878133893013,-0.08836215734481812
1772721657181713700,10.192713623046876,9.612922668457031,-0.6748736500740051,0.4126436710357666
1772721657200309000,10.21130908203125,4.641593933105469,-0.76112961769104,0.11370599269866943
1772721657218904300,10.229904296875,0.7689666748046875,-0.8999369740486145,0.3319528102874756
1772721657237499600,10.248499755859376,-2.210756301879883,-1.0066882371902466,-0.0816798210144043
1772721657256094700,10.2670947265625,-4.658329486846924,-0.7914849519729614,-0.8007835149765015
1772721657274690000,10.28568994140625,-6.216463565826416,-0.5121024250984192,-0.873380184173584
1772721657293285400,10.304285400390626,-6.731782913208008,-0.38528335094451904,-0.2884784936904907
1772721657311881000,10.322880859375,-7.022852420806885,-0.27772200107574463,0.7102460861206055
1772721657330476300,10.341476318359375,-7.541302680969238,-0.15241208672523499,1.5657196044921875
1772721657349071600,10.360071533203126,-8.513307571411133,0.3255937397480011,1.5892413854599
1772721657367667000,10.3786669921875,-9.641684532165527,0.8378404378890991,1.1303045749664307
1772721657386262000,10.397261962890624,-10.302041053771973,1.2324514389038086,0.8331319093704224
1772721657404857300,10.415857421875,-10.039307594299316,1.5848870277404785,0.711430013179779
1772721657423452700,10.43445263671875,-8.856844902038574,1.9104819297790527,0.6839518547058105
1772721657442048000,10.453048095703124,-7.126259803771973,1.6810524463653564,0.6542254686355591
1772721657460643300,10.471643310546876,-4.792694568634033,1.0114901065826416,0.970483660697937
1772721657479238700,10.49023876953125,-1.9343700408935547,0.36254194378852844,0.8166990280151367
1772721657497834000,10.508833984375,0.6645450592041016,0.19862103462219238,-0.16057538986206055
1772721657516429300,10.52742919921875,3.156423568725586,0.7883267402648926,-2.6359288692474365
1772721657535024600,10.546024658203125,5.283347129821777,1.3291279077529907,-3.142000675201416
1772721657553620000,10.564619873046874,6.642819404602051,-0.37231147289276123,-0.39918410778045654
1772721657572215300,10.58321533203125,7.457618713378906,-1.2479370832443237,2.2340619564056396
1772721657590810600,10.601810546875,6.100114822387695,-1.335976481437683,2.006913661956787
1772721657609406000,10.620406005859374,8.618008613586426,-0.8009105324745178,2.1868550777435303
1772721657628001300,10.639001220703125,10.207160949707031,-0.915997326374054,1.1046801805496216
1772721657646596600,10.6575966796875,9.337018966674805,-1.2017878293991089,1.1286873817443848
1772721657665192000,10.67619189453125,7.908354759216309,-0.768025279045105,0.7992406487464905
1772721657683787300,10.694787353515625,6.699578285217285,-0.19822043180465698,0.18249356746673584
1772721657702382600,10.713382568359375,5.687673568725586,0.060257136821746826,-0.4350346326828003
1772721657720978000,10.73197802734375,3.3893747329711914,0.1366865038871765,-0.972015380859375
1772721657739573200,10.7505732421875,-0.20270729064941406,0.25189122557640076,-0.538771390914917
1772721657758168600,10.76916845703125,-3.742819309234619,0.8718470335006714,0.030274242162704468
1772721657776764000,10.787763916015624,-6.07044792175293,1.367581844329834,0.919121503829956
1772721657795359200,10.806359130859375,-6.036787509918213,1.5033859014511108,0.5527166128158569
1772721657813954300,10.824954345703125,-4.546950340270996,1.155862808227539,-0.5405430197715759
1772721657832549600,10.843549560546874,-3.0142898559570312,0.7962856292724609,-0.505555272102356
1772721657851145000,10.86214501953125,-1.4674606323242188,0.8926064372062683,-0.09000927209854126
1772721657869740300,10.880740234375,-0.012481689453125,0.8410159349441528,-0.08274722099304199
1772721657888335600,10.899335693359374,0.15357589721679688,0.1319398581981659,-0.031210005283355713
1772721657906931000,10.917930908203125,-0.7751340866088867,-0.13860636949539185,-0.642295777797699
1772721657925526300,10.9365263671875,-1.7091493606567383,-0.10473443567752838,-0.332624614238739
1772721657944121600,10.95512158203125,-1.6009435653686523,-0.28453680872917175,0.1444491147994995
1772721657962717000,10.973717041015625,-1.0429611206054688,-0.3078378438949585,0.449509859085083
1772721657981312300,10.992312255859375,-0.9811267852783203,-0.17298349738121033,0.8454157710075378
1772721657999907600,11.010907470703126,-1.2713127136230469,-0.14635992050170898,0.9831178188323975
1772721658018503000,11.0295029296875,-1.3505868911743164,-0.14505115151405334,0.549657940864563
1772721658037098200,11.04809814453125,-1.1978530883789062,0.041946955025196075,-0.21180188655853271
1772721658055693600,11.066693603515626,-1.5376195907592773,0.25113698840141296,0.42503470182418823
1772721658074288600,11.08528857421875,-1.196115493774414,0.5510716438293457,0.7205761671066284
