time,seconds_elapsed,z,y,x
1772721647084422700,0.095422607421875,0.2503018379211426,0.4365392327308655,-0.1992182731628418
1772721647103018000,0.11401806640625,0.41462448239326477,0.18180863559246063,-0.1891390085220337
1772721647121613300,0.13261328125,0.7951932549476624,-0.24610215425491333,-0.14912736415863037
1772721647140209000,0.151208984375,1.0447314977645874,-0.5903244614601135,-0.031841326504945755
1772721647158804200,0.16980419921875,0.8477275967597961,-0.6080395579338074,0.18409937620162964
1772721647177399600,0.188399658203125,0.19440771639347076,-0.750981867313385,0.3511708974838257
1772721647195995000,0.206994873046875,-0.2787070572376251,-0.7088322043418884,0.31848961114883423
1772721647214590200,0.225590087890625,-0.26221370697021484,-0.2592357397079468,0.12056943774223328
1772721647233185800,0.244185791015625,-0.06490438431501389,0.7358629703521729,-0.1937204897403717
1772721647251781000,0.262781005859375,0.04627300798892975,1.183321475982666,-0.36537349224090576
1772721647270376400,0.28137646484375,-0.033139415085315704,1.1598031520843506,-0.26885685324668884
1772721647288971800,0.2999716796875,-0.09911280870437622,0.8693369626998901,-0.006490438245236874
1772721647307567400,0.3185673828125,-0.1617264449596405,0.6329322457313538,0.22869250178337097
1772721647326162700,0.33716259765625,-0.043829549103975296,0.7728202939033508,0.191735178232193
1772721647344758000,0.355758056640625,-0.09269873052835464,0.7993929386138916,-0.09262236952781677
1772721647363353300,0.374353271484375,-0.0102319847792387,0.8843031525611877,-0.27832525968551636
1772721647381948700,0.39294873046875,0.08872810751199722,0.17508912086486816,-0.6607266068458557
1772721647400544000,0.4115439453125,-0.125074565410614,-0.16485713422298431,-1.4710386991500854
1772721647419139600,0.4301396484375,0.10461059212684631,-0.8707113862037659,-1.7147737741470337
1772721647437735000,0.44873486328125,0.5013672709465027,-0.7873283624649048,-1.2523491382598877
1772721647456330200,0.467330322265625,0.48762279748916626,0.13416117429733276,-0.6775254011154175
1772721647474925600,0.485925537109375,0.3159697949886322,1.035186767578125,-0.41638070344924927
1772721647493521200,0.504521240234375,0.33765551447868347,1.2532655000686646,-0.2929860055446625
1772721647512116500,0.523116455078125,0.3877464234828949,1.025412917137146,-0.03367391973733902
1772721647530711800,0.5417119140625,0.001679878099821508,0.32933247089385986,0.3563632369041443
1772721647549307100,0.56030712890625,-0.5086976289749146,-0.4537961781024933,0.6101775765419006
1772721647567902500,0.57890234375,-0.976620078086853,-0.9101121425628662,0.669126033782959
1772721647586498000,0.597498046875,-1.465311884880066,-0.8108466267585754,0.49136435985565186
1772721647605093400,0.61609326171875,-1.6467387676239014,-0.06498073786497116,0.05001455545425415
1772721647623688700,0.634688720703125,-1.4521782398223877,0.2868773639202118,-0.05047270283102989
1772721647642284000,0.653283935546875,-1.297934889793396,0.006490438245236874,0.428139865398407
1772721647660879400,0.67187939453125,-1.3345868587493896,-0.9131664633750916,1.1275800466537476
1772721647679475000,0.690474853515625,-0.9744820594787598,-0.3392590284347534,1.4229331016540527
1772721647698070300,0.7090703125,-0.6455313563346863,0.06299543380737305,1.6281837224960327
1772721647716665600,0.72766552734375,-0.2551887631416321,0.48907360434532166,1.5600723028182983
1772721647735261000,0.746260986328125,-0.026419902220368385,0.8846085667610168,1.2876266241073608
1772721647753856500,0.7648564453125,-0.07345648854970932,0.9521090984344482,0.8893427848815918
1772721647772451800,0.783451904296875,-0.1568395346403122,0.9811251759529114,0.4180605709552765
1772721647791047200,0.802047119140625,-0.2240346521139145,0.8720858097076416,-0.0553596206009388
1772721647809642500,0.820642578125,-0.2551887631416321,0.7419716119766235,-0.4157698452472687
1772721647828237800,0.83923779296875,-0.22953243553638458,0.506483256816864,-0.9209550023078918
1772721647846833200,0.857833251953125,0.058795735239982605,0.27282747626304626,-1.7526473999023438
1772721647865428500,0.876428466796875,0.4589121639728546,0.1424078494310379,-2.3366341590881348
1772721647884024000,0.895024169921875,0.6256782412528992,0.25266894698143005,-1.9994367361068726
1772721647902619400,0.913619384765625,0.27137666940689087,-0.04512763395905495,-0.9469167590141296
1772721647921214700,0.932214599609375,0.053603384643793106,-0.06436987966299057,-0.2248746007680893
1772721647939810000,0.95081005859375,0.011453714221715927,-0.23113596439361572,-0.3516290485858917
1772721647958405400,0.9694052734375,0.1101083755493164,-0.907974123954773,-0.9582177400588989
1772721647977001000,0.9880009765625,0.15470150113105774,-1.638873815536499,-1.5498403310775757
1772721647995596300,1.00659619140625,0.15775582194328308,-1.9818744659423828,-1.8555781841278076
1772721648014191600,1.025191650390625,0.0639880821108818,-1.9204825162887573,-1.5776346921920776
1772721648032787000,1.043786865234375,-0.07284562289714813,-1.6061925888061523,-0.8281035423278809
1772721648051382500,1.062382568359375,-0.3831649422645569,-0.9812778830528259,-0.21021384000778198
1772721648069977900,1.080977783203125,-0.8083268404006958,-0.018860450014472008,0.17463096976280212
1772721648088573200,1.0995732421875,-1.004414439201355,0.5339722037315369,0.5274053812026978
1772721648107168500,1.11816845703125,-0.8593340516090393,0.526030957698822,0.8832340836524963
1772721648125763800,1.136763916015625,-0.5798633694648743,0.11827868968248367,1.2836560010910034
1772721648144359400,1.155359375,-0.4751000702381134,-0.3300960659980774,1.5457170009613037
1772721648162954800,1.173954833984375,-0.48701193928718567,-0.41408994793891907,1.434844970703125
1772721648181550000,1.192550048828125,-0.48762279748916626,-0.19937099516391754,0.918053388595581
1772721648200145400,1.2111455078125,-0.39110618829727173,0.18119776248931885,0.13339759409427643
1772721648218740700,1.22974072265625,-0.29794928431510925,0.5159516930580139,-0.6249909996986389
1772721648237336300,1.24833642578125,-0.31810784339904785,0.7502183318138123,-1.0611485242843628
1772721648255931400,1.266931396484375,-0.4448622763156891,0.9667698740959167,-1.1851540803909302
1772721648274527000,1.28552685546875,-0.6042979955673218,1.2141700983047485,-1.106657862663269
1772721648293122300,1.304122314453125,-0.7115047574043274,1.4261401891708374,-0.940197229385376
1772721648311717600,1.322717529296875,-0.773202121257782,1.423391342163086,-0.77618008852005
1772721648330313000,1.34131298828125,-0.8043562173843384,1.2187515497207642,-0.7890082001686096
1772721648348908500,1.359908447265625,-0.7228057384490967,0.9343940615653992,-0.9744057059288025
1772721648367504000,1.37850390625,-0.37583455443382263,0.7331140637397766,-0.9322559833526611
1772721648386099200,1.39709912109375,0.07620538026094437,0.5138136148452759,-0.5055669546127319
1772721648404694500,1.415694580078125,0.04169152304530144,-0.026190826669335365,-0.016875140368938446
1772721648423289900,1.434289794921875,-0.5820014476776123,-0.08086322247982025,0.09796743839979172
1772721648441885400,1.452885498046875,-0.42623090744018555,-0.31238096952438354,0.02802342176437378
1772721648460480800,1.471480712890625,0.12263110280036926,-1.4055235385894775,0.22594361007213593
1772721648479076000,1.490076171875,0.0591011680662632,-1.8074724674224854,0.3245982825756073
1772721648497671400,1.50867138671875,0.17333288490772247,-1.1477385759353638,0.4067595899105072
1772721648516266800,1.527266845703125,0.36972591280937195,-0.5090794563293457,0.7464004158973694
1772721648534862300,1.5458623046875,0.4231765866279602,-0.4876991808414459,1.0958150625228882
1772721648553457700,1.564457763671875,0.35506516695022583,-0.9223294854164124,1.2182934284210205
1772721648572053000,1.583052978515625,0.2799287736415863,-1.151098370552063,1.0655772686004639
1772721648590648300,1.6016484375,0.2179260104894638,-0.5994874238967896,0.7748056054115295
1772721648609244000,1.620243896484375,0.020311253145337105,0.2908479869365692,0.7604503035545349
1772721648627839200,1.638839111328125,-0.18921536207199097,0.8504001498222351,0.973031222820282
1772721648646434600,1.6574345703125,-0.013897174037992954,0.7688496708869934,1.1129192113876343
1772721648665030000,1.67602978515625,0.4240928590297699,0.22548545897006989,0.9214131832122803
1772721648683625500,1.69462548828125,0.8391754627227783,-0.00847574882209301,0.4537961781024933
1772721648702220800,1.713220703125,1.1476621627807617,0.13843722641468048,-0.038560837507247925
1772721648720816000,1.731816162109375,1.3333650827407837,0.18700097501277924,-0.3937787115573883
1772721648739411500,1.750411376953125,1.289382815361023,0.1527925580739975,-0.5916988849639893
1772721648758006800,1.7690068359375,0.986393928527832,0.0962875634431839,-0.7236456871032715
1772721648776602000,1.78760205078125,0.49831295013427734,0.052916161715984344,-1.0666462182998657
1772721648795197700,1.80619775390625,0.06520981341600418,0.2764926850795746,-1.651243805885315
1772721648813793000,1.82479296875,-0.0013744457392022014,0.5727620720863342,-2.1936917304992676
1772721648832388400,1.843388427734375,0.28267768025398254,0.5119810700416565,-2.3949716091156006
1772721648850983700,1.861983642578125,0.7392991185188293,0.09445496648550034,-1.9050581455230713
1772721648869579000,1.8805791015625,0.6635518670082092,-0.354225218296051,-0.7609084248542786
1772721648888174600,1.899174560546875,0.35414886474609375,-0.35941755771636963,0.15202897787094116
1772721648906770000,1.91777001953125,0.5465712547302246,0.05322159454226494,0.26015204191207886
1772721648925365200,1.936365234375,0.8162680864334106,0.04558578506112099,0.114460788667202
1772721648943960600,1.954960693359375,0.42195484042167664,-0.9376010894775391,0.09185878932476044
1772721648962556200,1.97355615234375,-0.32452189922332764,-1.3581814765930176,0.2674824297428131
1772721648981151500,1.9921513671875,-0.6980656981468201,-1.3743693828582764,0.31115925312042236
1772721648999746800,2.010746826171875,-1.021518588066101,-1.1443787813186646,-0.16684244573116302
1772721649018342100,2.029342041015625,-0.7841976881027222,-1.2396737337112427,-0.6888263821601868
1772721649036937700,2.047937744140625,-0.007177661173045635,-1.9165118932724,-0.31955865025520325
1772721649055533000,2.066532958984375,0.5490147471427917,-2.725602388381958,0.43424850702285767
1772721649074128400,2.08512841796875,0.46746426820755005,-2.80715274810791,0.641331672668457
1772721649092723700,2.1037236328125,0.12202023714780807,-1.5991675853729248,0.5017490386962891
1772721649111319300,2.1223193359375,-0.2023489624261856,-0.2977202236652374,0.45593419671058655
1772721649129914600,2.14091455078125,-0.1571449637413025,0.1628718227148056,0.7344885468482971
1772721649148510000,2.159510009765625,0.37003132700920105,-0.09338594973087311,1.1737003326416016
1772721649167105300,2.178105224609375,0.8877392411231995,-0.3001636862754822,1.502040147781372
1772721649185700600,2.19670068359375,1.0920735597610474,0.1427132785320282,1.5069270133972168
1772721649204296200,2.215296142578125,1.0960441827774048,1.0394628047943115,1.1364375352859497
1772721649222891500,2.2338916015625,0.9607375860214233,1.6802599430084229,0.4886154532432556
1772721649241486800,2.25248681640625,0.7108938694000244,1.912388563156128,-0.3791179656982422
1772721649260082200,2.271082275390625,0.34315329790115356,1.8836779594421387,-1.328707218170166
1772721649278677800,2.289677734375,-0.1104138121008873,1.8027383089065552,-2.088012218475342
1772721649297273000,2.308273193359375,-0.4534143805503845,1.7850232124328613,-2.395582675933838
1772721649315868400,2.326868408203125,-0.6537780165672302,1.8757367134094238,-2.2352306842803955
1772721649334463700,2.345463623046875,-0.6543889045715332,2.111225128173828,-1.7969350814819336
1772721649353059300,2.364059326171875,-0.42195484042167664,2.0110433101654053,-1.263039231300354
1772721649371654700,2.382654541015625,0.09666935354471207,1.3787981271743774,-0.8769727349281311
1772721649390250000,2.40125,0.5832231640815735,0.44264790415763855,-0.5458840131759644
1772721649408845300,2.41984521484375,0.8507819175720215,-0.24549128115177155,-0.06879864633083344
1772721649427441000,2.43844091796875,0.9686788320541382,-0.42478010058403015,0.2641226649284363
1772721649446036000,2.457035888671875,0.8712459206581116,-0.5164098143577576,0.3157407343387604
1772721649464631600,2.475631591796875,0.33857181668281555,-0.6514109373092651,0.3197113573551178
1772721649483227000,2.494226806640625,-0.41004297137260437,-0.2925278842449188,0.4382191300392151
1772721649501822500,2.512822509765625,-0.3773617148399353,-0.19417864084243774,0.23938263952732086
1772721649520417500,2.53141748046875,-0.20448698103427887,-0.8148172497749329,-0.09445496648550034
1772721649539013000,2.55001318359375,-0.14981459081172943,-1.8633666038513184,-0.34979644417762756
1772721649557608400,2.5686083984375,0.22983787953853607,-2.6431355476379395,-0.06146826967597008
1772721649576203800,2.587203857421875,0.8345940113067627,-2.7179665565490723,0.7277690172195435
1772721649594799000,2.605799072265625,0.7967203855514526,-2.276311159133911,1.5716787576675415
1772721649613394700,2.624394775390625,0.20662501454353333,-1.5490766763687134,1.9299509525299072
1772721649631990000,2.642989990234375,-0.32421648502349854,-0.7873283624649048,1.7173699140548706
1772721649650585300,2.66158544921875,-0.5920807123184204,-0.24579671025276184,1.2512801885604858
1772721649669180700,2.6801806640625,-0.3938550651073456,0.0397825688123703,0.8285617232322693
1772721649687776300,2.6987763671875,0.05818486958742142,-0.08636100590229034,0.5897135734558105
1772721649706371600,2.71737158203125,0.4137081801891327,-0.2772562503814697,0.6953932046890259
1772721649724967000,2.735966796875,0.586888313293457,-0.1599702090024948,0.9861648082733154
1772721649743562200,2.754562255859375,0.5832231640815735,0.368122398853302,1.1068105697631836
1772721649762157800,2.77315771484375,0.5395463109016418,0.978070855140686,0.9345467686653137
1772721649780753200,2.791753173828125,0.45707955956459045,1.3067160844802856,0.4886154532432556
1772721649799348500,2.810348388671875,0.2961167097091675,1.2276091575622559,-0.13813179731369019
1772721649817943800,2.82894384765625,0.11194097250699997,1.0174716711044312,-0.8427643179893494
1772721649836539100,2.8475390625,-0.031001387163996696,0.8647554516792297,-1.4438552856445312
1772721649855134700,2.866134765625,-0.18493930995464325,0.8265764117240906,-1.7670027017593384
1772721649873730000,2.88472998046875,-0.46227192878723145,0.7215076684951782,-1.8198425769805908
1772721649892325400,2.903325439453125,-0.7689260244369507,0.876667320728302,-1.6035964488983154
1772721649910920700,2.921920654296875,-0.7912226319313049,1.5782455205917358,-1.1711041927337646
1772721649929516300,2.940516357421875,-0.4610501825809479,2.0812926292419434,-0.7499128580093384
1772721649948111600,2.959111572265625,0.11377356201410294,1.8574106693267822,-0.3476584255695343
1772721649966707000,2.97770703125,0.6183478832244873,0.8430697321891785,0.34781113266944885
1772721649985302300,2.99630224609375,0.5334376692771912,-0.6147590279579163,0.9217185974121094
1772721650003897900,3.01489794921875,0.20448698103427887,-1.1559852361679077,0.9870811104774475
1772721650022493200,3.0334931640625,0.15958842635154724,-0.6336958408355713,0.6434696912765503
1772721650041088500,3.052088623046875,0.2393062710762024,-0.8927025198936462,0.025579962879419327
1772721650059683800,3.070683837890625,-0.020311253145337105,-1.962632179260254,-0.31039565801620483
1772721650078279200,3.089279052734375,-0.3168860971927643,-2.2457680702209473,0.01672242395579815
1772721650096874800,3.107874755859375,-0.2753472924232483,-1.593975305557251,0.2329685539007187
1772721650115470000,3.126469970703125,-0.18921536207199097,-0.83467036485672,0.24365869164466858
1772721650134065400,3.1450654296875,-0.3000873327255249,-0.7213549613952637,0.483423113822937
1772721650152660700,3.16366064453125,-0.47296205163002014,-1.100701928138733,0.917747974395752
1772721650171256300,3.18225634765625,-0.6650790572166443,-0.9485966563224792,1.0579414367675781
1772721650189851600,3.2008515625,-0.7389936447143555,-0.46906778216362,0.7766382098197937
1772721650208447000,3.219447021484375,-0.5468766689300537,-0.093691386282444,0.30566146969795227
1772721650227042300,3.238042236328125,-0.10644318908452988,0.24381139874458313,-0.10545053333044052
1772721650245637600,3.2566376953125,0.24785839021205902,0.5300015807151794,-0.2667188346385956
1772721650264233000,3.27523291015625,0.40973755717277527,0.7126501202583313,-0.15523600578308105
1772721650282828500,3.29382861328125,0.2955058515071869,0.6323214173316956,0.11354449391365051
1772721650301423900,3.312423828125,-0.04046979174017906,0.6020836234092712,0.14103341102600098
1772721650320019200,3.331019287109375,-0.3935496211051941,0.7480802536010742,-0.21815508604049683
1772721650338614500,3.349614501953125,-0.5914698243141174,1.0092250108718872,-0.7639627456665039
1772721650357210000,3.368210205078125,-0.6400335431098938,1.3256529569625854,-1.143920660018921
1772721650375805400,3.386805419921875,-0.5642863512039185,1.5388447046279907,-1.2828923463821411
1772721650394400800,3.40540087890625,-0.5432115197181702,1.708665132522583,-1.2777000665664673
1772721650412996000,3.42399609375,-0.6565269231796265,1.883067011833191,-1.1686606407165527
1772721650431591400,3.44259130859375,-0.7368556261062622,1.9609522819519043,-0.9765437245368958
1772721650450187000,3.46118701171875,-0.6491965651512146,1.405370831489563,-0.8387936949729919
1772721650468782300,3.4797822265625,-0.559399425983429,0.32536184787750244,-0.8482621312141418
1772721650487377700,3.498377685546875,-0.37369653582572937,-0.6843976378440857,-0.820162296295166
1772721650505973000,3.516972900390625,-0.233503058552742,-1.6532291173934937,-0.6601157784461975
1772721650524568300,3.535568359375,-0.9408844709396362,-2.155970811843872,-1.1280381679534912
1772721650543164000,3.554163818359375,-2.000734806060791,-0.7680860757827759,-2.0278420448303223
1772721650561759200,3.57275927734375,-2.615570306777954,1.5932116508483887,-2.81524658203125
1772721650580354600,3.5913544921875,-2.4036002159118652,2.3332743644714355,-2.9817073345184326
1772721650598950000,3.609949951171875,-1.466839075088501,1.364748239517212,-2.197967767715454
1772721650617545500,3.62854541015625,-0.43172869086265564,-0.5744419693946838,-0.5639045238494873
1772721650636140800,3.647140869140625,0.5371028780937195,-2.2653157711029053,1.353600025177002
1772721650654736100,3.665736083984375,1.0291544198989868,-2.1339797973632812,3.0878450870513916
1772721650673331500,3.68433154296875,1.0178533792495728,-0.5594757795333862,4.017275810241699
1772721650691926800,3.7029267578125,0.9466876983642578,0.6420952677726746,4.023078918457031
1772721650710522000,3.721522216796875,1.0358740091323853,0.6714167594909668,3.577453136444092
1772721650729117400,3.740117431640625,1.3498584032058716,0.025732679292559624,3.236590623855591
1772721650747713000,3.758713134765625,1.5587742328643799,-0.9030871987342834,3.1599271297454834
1772721650766308400,3.777308349609375,1.4576760530471802,-1.13307785987854,2.9082508087158203
1772721650784903700,3.795903564453125,1.190422773361206,-0.44432777166366577,2.334343433380127
1772721650803499000,3.8144990234375,0.8804088830947876,0.6869937777519226,1.71126127243042
1772721650822094600,3.833094482421875,0.5422952175140381,1.4915027618408203,1.1449897289276123
1772721650840690000,3.85168994140625,0.08261945843696594,1.7150791883468628,0.6150645017623901
1772721650859285200,3.87028515625,-0.1568395346403122,1.6475787162780762,0.08452841639518738
1772721650877880600,3.888880615234375,-0.295811265707016,1.7437899112701416,-0.4447859227657318
1772721650896476000,3.907475830078125,-0.3407098352909088,2.1258857250213623,-0.8287144303321838
1772721650915071500,3.926071533203125,-0.37033677101135254,2.2795183658599854,-1.0199151039123535
1772721650933666800,3.944666748046875,-0.3712530732154846,1.923995018005371,-1.081307053565979
1772721650952262100,3.96326220703125,-0.3721693754196167,1.2712860107421875,-1.1659117937088013
1772721650970857500,3.981857421875,-0.3324631452560425,0.42248934507369995,-1.3879611492156982
1772721650989452800,4.000452880859375,-0.25182899832725525,-0.5640572905540466,-1.9414045810699463
1772721651008048400,4.01904833984375,0.016646064817905426,-0.9803616404533386,-2.1713953018188477
1772721651026643700,4.037643798828125,-0.16081015765666962,-1.3948333263397217,-1.488142967224121
1772721651045239000,4.056239013671875,-0.5178605914115906,-1.7195080518722534,-0.58039790391922
1772721651063834400,4.07483447265625,-0.9268345832824707,-1.2491421699523926,0.01611155830323696
1772721651082430000,4.093429931640625,-0.7380773425102234,-0.9666171669960022,-0.19066616892814636
1772721651101025300,4.112025390625,-0.5740602016448975,-1.5530472993850708,-0.5657371282577515
1772721651119620600,4.13062060546875,-0.9763146042823792,-1.6196316480636597,-0.9264528155326843
1772721651138216000,4.1492158203125,-1.4711151123046875,-1.3212242126464844,-1.4325542449951172
1772721651156811500,4.1678115234375,-1.8028147220611572,-1.0649664402008057,-1.615202784538269
1772721651175406600,4.186406494140625,-1.982408881187439,-0.8844558596611023,-1.221195101737976
1772721651194002200,4.205002197265625,-1.8956661224365234,-0.6654608249664307,-0.40080365538597107
1772721651212597500,4.223597412109375,-1.501658320426941,-0.47028952836990356,0.602847158908844
1772721651231192800,4.24219287109375,-0.9598212838172913,-0.31177011132240295,1.3728421926498413
1772721651249788200,4.2607880859375,-0.4079049527645111,-0.26137375831604004,1.7528001070022583
1772721651268383700,4.2793837890625,0.04657844081521034,-0.35208719968795776,1.798004150390625
1772721651286979000,4.29797900390625,0.1455385386943817,-0.3701077103614807,1.5509092807769775
1772721651305574400,4.316574462890625,-0.052687086164951324,0.027259841561317444,1.0173189640045166
1772721651324169700,4.335169677734375,-0.3987419903278351,0.4609738290309906,0.4174497127532959
1772721651342765300,4.353765380859375,-0.6653844714164734,0.6860775351524353,-0.09201150387525558
1772721651361360600,4.372360595703125,-0.754265308380127,0.9734894037246704,-0.4661661982536316
1772721651379956000,4.3909560546875,-0.7799215912818909,1.275562047958374,-0.6420952677726746
1772721651398551300,4.40955126953125,-0.7316632866859436,1.616424560546875,-0.6372083425521851
1772721651417147000,4.42814697265625,-0.6565269231796265,1.8766529560089111,-0.46891507506370544
1772721651435742200,4.4467421875,-0.661413848400116,1.948734998703003,-0.17142392694950104
1772721651454337500,4.465337646484375,-0.7814487814903259,1.4340814352035522,0.04696023091673851
1772721651472932900,4.483932861328125,-0.43722647428512573,0.4719693958759308,-0.019013166427612305
1772721651491528400,4.502528564453125,0.5145008563995361,-1.0255656242370605,-0.1992182731628418
1772721651510123800,4.521123779296875,1.2771655321121216,-2.3410630226135254,-0.2135736048221588
1772721651528719000,4.539718994140625,0.3831649422645569,-2.07747483253479,0.05917752534151077
1772721651547314700,4.558314697265625,-0.6763800382614136,-0.9733366966247559,-0.10575596243143082
1772721651565910000,4.576909912109375,-1.2127193212509155,0.26335906982421875,-0.49976375699043274
1772721651584505300,4.59550537109375,-1.6452115774154663,1.354974389076233,-1.9508730173110962
1772721651603100700,4.6141005859375,-1.947589635848999,0.4264599680900574,-2.3436591625213623
1772721651621696300,4.6326962890625,-1.8620685338974,-1.251585602760315,-0.8925498127937317
1772721651640291600,4.65129150390625,-2.0773983001708984,-1.0432807207107544,0.9049198031425476
1772721651658887000,4.669886962890625,-2.042273759841919,0.1995237022638321,1.2974004745483398
1772721651677482200,4.688482177734375,-1.5560252666473389,1.0015891790390015,0.761366605758667
1772721651696077800,4.707077880859375,-1.0346522331237793,0.9050725102424622,0.43485936522483826
1772721651714673200,4.725673095703125,-0.49861836433410645,0.26366451382637024,0.5307651162147522
1772721651733268500,4.7442685546875,0.2955058515071869,0.013209951110184193,0.8795689344406128
1772721651751864000,4.762864013671875,1.2127193212509155,0.2514472007751465,1.5585451126098633
1772721651770459400,4.78145947265625,1.6168063879013062,0.35010188817977905,2.6971969604492188
1772721651789054700,4.8000546875,0.8565851449966431,-1.0258710384368896,4.49375057220459
1772721651807650000,4.818650146484375,-0.19501857459545135,-3.385641574859619,6.300993919372559
1772721651826245600,4.83724560546875,-0.3095557391643524,-2.592128276824951,5.392026901245117
1772721651844841000,4.855841064453125,0.10766492038965225,-1.3132829666137695,3.0432519912719727
1772721651863436300,4.874436279296875,-0.1818849891424179,-0.4064541459083557,0.5677224397659302
1772721651882031900,4.893031982421875,-0.9133955836296082,0.7132610082626343,-2.0061562061309814
1772721651900627200,4.911627197265625,-1.7762420177459717,1.025718331336975,-3.9306857585906982
1772721651919222500,4.930222412109375,-2.4790420532226562,1.4337760210037231,-4.902876853942871
1772721651937817900,4.94881787109375,-2.7010912895202637,1.8345032930374146,-4.269104957580566
1772721651956413400,4.967413330078125,-2.5862488746643066,1.5315144062042236,-3.0263004302978516
1772721651975008800,4.9860087890625,-1.8920009136199951,1.2413536310195923,-1.7975460290908813
1772721651993604000,5.00460400390625,-1.1223113536834717,0.15523600578308105,-0.5785652995109558
1772721652012199700,5.02319970703125,-0.8080213665962219,-1.166369915008545,0.13828451931476593
1772721652030795000,5.041794921875,-0.6580541133880615,-1.8725296258926392,0.09063705801963806
1772721652049390600,5.060390625,-0.5083922147750854,-1.4977641105651855,-0.6515636444091797
1772721652067986000,5.07898583984375,-0.9543235301971436,-0.08239039033651352,-1.4918081760406494
1772721652086581200,5.097581298828125,-1.7313435077667236,0.3836994469165802,-1.061453938484192
1772721652105176600,5.116176513671875,-2.9707882404327393,0.8971312642097473,-1.0189988613128662
1772721652123772000,5.13477197265625,-3.665341377258301,1.2135592699050903,-1.2764782905578613
1772721652142367500,5.153367431640625,-3.3214244842529297,1.032743215560913,-1.3995676040649414
1772721652160962800,5.171962890625,-2.6635231971740723,0.18028147518634796,-1.180572509765625
1772721652179558400,5.190558349609375,-2.486372470855713,-0.60406893491745,-0.8106939196586609
1772721652198153700,5.20915380859375,-2.800356864929199,-0.5185478329658508,-0.46280643343925476
1772721652216749000,5.2277490234375,-2.914283037185669,0.3528507649898529,-0.26702427864074707
1772721652235344600,5.2463447265625,-2.679711103439331,1.1952333450317383,-0.02695440873503685
1772721652253939700,5.264939697265625,-2.305556297302246,1.1002438068389893,0.4110356271266937
1772721652272535300,5.283535400390625,-1.9304853677749634,0.44325876235961914,0.918664276599884
1772721652291130600,5.302130615234375,-1.669646143913269,-0.19204062223434448,1.3041199445724487
1772721652309726200,5.320726318359375,-1.4986040592193604,-0.16943861544132233,1.4101049900054932
1772721652328321500,5.339321533203125,-1.4176644086837769,0.44264790415763855,1.271133303642273
1772721652346916900,5.357916748046875,-1.2673916816711426,1.173547625541687,1.0735185146331787
1772721652365512400,5.376512451171875,-1.197142243385315,1.1136828660964966,1.1159735918045044
1772721652384107800,5.395107666015625,-1.2722786664962769,0.2349538654088974,1.370704174041748
1772721652402703000,5.413703125,-1.4246894121170044,-0.2018144577741623,1.0716859102249146
1772721652421298400,5.43229833984375,-1.6372703313827515,-0.09002619981765747,0.38385215401649475
1772721652439894000,5.45089404296875,-1.986685037612915,0.6023890376091003,-0.3699549734592438
1772721652458489300,5.4694892578125,-2.3425137996673584,1.443244457244873,-0.9673807621002197
1772721652477084700,5.488084716796875,-2.520580768585205,1.7963242530822754,-1.200120210647583
1772721652495680300,5.50668017578125,-2.5129449367523193,1.598404049873352,-1.0012837648391724
1772721652514275600,5.525275634765625,-2.2808163166046143,1.1002438068389893,-0.6026944518089294
1772721652532871000,5.543870849609375,-1.8483240604400635,0.8919389247894287,-0.2248746007680893
1772721652551466500,5.562466552734375,-1.5422807931900024,0.5742892622947693,-0.0755181610584259
1772721652570061800,5.581061767578125,-1.4469859600067139,0.09995274990797043,-0.1833357959985733
1772721652588657200,5.5996572265625,-1.5056289434432983,-0.8878155946731567,-0.3329976499080658
1772721652607252500,5.61825244140625,-1.9298745393753052,-1.139797329902649,-0.2926805913448334
1772721652625848000,5.63684814453125,-2.7233879566192627,-0.29161158204078674,-0.5309178233146667
1772721652644443400,5.655443359375,-2.9655957221984863,0.6872992515563965,-1.4591268301010132
1772721652663038700,5.674038818359375,-1.9387321472167969,0.6268236041069031,-1.7792199850082397
1772721652681634300,5.69263427734375,0.27656903862953186,-1.250669240951538,-0.6347648501396179
1772721652700229600,5.711229736328125,1.8645119667053223,-3.443979263305664,1.4427862167358398
1772721652718825000,5.729824951171875,1.7356195449829102,-3.421682596206665,2.5796055793762207
1772721652737420300,5.748420166015625,1.1614066362380981,-1.7827324867248535,2.194760799407959
1772721652756015900,5.767015869140625,0.735633909702301,-0.3603338599205017,1.4696643352508545
1772721652774611200,5.785611083984375,0.8147408962249756,-0.14805835485458374,1.0729076862335205
1772721652793206500,5.80420654296875,1.1461350917816162,-0.9122501611709595,1.2393683195114136
1772721652811802000,5.822802001953125,1.2646428346633911,-1.1071161031723022,1.5695407390594482
1772721652830397400,5.8413974609375,1.1992802619934082,-0.3975966274738312,1.7024037837982178
1772721652848992800,5.85999267578125,1.0618356466293335,0.37606361508369446,1.5417463779449463
1772721652867588000,5.878588134765625,0.7414371371269226,0.021151192486286163,1.5875612497329712
1772721652886183700,5.89718359375,0.5062541961669922,-0.38415759801864624,1.3212242126464844
1772721652904779000,5.915779052734375,0.366060733795166,0.2813795804977417,-0.13019055128097534
1772721652923374300,5.934374267578125,0.15745039284229279,1.2395210266113281,-1.9206352233886719
1772721652941970000,5.952969970703125,-0.20479241013526917,1.97805655002594,-2.678718328475952
1772721652960565200,5.971565185546875,-0.6727148294448853,2.466137409210205,-2.4588069915771484
1772721652979160600,5.99016064453125,-0.7032580971717834,3.0562329292297363,-1.5477023124694824
1772721652997756200,6.008756103515625,-0.1262962967157364,3.0843327045440674,-0.39561131596565247
1772721653016351500,6.0273515625,0.4653262495994568,2.3073127269744873,0.5432878732681274
1772721653034946800,6.04594677734375,0.5749764442443848,0.7160098552703857,0.9675334692001343
1772721653053542100,6.064542236328125,0.6855430006980896,-0.3820195496082306,0.6425533890724182
1772721653072137700,6.0831376953125,1.1433861255645752,-0.46173742413520813,-0.23220497369766235
1772721653090733000,6.101733154296875,1.254563570022583,-0.3362047076225281,-0.6326268315315247
1772721653109328400,6.120328369140625,0.6165152788162231,-0.46021026372909546,-0.10270164161920547
1772721653127923700,6.138923828125,0.10277800261974335,-0.3206276595592499,0.25068363547325134
1772721653146519300,6.157519287109375,0.0642935186624527,0.31894776225090027,-0.01259908638894558
1772721653165114600,6.176114501953125,0.3767508566379547,0.46891507506370544,-0.4976257085800171
1772721653183710000,6.1947099609375,0.6577486395835876,0.04069886729121208,-0.4802160859107971
1772721653202305500,6.213305419921875,0.9702059626579285,-0.5136609077453613,-0.08223766833543777
1772721653220900900,6.23190087890625,1.226463794708252,-0.9091958403587341,0.23083053529262543
1772721653239496200,6.25049609375,1.2961024045944214,-1.2717441320419312,0.30199626088142395
1772721653258091500,6.269091552734375,1.317482590675354,-1.4882956743240356,0.2213621288537979
1772721653276687000,6.28768701171875,1.3706278800964355,-1.4033855199813843,0.1807396113872528
1772721653295282400,6.306282470703125,1.2218822240829468,-1.1675916910171509,0.40370526909828186
1772721653313877800,6.324877685546875,0.7646499872207642,-0.5005273222923279,0.7262418866157532
1772721653332473300,6.343473388671875,0.4045451879501343,0.25847217440605164,0.7723621726036072
1772721653351068700,6.362068603515625,0.212733656167984,0.5397753715515137,0.5225184559822083
1772721653369664000,6.3806640625,0.12476912885904312,0.4191296100616455,0.05062541738152504
1772721653388259300,6.39925927734375,0.1360701322555542,0.47441285848617554,-0.6610320210456848
1772721653406855000,6.41785498046875,0.2503018379211426,0.6060542464256287,-1.2431862354278564
1772721653425450200,6.4364501953125,0.4482220411300659,0.6320159435272217,-1.3274855613708496
1772721653444045600,6.455045654296875,0.6656898856163025,0.48907360434532166,-1.0455714464187622
1772721653462641000,6.473640869140625,0.9414953589439392,0.36690065264701843,-0.7050142884254456
1772721653481236500,6.492236572265625,1.256090760231018,0.4157698452472687,-0.6353757381439209
1772721653499831800,6.510831787109375,1.532507061958313,0.6573668718338013,-0.7801506519317627
1772721653518427100,6.52942724609375,1.7273728847503662,0.5929206013679504,-0.9927316308021545
1772721653537022700,6.548022705078125,1.9249876737594604,0.2242637276649475,-1.1124610900878906
1772721653555618000,6.5666181640625,2.0389139652252197,-0.3762163519859314,-1.0107520818710327
1772721653574213400,6.58521337890625,2.3324344158172607,-0.7213549613952637,-0.30856308341026306
1772721653592808700,6.60380859375,2.5938844680786133,-1.1825578212738037,0.5805506110191345
1772721653611404300,6.622404296875,2.424980401992798,-1.4760783910751343,0.871016800403595
1772721653629999600,6.64099951171875,1.7285946607589722,-1.3975822925567627,0.4385245442390442
1772721653648595000,6.659594970703125,0.5847502946853638,-0.8349757790565491,-0.7957277297973633
1772721653667190300,6.678190185546875,-0.16325360536575317,0.2135736048221588,-1.9927172660827637
1772721653685785900,6.696785888671875,0.24999640882015228,1.1045198440551758,-1.931019902229309
1772721653704381200,6.715381103515625,1.2227985858917236,0.6598103046417236,-0.6115520000457764
1772721653722976500,6.7339765625,2.112523078918457,-0.7308233380317688,0.9879974126815796
1772721653741571800,6.75257177734375,2.2139267921447754,-1.834045171737671,2.1523056030273438
1772721653760167400,6.77116748046875,1.8800890445709229,-1.3862812519073486,2.527987480163574
1772721653778762800,6.7897626953125,1.6210824251174927,-0.10102175921201706,2.1596360206604004
1772721653797358000,6.808358154296875,1.4873030185699463,0.37606361508369446,1.7036255598068237
1772721653815953400,6.826953369140625,1.31870436668396,-0.11232276260852814,1.6620867252349854
1772721653834549000,6.845549072265625,1.1403318643569946,-0.44463321566581726,1.7201188802719116
1772721653853144300,6.864144287109375,1.0370956659317017,0.13385574519634247,1.5625157356262207
1772721653871739600,6.88273974609375,1.0994038581848145,0.8048906922340393,0.964784562587738
1772721653890335000,6.9013349609375,1.4072797298431396,1.0623701810836792,0.09552398324012756
1772721653908930600,6.9199306640625,1.7298163175582886,0.8372665643692017,-0.7825941443443298
1772721653927526000,6.93852587890625,1.9176572561264038,0.49823659658432007,-1.5232676267623901
1772721653946121200,6.957121337890625,2.1635303497314453,0.5791761875152588,-2.1594834327697754
1772721653964716500,6.975716552734375,2.489121198654175,0.9854012727737427,-2.326249361038208
1772721653983312100,6.99431201171875,2.551429510116577,1.0281617641448975,-2.06327223777771
1772721654001907500,7.012907470703125,2.210566997528076,0.8131373524665833,-1.3360376358032227
1772721654020502800,7.031502685546875,1.528230905532837,0.6488147377967834,-0.1430187225341797
1772721654039098000,7.05009814453125,1.1482731103897095,-0.09827287495136261,0.558254063129425
1772721654057693700,7.068693603515625,1.4301871061325073,-0.9543998837471008,0.3514763116836548
1772721654076289000,7.0872890625,2.0664029121398926,-1.0597740411758423,-0.21784965693950653
1772721654094884400,7.10588427734375,2.2362232208251953,-0.8526908755302429,-0.8103885054588318
1772721654113479700,7.124479736328125,1.6097813844680786,-0.47670361399650574,-1.0926079750061035
1772721654132075300,7.1430751953125,0.0902552679181099,-0.34384050965309143,-1.3513092994689941
1772721654150670600,7.161670654296875,-1.024267554283142,-0.3811032772064209,-1.3045780658721924
1772721654169266000,7.180265869140625,-0.7044798135757446,0.26244276762008667,-0.9747111201286316
1772721654187861200,7.198861328125,0.5902481079101562,0.418824166059494,-0.10086904466152191
1772721654206456800,7.217456787109375,1.6125303506851196,-0.6129264235496521,1.4659991264343262
1772721654225052000,7.236052001953125,1.8153374195098877,-1.3389391899108887,2.63030743598938
1772721654243647500,7.2546474609375,1.5419753789901733,-0.7338776588439941,2.726213216781616
1772721654262242800,7.273242919921875,1.282357931137085,0.16470441222190857,2.6632940769195557
1772721654280838100,7.291838134765625,1.1852303743362427,0.18119776248931885,2.9537603855133057
1772721654299433500,7.31043359375,1.041066288948059,-0.5845212340354919,3.5343873500823975
1772721654318029000,7.329029052734375,0.8324559926986694,-0.9971603751182556,3.8080546855926514
1772721654336624400,7.347624267578125,0.7661771774291992,-0.37316203117370605,3.0655484199523926
1772721654355219700,7.3662197265625,1.0416771173477173,0.9120974540710449,1.4519492387771606
1772721654373815000,7.38481494140625,1.1042908430099487,1.744706153869629,-0.4447859227657318
1772721654392410600,7.40341064453125,0.9237802624702454,1.8989495038986206,-1.672318696975708
1772721654411006000,7.422005859375,0.7557924389839172,1.099632978439331,-2.0696861743927
1772721654429601300,7.440601318359375,0.8541416525840759,0.6225475668907166,-2.515617609024048
1772721654448196600,7.459196533203125,1.0102176666259766,0.9047670960426331,-2.9117634296417236
1772721654466792000,7.4777919921875,0.9176716208457947,1.329928994178772,-2.9313108921051025
1772721654485387500,7.496387451171875,0.6327031850814819,1.3247365951538086,-2.4698026180267334
1772721654503982800,7.51498291015625,0.18096868693828583,0.8565087914466858,-1.9007821083068848
1772721654522578200,7.533578125,0.20479241013526917,0.24808746576309204,-1.7627266645431519
1772721654541173500,7.552173583984375,0.7405208349227905,-0.6227002739906311,-1.5012766122817993
1772721654559768800,7.570768798828125,1.1910336017608643,-1.5588505268096924,-0.8219949007034302
1772721654578364400,7.589364501953125,1.2496765851974487,-2.24179744720459,-0.17447824776172638
1772721654596959700,7.607959716796875,1.274111270904541,-2.4507131576538086,-0.22670719027519226
1772721654615555000,7.62655517578125,0.8495602011680603,-0.6159807443618774,-0.6573668718338013
1772721654634150400,7.645150390625,-0.0032070400193333626,1.3616939783096313,-1.6423863172531128
1772721654652746000,7.66374609375,-0.985783040523529,2.1933863162994385,-2.5876996517181396
1772721654671341300,7.68234130859375,-1.1516327857971191,1.5645010471343994,-1.7978514432907104
1772721654689936600,7.7009365234375,-0.26099199056625366,-0.24549128115177155,-0.08468113094568253
1772721654708532000,7.719531982421875,0.7973312735557556,-1.7989203929901123,1.1813361644744873
1772721654727127300,7.738127197265625,1.1556034088134766,-2.261955976486206,1.767460823059082
1772721654745723000,7.756722900390625,0.8177952170372009,-1.4773001670837402,1.7708206176757812
1772721654764318000,7.77531787109375,0.20418155193328857,-0.5084685683250427,1.5484658479690552
1772721654782913500,7.79391357421875,0.1357647031545639,-0.45104727149009705,1.4433971643447876
1772721654801508900,7.8125087890625,0.717307984828949,-1.0429753065109253,1.7234786748886108
1772721654820104200,7.831104248046875,1.3920080661773682,-1.353905439376831,1.923536777496338
1772721654838699500,7.849699462890625,1.7710497379302979,-0.7393754720687866,1.6239076852798462
1772721654857294800,7.868294921875,1.615279197692871,-0.05826122686266899,1.2146282196044922
1772721654875890400,7.886890380859375,1.075885534286499,0.014126247726380825,0.8514691591262817
1772721654894485800,7.90548583984375,0.6204859018325806,0.4704422354698181,0.048792824149131775
1772721654913081000,7.9240810546875,0.27840161323547363,1.0941351652145386,-0.9844849705696106
1772721654931676400,7.942676513671875,0.10888664424419403,1.4646246433258057,-1.6772055625915527
1772721654950271700,7.961271728515625,0.10399972647428513,1.8070143461227417,-1.9380449056625366
1772721654968867300,7.979867431640625,0.2188423126935959,1.792659044265747,-1.8711551427841187
1772721654987462700,7.998462646484375,0.31871870160102844,1.2587631940841675,-1.5907682180404663
1772721655006058000,8.01705810546875,0.44089165329933167,0.6488147377967834,-1.38735032081604
1772721655024653300,8.0356533203125,0.7405208349227905,0.23067781329154968,-1.25479257106781
1772721655043248600,8.05424853515625,1.0343468189239502,0.02237292192876339,-0.7667116522789001
1772721655061844000,8.072843994140625,0.8568905591964722,0.09995274990797043,0.15966477990150452
1772721655080439300,8.091439208984376,0.2735147178173065,0.061162836849689484,0.7076104879379272
1772721655099035000,8.110034912109375,-0.2643517255783081,-0.07231111824512482,0.3554469347000122
1772721655117630200,8.128630126953125,-0.7692314982414246,-0.36796966195106506,-0.41118836402893066
1772721655136225500,8.1472255859375,-1.3251184225082397,-0.1245400533080101,-1.1628574132919312
1772721655154820900,8.16582080078125,-1.8681771755218506,0.7218130826950073,-1.7324888706207275
1772721655173416200,8.184416259765625,-1.5386157035827637,1.0803906917572021,-1.735237717628479
1772721655192011500,8.203011474609376,-0.5245801210403442,-0.0576503649353981,-0.8986584544181824
1772721655210607000,8.221607177734375,0.42959064245224,-1.4974586963653564,0.4021781086921692
1772721655229202400,8.240202392578125,0.9344704151153564,-2.0567052364349365,1.326111078262329
1772721655247797800,8.2587978515625,0.9866993427276611,-1.3856704235076904,1.4110212326049805
1772721655266393000,8.27739306640625,0.8611665964126587,0.11064288020133972,1.0524436235427856
1772721655284988400,8.295988525390625,0.698676586151123,0.5788707137107849,0.8594104051589966
1772721655303583700,8.314583740234376,0.6229293346405029,0.24197880923748016,0.8102357983589172
1772721655322179300,8.333179443359375,0.7249437570571899,0.3158934414386749,0.6312524080276489
1772721655340774400,8.3517744140625,0.8462004065513611,0.3934732675552368,0.3972911834716797
1772721655359370000,8.370369873046876,1.0389282703399658,0.3107011020183563,0.13584105670452118
1772721655377965300,8.38896533203125,1.365130066871643,0.18608468770980835,-0.022067490965127945
1772721655396560600,8.407560546875,1.5914554595947266,0.059635672718286514,-0.037033677101135254
1772721655415156000,8.426156005859376,1.6012293100357056,0.095982126891613,-0.16042836010456085
1772721655433751300,8.444751220703125,1.4802781343460083,0.27343833446502686,-0.41699156165122986
1772721655452346600,8.4633466796875,1.4091123342514038,0.42768171429634094,-0.6805797219276428
1772721655470942000,8.48194189453125,1.3901755809783936,0.5773435831069946,-0.8925498127937317
1772721655489537500,8.50053759765625,1.3519964218139648,0.681801438331604,-0.8604794144630432
1772721655508132900,8.5191328125,1.1388046741485596,0.6613374948501587,-0.6882155537605286
1772721655526728200,8.537728271484376,0.9127846956253052,0.5361102223396301,-0.377285361289978
1772721655545323500,8.556323486328125,0.8190169334411621,-0.3856847584247589,-0.06727148592472076
1772721655563918800,8.5749189453125,1.207221508026123,-1.2317324876785278,-0.011988221667706966
1772721655582514200,8.59351416015625,1.5728241205215454,-1.767155408859253,-0.1320231556892395
1772721655601109500,8.612109619140625,1.3724604845046997,-1.9443062543869019,0.015806125476956367
1772721655619704800,8.630704833984375,0.5248855352401733,-1.6214642524719238,0.49258607625961304
1772721655638300200,8.649300048828126,-0.7841976881027222,-0.9253838062286377,0.28092142939567566
1772721655656895700,8.667895751953125,-1.631772518157959,0.41302093863487244,-0.5345830321311951
1772721655675491000,8.686490966796875,-1.3813179731369019,1.2636501789093018,-0.6781362891197205
1772721655694086400,8.70508642578125,-0.5346593856811523,0.4753291606903076,0.24182608723640442
1772721655712681700,8.723681640625,0.052076224237680435,-0.974558413028717,1.3911681175231934
1772721655731277000,8.742277099609375,-0.04505127668380737,-1.352683663368225,1.8120540380477905
1772721655749872400,8.760872314453126,-0.4353938698768616,-0.32307112216949463,1.2552508115768433
1772721655768467700,8.7794677734375,-0.653167188167572,1.3057998418807983,0.483423113822937
1772721655787063300,8.798063232421875,-0.4610501825809479,2.0791547298431396,0.2745073735713959
1772721655805658400,8.816658447265626,0.022754713892936707,1.4386628866195679,0.7766382098197937
1772721655824254000,8.83525390625,0.49250972270965576,0.28809911012649536,1.4492002725601196
1772721655842849300,8.853849365234375,0.8165735006332397,-0.5686387419700623,1.697516918182373
1772721655861444600,8.872444580078126,0.9512691497802734,-0.7861065864562988,1.3398555517196655
1772721655880040000,8.8910400390625,0.8590285778045654,-0.5283216834068298,0.6575195789337158
1772721655898635300,8.90963525390625,0.5590940117835999,-0.1352301836013794,0.06925679743289948
1772721655917230600,8.928230712890626,0.18310672044754028,0.05413788929581642,-0.32078036665916443
1772721655935826000,8.946825927734375,-0.017256930470466614,0.23281583189964294,-0.6033053398132324
1772721655954421200,8.965421142578125,-0.022754713892936707,0.516257107257843,-0.8039743900299072
1772721655973016800,8.984016845703126,0.13240493834018707,0.7993929386138916,-0.9182060956954956
1772721655991612000,9.00261181640625,0.4402807950973511,0.9295071363449097,-0.8045852780342102
1772721656010207200,9.021207275390625,0.6537780165672302,0.6045270562171936,-0.4151589870452881
1772721656028802800,9.039802734375,0.6837103962898254,-0.08086322247982025,-0.06482802331447601
1772721656047398100,9.058398193359375,0.7392991185188293,-0.3811032772064209,0.13217586278915405
1772721656065993500,9.076993408203125,0.7157807946205139,-0.35300347208976746,0.11629338562488556
1772721656084588800,9.0955888671875,0.30253079533576965,-0.6911171674728394,-0.12316560745239258
1772721656103184100,9.11418408203125,-0.27779075503349304,-0.2833648920059204,0.0029779658652842045
1772721656121779500,9.132779541015625,-0.8868229389190674,0.023594651371240616,0.36308276653289795
1772721656140374800,9.151374755859376,-1.5147919654846191,-0.20761767029762268,0.2632063627243042
1772721656158970000,9.16997021484375,-1.957363486289978,-0.17982332408428192,-0.23403756320476532
1772721656177565400,9.1885654296875,-2.064875602722168,0.21479532122612,-0.6872992515563965
1772721656196160800,9.207160888671876,-1.8968878984451294,0.2865719497203827,-0.7175370454788208
1772721656214756000,9.225756103515625,-1.4463751316070557,0.6222421526908875,-0.06330086290836334
1772721656233351400,9.244351318359374,-0.9992220401763916,0.6207149624824524,0.9644791483879089
1772721656251946800,9.26294677734375,-0.7121156454086304,0.5031235218048096,1.7082070112228394
1772721656270542300,9.281542236328125,-0.5939132571220398,0.5107592940330505,1.9479714632034302
1772721656289137700,9.3001376953125,-0.6281217336654663,0.3067304790019989,1.6608649492263794
1772721656307732700,9.318732666015626,-0.5111411213874817,0.24900375306606293,0.8209258913993835
1772721656326328300,9.337328369140625,-0.2444986253976822,0.34429866075515747,-0.1476002037525177
1772721656344923600,9.355923583984374,-0.001679878099821508,0.2795470058917999,-0.7169261574745178
1772721656363519000,9.37451904296875,0.25579962134361267,0.26824599504470825,-0.6686678528785706
1772721656382114300,9.3931142578125,0.502894401550293,0.021456625312566757,-0.1369100660085678
1772721656400709600,9.411709716796874,0.5862774848937988,-0.42019861936569214,0.43974629044532776
1772721656419305000,9.430304931640626,0.5899426341056824,-0.6596575975418091,0.6251437664031982
1772721656437900300,9.448900390625,0.6085740327835083,-0.5240456461906433,0.3456731140613556
1772721656456495600,9.46749560546875,0.6067414283752441,-0.1611919403076172,-0.19585852324962616
1772721656475091000,9.486091064453126,0.6195695996284485,0.09934188425540924,-0.5971966981887817
1772721656493686300,9.504686279296875,0.5645917654037476,-0.008781181648373604,-0.6845503449440002
1772721656512281600,9.523281494140624,0.2851211428642273,-0.3707185685634613,-0.774042010307312
1772721656530877000,9.541876953125,0.02306014485657215,-0.23327398300170898,-0.9582177400588989
1772721656549472300,9.56047216796875,-0.14248420298099518,0.00679587060585618,-0.9237039089202881
1772721656568067600,9.579067626953124,0.01511890348047018,-0.5032762289047241,-0.8888846039772034
1772721656586663000,9.597662841796875,0.07712167501449585,-0.6052906513214111,-0.7981712222099304
1772721656605258200,9.61625830078125,-0.30283620953559875,-0.4837285578250885,-0.644844114780426
1772721656623853600,9.634853515625,-0.1815795600414276,-0.3493382930755615,-0.5602393746376038
1772721656642449000,9.653448974609375,0.3730856776237488,-0.15416699647903442,-0.3427715003490448
1772721656661044200,9.672044189453125,0.7243329286575317,0.07643445581197739,0.21555891633033752
1772721656679639600,9.6906396484375,0.6666061878204346,-0.08544471114873886,0.6459131240844727
1772721656698235000,9.70923486328125,0.4964803457260132,-0.22044582664966583,0.6996692419052124
1772721656716830500,9.72783056640625,0.18585561215877533,-0.3365101218223572,0.6828704476356506
1772721656735425800,9.74642578125,-0.2136499583721161,-0.043600473552942276,0.42050403356552124
1772721656754020900,9.765020751953125,-0.3761399984359741,0.7123447060585022,-0.021456625312566757
1772721656772616200,9.7836162109375,-0.28267768025398254,1.2059234380722046,-0.2202931046485901
1772721656791211500,9.80221142578125,-0.13240493834018707,0.9331722855567932,0.026190826669335365
1772721656809807000,9.82080712890625,0.16875138878822327,0.4508945643901825,0.4223366379737854
1772721656828402400,9.83940234375,0.5395463109016418,0.03611737862229347,0.8010727763175964
1772721656846997800,9.857997802734374,0.8150463104248047,-0.10713040828704834,0.9812778830528259
1772721656865593000,9.876593017578125,0.9170607328414917,0.0058795735239982605,0.9376010894775391
1772721656884188200,9.895188232421875,0.8895718455314636,0.10514509677886963,0.7366265654563904
1772721656902783500,9.913783447265626,0.7533490061759949,0.14454588294029236,0.40950846672058105
1772721656921379000,9.932379150390625,0.5157225728034973,0.1983019858598709,-0.08345939964056015
1772721656939974400,9.950974365234375,0.32299473881721497,0.4918225109577179,-0.581008791923523
1772721656958569700,9.96956982421875,0.14217877388000488,0.6787471175193787,-0.8907172083854675
1772721656977165000,9.9881650390625,0.07834340631961823,0.8021417856216431,-0.9456950426101685
1772721656995760000,10.006760009765625,0.16478078067302704,0.8042798638343811,-0.6427060961723328
1772721657014355500,10.02535546875,0.18127411603927612,0.25847217440605164,-0.3134499788284302
1772721657032951000,10.043950927734375,0.2380845546722412,-0.4067595899105072,-0.21754421293735504
1772721657051546400,10.06254638671875,0.383470356464386,-0.6260600686073303,-0.06727148592472076
1772721657070141700,10.0811416015625,0.3984365463256836,-0.6343067288398743,0.23144139349460602
1772721657088737000,10.099737060546875,0.11194097250699997,-0.43608108162879944,0.2738964855670929
1772721657107332400,10.118332275390625,-0.17394374310970306,-0.6248382925987244,-0.22120940685272217
1772721657125927400,10.136927490234376,-0.31841325759887695,-1.1550689935684204,-0.9902881383895874
1772721657144522800,10.155522705078125,-0.39049530029296875,-0.9443206191062927,-1.2685370445251465
1772721657163118300,10.174118408203125,-0.531605064868927,-0.19478951394557953,-0.997618556022644
1772721657181713700,10.192713623046876,-0.6323977708816528,0.544051468372345,-0.7914516925811768
1772721657200309000,10.21130908203125,-0.559399425983429,0.9215658903121948,-0.6564505696296692
1772721657218904300,10.229904296875,-0.46227192878723145,0.812221109867096,-0.42279478907585144
1772721657237499600,10.248499755859376,-0.2646571695804596,0.3372737169265747,-0.13660463690757751
1772721657256094700,10.2670947265625,0.10613775253295898,-0.007864884100854397,0.027107125148177147
1772721657274690000,10.28568994140625,0.5163334608078003,-0.023441936820745468,0.0475710928440094
1772721657293285400,10.304285400390626,0.8119919896125793,0.18639011681079865,0.0784197673201561
1772721657311881000,10.322880859375,0.9640973210334778,0.3690386712551117,0.23907721042633057
1772721657330476300,10.341476318359375,0.9619593024253845,0.25297439098358154,0.502359926700592
1772721657349071600,10.360071533203126,0.873994767665863,-0.08116865903139114,0.7167734503746033
1772721657367667000,10.3786669921875,0.781143307685852,-0.5692496299743652,0.7350993752479553
1772721657386262000,10.397261962890624,0.6702713966369629,-0.917137086391449,0.5066359639167786
1772721657404857300,10.415857421875,0.5120574235916138,-1.0579414367675781,0.10682497918605804
1772721657423452700,10.43445263671875,0.31230461597442627,-1.019762396812439,-0.30856308341026306
1772721657442048000,10.453048095703124,0.13545925915241241,-0.8383355736732483,-0.6604211926460266
1772721657460643300,10.471643310546876,-0.019700389355421066,-0.5335140228271484,-0.7862593531608582
1772721657479238700,10.49023876953125,-0.11713331937789917,-0.5521454215049744,-0.6787471175193787
1772721657497834000,10.508833984375,-0.08170316368341446,-0.5814669132232666,-0.44386962056159973
1772721657516429300,10.52742919921875,0.43050694465637207,-0.9082795977592468,-0.06788235157728195
1772721657535024600,10.546024658203125,1.1110103130340576,-1.9146792888641357,0.3560578227043152
1772721657553620000,10.564619873046874,1.0984876155853271,-2.063730239868164,0.6294198036193848
1772721657572215300,10.58321533203125,0.808937668800354,-1.0518327951431274,0.48189595341682434
1772721657590810600,10.601810546875,0.4231765866279602,-0.678288996219635,-0.27832525968551636
1772721657609406000,10.620406005859374,-0.1617264449596405,-0.2644280791282654,-0.9224821925163269
1772721657628001300,10.639001220703125,-0.42959064245224,0.26427537202835083,-1.0461822748184204
1772721657646596600,10.6575966796875,-0.7270817756652832,0.51564621925354,-1.0501528978347778
1772721657665192000,10.67619189453125,-1.0997092723846436,0.49884745478630066,-0.977154552936554
1772721657683787300,10.694787353515625,-1.3810125589370728,0.33055421710014343,-0.6970730423927307
1772721657702382600,10.713382568359375,-1.3373357057571411,0.24686573445796967,-0.08009964227676392
1772721657720978000,10.73197802734375,-0.9708168506622314,0.4817432463169098,0.6416370868682861
1772721657739573200,10.7505732421875,-0.4378373324871063,0.6753873825073242,1.0051016807556152
1772721657758168600,10.76916845703125,-0.03436114266514778,0.8244383931159973,0.7583122849464417
1772721657776764000,10.787763916015624,-0.15928299725055695,0.8375719785690308,0.08116865903139114
1772721657795359200,10.806359130859375,-0.2735147178173065,0.7126501202583313,-0.487546443939209
1772721657813954300,10.824954345703125,-0.228921577334404,0.8326850533485413,-0.7260891199111938
1772721657832549600,10.843549560546874,-0.17424917221069336,1.0012837648391724,-0.609108567237854
1772721657851145000,10.86214501953125,-0.1262962967157364,0.7254782915115356,-0.2560287117958069
1772721657869740300,10.880740234375,-0.10949750989675522,0.2813795804977417,0.24579671025276184
1772721657888335600,10.899335693359374,-0.10461059212684631,0.19616395235061646,0.7488438487052917
1772721657906931000,10.917930908203125,0.0746782198548317,0.22365286946296692,0.9168316721916199
1772721657925526300,10.9365263671875,0.187382772564888,0.2599993348121643,0.6969203352928162
1772721657944121600,10.95512158203125,0.21945317089557648,0.18669554591178894,0.41867145895957947
1772721657962717000,10.973717041015625,0.18463388085365295,0.15615230798721313,0.29222244024276733
1772721657981312300,10.992312255859375,0.04260781779885292,0.1268308013677597,0.24518585205078125
1772721657999907600,11.010907470703126,-0.1406516134738922,0.1014799103140831,0.19387321174144745
1772721658018503000,11.0295029296875,-0.25702136754989624,-0.04696023091673851,0.10651954263448715
1772721658037098200,11.04809814453125,-0.2176205813884735,-0.2574031352996826,0.014889828860759735
1772721658055693600,11.066693603515626,-0.17424917221069336,-0.0888044685125351,-0.21113014221191406
1772721658074288600,11.08528857421875,-0.20112723112106323,0.06177370250225067,-0.3116174042224884
