time,seconds_elapsed,z,y,x
1772721073175948500,0.083948486328125,0,0,0
1772721073194544600,0.102544677734375,-0.23215675354003906,0.13534286618232727,-0.049976035952568054
1772721073213140700,0.121140625,-0.32822418212890625,0.20907127857208252,-0.06454421579837799
1772721073231736800,0.13973681640625,-0.15970420837402344,0.20734059810638428,-0.17018195986747742
1772721073250333000,0.1583330078125,0.18451976776123047,0.08175194263458252,-0.2078852355480194
1772721073268929000,0.176928955078125,0.5591449737548828,-0.12918412685394287,-0.21100397408008575
1772721073287525000,0.195525146484375,0.5737791061401367,-0.27666687965393066,-0.20224231481552124
1772721073306121200,0.214121337890625,0.06821537017822266,-0.26939916610717773,-0.1045149564743042
1772721073324717300,0.23271728515625,-0.4790658950805664,-0.13467365503311157,0.00805981457233429
1772721073343313400,0.2513134765625,-0.678898811340332,0.03037649393081665,0.15927152335643768
1772721073361909500,0.269909423828125,-0.49044322967529297,0.11691123247146606,0.31120866537094116
1772721073380505600,0.288505615234375,-0.10982322692871094,0.06230294704437256,0.3906267285346985
1772721073399101700,0.307101806640625,0.39991092681884766,-0.05061960220336914,0.38330137729644775
1772721073417697800,0.32569775390625,0.9772500991821289,-0.15264838933944702,0.42174410820007324
1772721073436294000,0.3442939453125,1.2674903869628906,-0.27267545461654663,0.4236384332180023
1772721073454890000,0.362889892578125,1.0192251205444336,-0.3540952205657959,0.26657137274742126
1772721073473486000,0.381486083984375,0.3273916244506836,-0.34688031673431396,-0.051568374037742615
1772721073492082200,0.400082275390625,-0.4982595443725586,-0.22630059719085693,-0.42288848757743835
1772721073510678300,0.41867822265625,-1.2780466079711914,0.018714070320129395,-0.7115009427070618
1772721073529274400,0.4372744140625,-1.708547592163086,0.2597235441207886,-0.6459646224975586
1772721073547870500,0.455870361328125,-1.1288976669311523,0.25042736530303955,0.005218047648668289
1772721073566466600,0.474466552734375,-0.082916259765625,0.12456798553466797,0.27708980441093445
1772721073585062700,0.493062744140625,0.599334716796875,0.11642265319824219,-0.020731836557388306
1772721073603658800,0.51165869140625,0.5011425018310547,0.09612530469894409,-0.4192570447921753
1772721073622254600,0.530254638671875,0.24513626098632812,0.13742530345916748,-0.39987170696258545
1772721073640851000,0.548850830078125,0.20929431915283203,-0.15763264894485474,-0.33033987879753113
1772721073659446800,0.56744677734375,0.5872125625610352,-0.41865673661231995,0.23445475101470947
1772721073678043100,0.586043212890625,0.5869178771972656,-0.4121705889701843,0.615685224533081
1772721073696639000,0.604638916015625,0.3244190216064453,-0.305030882358551,0.8678712844848633
1772721073715235000,0.623235107421875,-0.06748676300048828,-0.3686492443084717,0.9791793823242188
1772721073733831200,0.6418310546875,-0.44484806060791016,-0.4732540249824524,0.7419553995132446
1772721073752427300,0.66042724609375,-0.8297958374023438,-0.5174386501312256,0.5961065292358398
1772721073771023400,0.6790234375,-1.125143051147461,-0.4441123604774475,0.7145044803619385
1772721073789619500,0.697619384765625,-1.1201066970825195,-0.37559986114501953,0.9416041970252991
1772721073808215600,0.716215576171875,-0.5095500946044922,-0.2130049467086792,0.9933581948280334
1772721073826811600,0.734811767578125,0.3552122116088867,0.009591221809387207,0.8676228523254395
1772721073845407700,0.75340771484375,0.949798583984375,0.30462104082107544,0.7368897199630737
1772721073864003800,0.77200390625,1.2809906005859375,0.6554275155067444,0.6928197145462036
1772721073882600000,0.790599853515625,1.4144020080566406,0.9616369009017944,0.8123856782913208
1772721073901196000,0.809196044921875,1.431401252746582,1.0972695350646973,0.9170422554016113
1772721073919791900,0.8277919921875,1.4257316589355469,1.1361093521118164,0.8756803274154663
1772721073938388200,0.84638818359375,1.1745738983154297,1.1481659412384033,0.7710012197494507
1772721073956984000,0.864984130859375,0.6726865768432617,1.1572834253311157,0.5822110176086426
1772721073975580200,0.883580078125,0.1498117446899414,1.0392327308654785,0.37451767921447754
1772721073994176300,0.90217626953125,-0.08912467956542969,0.8320533037185669,0.008097685873508453
1772721074012772400,0.9207724609375,-0.21199893951416016,0.45044052600860596,-0.27836790680885315
1772721074031368400,0.939368408203125,-0.5912370681762695,0.21417772769927979,-0.5160709619522095
1772721074049964500,0.957964599609375,-1.0688066482543945,0.08408474922180176,-0.6976854801177979
1772721074068560600,0.976560546875,-1.2519817352294922,-0.03907144069671631,-0.7883518934249878
1772721074087156700,0.99515673828125,-1.147334098815918,-0.15573549270629883,-0.7298605442047119
1772721074105752800,1.0137529296875,-1.0807514190673828,-0.16882455348968506,-0.22881826758384705
1772721074124349000,1.032348876953125,-1.2183055877685547,0.0013017654418945312,0.2707599401473999
1772721074142945000,1.050945068359375,-1.231245994567871,0.12001609802246094,0.7568103671073914
1772721074161540900,1.069540771484375,-0.9818506240844727,0.2516591548919678,0.9493691921234131
1772721074180137200,1.08813720703125,-0.4715747833251953,0.3495525121688843,0.8195782899856567
1772721074198733000,1.106733154296875,-0.060817718505859375,0.4871944189071655,0.5374491810798645
1772721074217329200,1.1253291015625,0.38341426849365234,0.7038659453392029,0.2860659956932068
1772721074235925200,1.14392529296875,0.7127399444580078,0.9245537519454956,0.15777823328971863
1772721074254521300,1.162521240234375,0.7285118103027344,1.1322779655456543,0.10205069184303284
1772721074273117400,1.181117431640625,0.5634031295776367,1.3193254470825195,0.14975109696388245
1772721074291713500,1.199713623046875,0.289215087890625,1.4494554996490479,0.20723578333854675
1772721074310309600,1.2183095703125,0.10790348052978516,1.4751286506652832,0.16743862628936768
1772721074328905700,1.23690576171875,0.28604888916015625,1.3908344507217407,-0.1888774335384369
1772721074347501600,1.25550146484375,0.8453254699707031,1.272531509399414,-0.3767326772212982
1772721074366097700,1.27409765625,1.3710823059082031,1.1863465309143066,-0.038915276527404785
1772721074384693800,1.29269384765625,1.4384794235229492,1.1598689556121826,0.6128472089767456
1772721074403289900,1.311289794921875,0.9361953735351562,1.1228382587432861,1.4340120553970337
1772721074421886000,1.329885986328125,0.2041940689086914,0.8671296834945679,1.689544439315796
1772721074440482000,1.34848193359375,-0.2860231399536133,0.4935786724090576,1.1444932222366333
1772721074459078100,1.367078125,-0.20796775817871094,0.0998762845993042,0.3866754472255707
1772721074477674200,1.38567431640625,0.49892330169677734,-0.2152853012084961,-0.04624718427658081
1772721074496270300,1.404270263671875,1.513962745666504,-0.3227881193161011,-0.2144784927368164
1772721074514866200,1.4228662109375,2.029341697692871,-0.3562723398208618,-0.1836947798728943
1772721074533462300,1.441462158203125,1.7288379669189453,-0.4388916492462158,-0.10019135475158691
1772721074552058400,1.460058349609375,0.7072019577026367,-0.5288380980491638,-0.06836932897567749
1772721074570654500,1.478654541015625,-0.5164642333984375,-0.679335355758667,0.003525853157043457
1772721074589250600,1.49725048828125,-1.4153175354003906,-0.8237515687942505,0.1767783761024475
1772721074607846700,1.5158466796875,-1.5557851791381836,-1.0546112060546875,0.3323991000652313
1772721074626442800,1.53444287109375,-1.2149457931518555,-1.2341012954711914,0.276287704706192
1772721074645038800,1.553038818359375,-0.9399204254150391,-1.3496558666229248,0.12991249561309814
1772721074663634700,1.571634765625,-0.8890848159790039,-1.4511914253234863,0.02073603868484497
1772721074682230800,1.590230712890625,-1.021841049194336,-1.5340086221694946,-0.23065996170043945
1772721074700827000,1.608826904296875,-1.0281000137329102,-1.6465073823928833,-0.6092541813850403
1772721074719423000,1.627423095703125,-0.8332767486572266,-1.7298693656921387,-0.8684974312782288
1772721074738019000,1.64601904296875,-0.556640625,-1.719576358795166,-1.0274183750152588
1772721074756615200,1.664615234375,-0.25142765045166016,-1.6044938564300537,-1.101816177368164
1772721074775211300,1.683211181640625,0.20173168182373047,-1.5008959770202637,-1.1177209615707397
1772721074793807000,1.70180712890625,0.4821958541870117,-1.3935387134552002,-1.205779790878296
1772721074812403200,1.7204033203125,0.3835868835449219,-1.2004399299621582,-1.0905194282531738
1772721074830999300,1.738999267578125,0.13387680053710938,-0.924553632736206,-0.701873779296875
1772721074849595400,1.757595458984375,0.04157733917236328,-0.7676386833190918,-0.4499772787094116
1772721074868191500,1.77619140625,-0.15326976776123047,-0.7413921356201172,-0.5623881816864014
1772721074886787600,1.79478759765625,-0.3264179229736328,-0.7288457155227661,-0.7576217651367188
1772721074905383700,1.8133837890625,-0.31801795959472656,-0.6849625110626221,-0.7972503900527954
1772721074923979500,1.8319794921875,-0.2779855728149414,-0.5593006610870361,-0.7121515274047852
1772721074942575600,1.85057568359375,-0.14357948303222656,-0.41309940814971924,-0.5204278230667114
1772721074961171700,1.869171630859375,0.2074422836303711,-0.2785058617591858,-0.3565133810043335
1772721074979767800,1.887767822265625,0.446990966796875,-0.21857568621635437,-0.4123915433883667
1772721074998364000,1.906364013671875,0.5146846771240234,-0.17691487073898315,-0.5159286260604858
1772721075016960000,1.9249599609375,0.31333351135253906,-0.09981423616409302,-0.5386788845062256
1772721075035555800,1.943555908203125,0.0010538101196289062,0.032795339822769165,-0.4206576347351074
1772721075054152000,1.96215185546875,-0.20032787322998047,0.157382994890213,-0.2599148750305176
1772721075072748000,1.980748046875,-0.24452781677246094,0.21782079339027405,-0.12294638156890869
1772721075091344100,1.99934423828125,-0.2779417037963867,0.2912442982196808,0.042691707611083984
1772721075109940200,2.017940185546875,-0.2782297134399414,0.36445531249046326,0.2129971981048584
1772721075128536300,2.036536376953125,-0.2862367630004883,0.3919755518436432,0.26082515716552734
1772721075147132400,2.05513232421875,-0.2486572265625,0.4770413041114807,0.26830267906188965
1772721075165728300,2.073728271484375,-0.2129230499267578,0.6075181365013123,0.263718843460083
1772721075184324400,2.092324462890625,-0.10265350341796875,0.6934297680854797,0.26988303661346436
1772721075202920400,2.11092041015625,0.012086868286132812,0.6672723889350891,0.12188482284545898
1772721075221516500,2.1295166015625,0.18016910552978516,0.6149489283561707,-0.17308199405670166
1772721075240112600,2.148112548828125,0.35619544982910156,0.5956321954727173,-0.467631459236145
1772721075258708500,2.16670849609375,0.41791629791259766,0.6055945754051208,-0.7461707592010498
1772721075277304600,2.1853046875,0.40273189544677734,0.6153801679611206,-0.8135251998901367
1772721075295900700,2.203900634765625,0.18230819702148438,0.599879264831543,-0.6528847217559814
1772721075314496800,2.222496826171875,-0.28914546966552734,0.4934619069099426,-0.418296217918396
1772721075333092900,2.2410927734375,-0.7127399444580078,0.4041842222213745,-0.19803130626678467
1772721075351689000,2.25968896484375,-0.5330963134765625,0.25345736742019653,-0.027077198028564453
1772721075370284800,2.278284912109375,0.19446945190429688,-0.06020212173461914,0.012552976608276367
1772721075388881000,2.296880859375,0.7266340255737305,-0.4446094036102295,0.03729689121246338
1772721075407477000,2.31547705078125,0.8055219650268555,-0.7810559868812561,0.23676526546478271
1772721075426073000,2.334072998046875,0.6014108657836914,-0.9977088570594788,0.39944326877593994
1772721075444669200,2.352669189453125,0.4278230667114258,-1.1263012886047363,0.3146871328353882
1772721075463265000,2.37126513671875,0.641448974609375,-1.0715296268463135,0.12148857116699219
1772721075481861000,2.389861083984375,1.1479454040527344,-0.9225600361824036,0.057640910148620605
1772721075500457200,2.408457275390625,1.6888160705566406,-0.8416486978530884,0.07550966739654541
1772721075519053300,2.42705322265625,1.5425596237182617,-0.9268170595169067,0.02457118034362793
1772721075537649400,2.4456494140625,0.7377357482910156,-1.0423815250396729,-0.05312967300415039
1772721075556245200,2.464245361328125,-0.2127704620361328,-1.1294643878936768,-0.09239113330841064
1772721075574841300,2.48284130859375,-0.9022922515869141,-1.212412714958191,-0.1964719295501709
1772721075593437400,2.5014375,-1.3897714614868164,-1.314174771308899,-0.3094390630722046
1772721075612033500,2.520033447265625,-1.6904573440551758,-1.456304907798767,-0.34497129917144775
1772721075630629400,2.53862939453125,-1.6996803283691406,-1.5955246686935425,-0.2262876033782959
1772721075649225500,2.5572255859375,-1.666459083557129,-1.6752969026565552,-0.04756641387939453
1772721075667821600,2.575821533203125,-1.4486875534057617,-1.6273587942123413,0.2425473928451538
1772721075686417700,2.594417724609375,-0.8763971328735352,-1.4705610275268555,0.8941380977630615
1772721075705013800,2.613013671875,-0.22753047943115234,-1.2798861265182495,1.734982967376709
1772721075723609600,2.631609619140625,0.5677728652954102,-0.9548598527908325,2.556246280670166
1772721075742205700,2.650205810546875,1.5045089721679688,-0.5659701824188232,2.989927053451538
1772721075760801800,2.6688017578125,2.3959951400756836,-0.280567467212677,2.6912331581115723
1772721075779398000,2.68739794921875,3.0645008087158203,-0.15315645933151245,2.09128737449646
1772721075797994000,2.705993896484375,3.1229171752929688,-0.10693103075027466,1.3021775484085083
1772721075816589800,2.72458984375,2.571721076965332,-0.028191864490509033,0.4335581064224243
1772721075835186000,2.74318603515625,1.8533315658569336,0.014542162418365479,-0.12968969345092773
1772721075853782000,2.761781982421875,1.0954055786132812,0.051305294036865234,-0.36625659465789795
1772721075872378000,2.780378173828125,0.34116172790527344,0.047536611557006836,-0.2464463710784912
1772721075890974000,2.798973876953125,-0.3410625457763672,0.05761158466339111,0.1059255599975586
1772721075909570000,2.817570068359375,-0.8593568801879883,0.03174018859863281,0.5825213193893433
1772721075928166100,2.836166259765625,-1.3005189895629883,-0.0526585578918457,0.8547786474227905
1772721075946762200,2.85476220703125,-1.5853958129882812,-0.1759265661239624,0.7644460797309875
1772721075965358300,2.8733583984375,-1.5695075988769531,-0.22917747497558594,0.4932056665420532
1772721075983954200,2.8919541015625,-1.4148359298706055,-0.14892685413360596,0.30791598558425903
1772721076002550300,2.91055029296875,-1.2924432754516602,0.01845371723175049,0.08563333749771118
1772721076021146400,2.929146484375,-1.0696353912353516,0.21589481830596924,-0.1307835578918457
1772721076039742500,2.947742431640625,-0.7651767730712891,0.47660863399505615,-0.04883146286010742
1772721076058338600,2.966338623046875,-0.524444580078125,0.798892617225647,0.35893839597702026
1772721076076934400,2.984934326171875,-0.33040618896484375,1.100253939628601,0.8492172360420227
1772721076104828400,3.012828369140625,-0.25438404083251953,1.532232403755188,1.5719685554504395
1772721076123424500,3.031424560546875,-0.24430561065673828,1.4453530311584473,1.1249043941497803
1772721076142020600,3.0500205078125,0.1252422332763672,1.2433568239212036,0.6242534518241882
1772721076160616700,3.06861669921875,0.30851173400878906,1.0522609949111938,0.45008188486099243
1772721076179212500,3.087212646484375,0.069671630859375,0.8702832460403442,0.5387046933174133
1772721076197808600,3.10580859375,-0.09102630615234375,0.9308551549911499,0.7914347648620605
1772721076216404700,3.12440478515625,-0.30778980255126953,0.9281196594238281,1.153944492340088
1772721076235000800,3.143000732421875,-0.3997001647949219,0.8318438529968262,1.3075571060180664
1772721076253596700,3.1615966796875,-0.16156387329101562,0.6447649002075195,1.458322525024414
1772721076272192800,3.18019287109375,0.32399463653564453,0.43801093101501465,1.3274688720703125
1772721076290788900,3.198788818359375,0.8984098434448242,0.3721717596054077,0.845320999622345
1772721076309384700,3.217384765625,1.3243474960327148,0.41145193576812744,0.3757246732711792
1772721076327980800,3.235980712890625,1.6553707122802734,0.36959308385849,-0.16708040237426758
1772721076346577000,3.254576904296875,1.7224540710449219,0.11068516969680786,-0.7083063125610352
1772721076365173000,3.273173095703125,2.4055566787719727,-0.12566149234771729,-0.7519180774688721
1772721076383769000,3.29176904296875,3.064833641052246,-0.3392990231513977,-0.5707180500030518
1772721076402365000,3.310364990234375,1.9240007400512695,-0.7665773034095764,-0.2994266748428345
1772721076420961000,3.3289609375,0.03447914123535156,-1.3707797527313232,0.15540289878845215
1772721076439557000,3.34755712890625,-1.7888202667236328,-1.7428185939788818,0.3827601671218872
1772721076458153000,3.366153076171875,-2.7952346801757812,-2.09773850440979,0.6422697305679321
1772721076476749000,3.3847490234375,-2.4176793098449707,-2.1210789680480957,0.8643006086349487
1772721076495345200,3.40334521484375,-1.8200702667236328,-1.9754915237426758,0.9933461546897888
1772721076513941200,3.421941162109375,-0.9051246643066406,-1.9489679336547852,0.824013888835907
1772721076532537000,3.440537109375,-0.5398073196411133,-2.084566593170166,0.5519925355911255
1772721076551133200,3.45913330078125,-1.0929059982299805,-2.2099416255950928,-0.17078018188476562
1772721076569729300,3.477729248046875,-1.515955924987793,-2.247955799102783,-1.065786600112915
1772721076588325000,3.4963251953125,-1.639939308166504,-2.356567144393921,-1.6466270685195923
1772721076606921200,3.514921142578125,-1.4035844802856445,-2.4136648178100586,-1.982548713684082
1772721076625517300,3.533517333984375,-0.7371206283569336,-2.302955150604248,-1.7857856750488281
1772721076644113400,3.552113525390625,0.3870983123779297,-1.9562337398529053,-1.218363642692566
1772721076662709500,3.57070947265625,1.270890235900879,-1.4533376693725586,-1.0146335363388062
1772721076681305300,3.589305419921875,2.3663625717163086,-1.0421522855758667,-0.770313024520874
1772721076699901400,3.6079013671875,3.380539894104004,-1.1313328742980957,-0.33057522773742676
1772721076718497500,3.62649755859375,2.889852523803711,-1.4808989763259888,-0.19945693016052246
1772721076737093400,3.64509326171875,1.1707916259765625,-1.7065041065216064,-0.11086857318878174
1772721076755689500,3.663689453125,-0.3247842788696289,-1.5882139205932617,0.33810460567474365
1772721076774285600,3.68228564453125,-1.2240571975708008,-1.347062110900879,0.5748815536499023
1772721076792881700,3.700881591796875,-1.4504785537719727,-1.085521936416626,0.3834313154220581
1772721076811477500,3.7194775390625,-1.298238754272461,-0.8292714357376099,-0.1667855978012085
1772721076830073600,3.738073486328125,-1.2061920166015625,-0.7593782544136047,-0.9148985147476196
1772721076848669700,3.756669677734375,-0.6396217346191406,-0.6182030439376831,-1.5893670320510864
1772721076867265500,3.775265625,-0.11470222473144531,-0.5209243297576904,-1.9297680854797363
1772721076885861600,3.793861572265625,-0.15316104888916016,-0.33054763078689575,-1.9734742641448975
1772721076904457700,3.812457763671875,-0.27687549591064453,-0.05706757307052612,-1.5346800088882446
1772721076923053600,3.831053466796875,-0.27537059783935547,0.24327737092971802,-0.8020919561386108
1772721076941649700,3.849649658203125,-0.019418716430664062,0.4793819785118103,-0.09534108638763428
1772721076960245800,3.868245849609375,0.5172948837280273,0.6100353002548218,0.44938337802886963
1772721076978841900,3.886841796875,0.6481857299804688,0.5471267700195312,0.5297027826309204
1772721076997437700,3.905437744140625,0.9977073669433594,0.3350718915462494,0.27000629901885986
1772721077016033800,3.92403369140625,1.1179332733154297,-0.03626447916030884,-0.6526921987533569
1772721077034630000,3.9426298828125,1.0208005905151367,-0.15663117170333862,-1.222766637802124
1772721077053225700,3.961225830078125,0.8337526321411133,0.15507176518440247,-1.0688661336898804
1772721077071821800,3.97982177734375,0.6657314300537109,0.5177334547042847,-0.585999608039856
1772721077090418000,3.99841796875,0.49855995178222656,0.47771525382995605,-0.3762226104736328
1772721077109013800,4.017013671875,0.31656646728515625,0.18567830324172974,-0.4050774574279785
1772721077127609900,4.03560986328125,-0.01461029052734375,-0.11617779731750488,-0.9072462320327759
1772721077146206000,4.0542060546875,-0.1645526885986328,-0.5180275440216064,-1.5458935499191284
1772721077164801800,4.0728017578125,-0.5910158157348633,-0.6051578521728516,-1.7890206575393677
1772721077183398000,4.09139794921875,-0.9567689895629883,-0.38836824893951416,-1.0988762378692627
1772721077201994000,4.109993896484375,-1.0822868347167969,-0.18180251121520996,-0.24693894386291504
1772721077220589800,4.12858984375,-0.3859577178955078,-0.02188175916671753,0.336839497089386
1772721077239186000,4.14718603515625,0.2351512908935547,-0.00788271427154541,0.27465659379959106
1772721077257782000,4.165781982421875,0.5127420425415039,-0.27050501108169556,0.09550780057907104
1772721077276378000,4.184378173828125,0.22243309020996094,-0.5935121178627014,0.011663496494293213
1772721077294974000,4.202973876953125,-0.23040199279785156,-0.8412154316902161,0.007169127464294434
1772721077313570000,4.221570068359375,-0.9768810272216797,-1.0856239795684814,-0.2553832530975342
1772721077332166100,4.240166259765625,-1.9542913436889648,-1.2988348007202148,-0.9738397002220154
1772721077350762000,4.258761962890625,-2.308417797088623,-1.5387638807296753,-1.5601556301116943
1772721077369358000,4.277358154296875,-2.0927042961120605,-1.6883339881896973,-1.9472688436508179
1772721077387954200,4.2959541015625,-1.7776813507080078,-1.6309833526611328,-1.720407247543335
1772721077406550000,4.314550048828125,-1.3073501586914062,-1.403348445892334,-0.8386092185974121
1772721077425146000,4.33314599609375,-0.6114206314086914,-1.1069231033325195,0.2396167516708374
1772721077443742200,4.3517421875,0.06474781036376953,-0.91153484582901,1.1704175472259521
1772721077462338000,4.370338134765625,1.0689964294433594,-0.4854634702205658,1.650697112083435
1772721077480934100,4.38893408203125,2.10886287689209,0.15494751930236816,1.5740244388580322
1772721077499530200,4.4075302734375,2.7396621704101562,0.647381603717804,1.1818931102752686
1772721077518126000,4.4261259765625,2.622134208679199,0.8410931825637817,0.6551971435546875
1772721077536722200,4.44472216796875,1.957625389099121,0.8877718448638916,-0.19686239957809448
1772721077555318000,4.463318115234375,1.0127124786376953,1.1055282354354858,-0.6324905753135681
1772721077573914000,4.4819140625,0.5520391464233398,1.4270340204238892,-0.474459171295166
1772721077592510200,4.50051025390625,0.2402629852294922,1.61915922164917,-0.4540397524833679
1772721077611106300,4.519106201171875,0.25812435150146484,1.6812549829483032,-0.3982027769088745
1772721077629702100,4.5377021484375,0.3227729797363281,1.6034612655639648,-0.26310157775878906
1772721077648298200,4.55629833984375,-0.13121891021728516,1.3970658779144287,-0.20052564144134521
1772721077666894300,4.574894287109375,-0.5361146926879883,1.035191297531128,-0.3557046055793762
1772721077685490200,4.593490234375,-0.5703544616699219,0.7178522348403931,-0.46648240089416504
1772721077704086300,4.612086181640625,-0.4853343963623047,0.5893067717552185,-0.5297951102256775
1772721077722682400,4.630682373046875,-0.5393199920654297,0.7025050520896912,-0.4231555759906769
1772721077741278200,4.6492783203125,-0.3621540069580078,0.9094183444976807,0.17857930064201355
1772721077759874300,4.667874267578125,0.04787254333496094,1.1520590782165527,1.1046444177627563
1772721077778470400,4.686470458984375,0.22423076629638672,1.0296196937561035,1.5538086891174316
1772721077797066200,4.705066162109375,0.11079216003417969,0.5860666036605835,0.9970359206199646
1772721077815662300,4.723662353515625,-0.19595623016357422,0.3115006685256958,0.16542948782444
1772721077834258400,4.742258544921875,-0.5716762542724609,0.20840275287628174,-0.32497739791870117
1772721077852854300,4.760854248046875,-0.7125463485717773,0.17963260412216187,-0.6465722322463989
1772721077871450400,4.779450439453125,-0.8395090103149414,0.2163083553314209,-0.7398911118507385
1772721077890046500,4.79804638671875,-0.8834743499755859,0.4031427502632141,-0.5049718022346497
1772721077908642300,4.816642333984375,-0.7468328475952148,0.7070515751838684,-0.15131846070289612
1772721077927238400,4.83523828125,-0.49883174896240234,0.9229455590248108,0.21776627004146576
1772721077945834500,4.85383447265625,-0.4864206314086914,1.0551447868347168,0.5048505663871765
1772721077964430300,4.872430419921875,-0.5940275192260742,1.0589189529418945,0.6901037096977234
1772721077983026400,4.8910263671875,-0.6315450668334961,0.9314698576927185,0.6345345377922058
1772721078001622500,4.90962255859375,-0.7412557601928711,0.8178669810295105,0.29609963297843933
1772721078020218400,4.92821826171875,-0.5805511474609375,0.8216591477394104,0.16445526480674744
1772721078038814500,4.946814453125,-0.5798435211181641,0.9826682806015015,0.31776419281959534
1772721078057410300,4.965410400390625,-0.6405572891235352,1.066202998161316,0.44100072979927063
1772721078076006400,4.98400634765625,-0.6755218505859375,1.0961195230484009,0.47743600606918335
1772721078094602500,5.0026025390625,-0.5798206329345703,1.220715045928955,0.5489254593849182
1772721078113198300,5.0211982421875,-0.23700809478759766,1.3994423151016235,0.6324231028556824
1772721078131794400,5.03979443359375,-0.017900466918945312,1.5159578323364258,0.6102352142333984
1772721078150390300,5.058390380859375,0.2331247329711914,1.598357915878296,0.7046799063682556
1772721078168986400,5.076986328125,0.3146696090698242,1.6618847846984863,0.7604397535324097
1772721078187582500,5.09558251953125,0.15932846069335938,1.6988004446029663,0.9749581813812256
1772721078206178300,5.11417822265625,0.18255996704101562,1.5914461612701416,1.0712498426437378
1772721078224774400,5.1327744140625,0.7829561233520508,1.3061139583587646,1.116673231124878
1772721078243370200,5.151370361328125,1.4908132553100586,1.1380939483642578,0.5965636372566223
1772721078261966300,5.16996630859375,1.8552703857421875,1.020493984222412,0.10310524702072144
1772721078280562400,5.1885625,1.3236093521118164,0.9664852619171143,-0.133536696434021
1772721078299158300,5.207158203125,0.6056394577026367,0.8836389183998108,-0.4319998025894165
1772721078317754400,5.22575439453125,0.7472238540649414,0.7132411003112793,-0.731987714767456
1772721078336350200,5.24435009765625,1.9037466049194336,0.5039600729942322,-0.9113692045211792
1772721078354946300,5.2629462890625,2.357008934020996,0.2990661859512329,-0.8801567554473877
1772721078373542400,5.28154248046875,1.9843997955322266,0.06850302219390869,-0.36413466930389404
1772721078392138200,5.30013818359375,0.5009908676147461,-0.2742112874984741,0.21260857582092285
1772721078410734300,5.318734375,-1.2502031326293945,-0.5664848685264587,0.7434324026107788
1772721078429330400,5.337330322265625,-2.363884925842285,-0.8526240587234497,1.0354411602020264
1772721078447926300,5.35592626953125,-2.4203338623046875,-1.223386526107788,1.224570631980896
1772721078466522400,5.3745224609375,-0.8820562362670898,-1.4956023693084717,0.9249902963638306
1772721078485118500,5.393118408203125,0.14371681213378906,-1.5921857357025146,0.408039927482605
1772721078503714300,5.41171435546875,0.1826152801513672,-1.4658763408660889,0.04530000686645508
1772721078522310400,5.430310302734375,-0.5410261154174805,-1.3047125339508057,-0.006670355796813965
1772721078540906200,5.44890625,-1.3398733139038086,-1.2580490112304688,-0.23673748970031738
1772721078559502300,5.46750244140625,-1.2111339569091797,-1.396063208580017,-0.9614120721817017
1772721078578098200,5.48609814453125,0.005340576171875,-1.7301721572875977,-1.931501865386963
1772721078596694300,5.5046943359375,1.2465333938598633,-1.9012107849121094,-2.5707199573516846
1772721078615290000,5.5232900390625,1.3509368896484375,-1.382849931716919,-2.058750867843628
1772721078633886200,5.54188623046875,0.1724100112915039,-0.7055964469909668,-1.2439074516296387
1772721078652482300,5.560482421875,-0.862213134765625,-0.12696588039398193,-0.46433985233306885
1772721078671078100,5.579078125,-1.5372343063354492,-0.03675723075866699,-0.4163128137588501
1772721078689674200,5.59767431640625,-1.4906854629516602,-0.21181321144104004,-1.015923261642456
1772721078708270300,5.616270263671875,-0.775212287902832,-0.4108247756958008,-1.2171475887298584
1772721078726866200,5.6348662109375,0.15349197387695312,-0.49057072401046753,-1.278891682624817
1772721078745462300,5.653462158203125,0.6298685073852539,-0.5780208110809326,-1.056580662727356
1772721078764058000,5.67205810546875,0.21100807189941406,-0.42892754077911377,-0.5626158714294434
1772721078782654200,5.690654296875,-0.4489707946777344,-0.227067232131958,0.0800708532333374
1772721078801250000,5.70925,-1.0058345794677734,-0.07662069797515869,0.31290704011917114
1772721078819846100,5.72784619140625,-0.9065608978271484,0.0236203670501709,0.05715680122375488
1772721078838442000,5.74644189453125,-0.1190042495727539,0.07545483112335205,-0.38891613483428955
1772721078857038000,5.7650380859375,0.4895753860473633,0.17711728811264038,-0.7535455226898193
1772721078875634200,5.78363427734375,0.5096530914306641,0.3936660885810852,-0.6702694892883301
1772721078894230000,5.80222998046875,0.1215677261352539,0.5804811120033264,-0.3843420743942261
1772721078912826000,5.820826171875,-0.23067188262939453,0.6637207865715027,-0.07578802108764648
1772721078931422200,5.839422119140625,-0.3560171127319336,0.6691031455993652,0.17910408973693848
1772721078950018000,5.85801806640625,-0.3606681823730469,0.6028725504875183,0.39759182929992676
1772721078968614000,5.87661376953125,-0.15775203704833984,0.6996018886566162,0.6725051999092102
1772721078987210000,5.8952099609375,0.11773490905761719,0.801071286201477,0.9150482416152954
1772721079005806000,5.91380615234375,0.3151092529296875,0.8672275543212891,0.9370781183242798
1772721079024402000,5.93240185546875,0.6216659545898438,0.9697674512863159,0.7188762426376343
1772721079042998000,5.950998046875,0.7341938018798828,0.9549001455307007,0.3881654739379883
1772721079061593900,5.96959375,0.7191810607910156,0.8329893350601196,0.22728431224822998
1772721079080190000,5.98818994140625,0.3484334945678711,0.7520702481269836,0.028553247451782227
1772721079098786000,6.0067861328125,0.15996646881103516,0.7496927976608276,-0.23632168769836426
1772721079117382000,6.0253818359375,0.5105962753295898,0.8027101755142212,-0.19627904891967773
1772721079135977700,6.043977783203125,0.6013612747192383,0.8313611149787903,-0.08247983455657959
1772721079154573800,6.06257373046875,0.2929954528808594,0.7514680624008179,-0.13094043731689453
1772721079173170000,6.081169921875,0.043847084045410156,0.7693396806716919,-0.42366695404052734
1772721079191765800,6.099765869140625,-0.3334665298461914,0.7489283680915833,-0.6837419271469116
1772721079210361900,6.11836181640625,-0.5963459014892578,0.8105849623680115,-0.9028583765029907
1772721079228957700,6.136957763671875,-0.5583572387695312,0.8459305167198181,-0.8969645500183105
1772721079247553800,6.1555537109375,-0.2822093963623047,0.5771832466125488,-1.0760502815246582
1772721079266149600,6.174149658203125,0.25153350830078125,0.1087600588798523,-1.28038489818573
1772721079284745700,6.192745849609375,0.7367544174194336,-0.33533143997192383,-1.1456646919250488
1772721079303341600,6.211341552734375,0.588104248046875,-0.5340850353240967,-0.5507755279541016
1772721079321937700,6.229937744140625,-0.02211475372314453,-0.5704167485237122,0.27957683801651
1772721079340533800,6.24853369140625,-0.7926845550537109,-0.5327102541923523,0.9682415127754211
1772721079359129600,6.267129638671875,-0.8619670867919922,-0.3991016149520874,1.0283722877502441
1772721079377725400,6.285725341796875,-0.4103717803955078,-0.20611417293548584,0.49567973613739014
1772721079396321500,6.304321533203125,0.20878314971923828,-0.09013915061950684,-0.1283869743347168
1772721079414917600,6.322917724609375,0.735255241394043,-0.07529950141906738,-0.6476006507873535
1772721079433513500,6.341513427734375,1.094247817993164,-0.23591238260269165,-1.0677419900894165
1772721079452109600,6.360109619140625,1.080765724182129,-0.4506612718105316,-1.0411319732666016
1772721079470705400,6.378705322265625,0.46451377868652344,-0.5038939714431763,-0.6114773750305176
1772721079489301500,6.397301513671875,0.031250953674316406,-0.6036123037338257,0.1323871612548828
1772721079507897300,6.4158974609375,-0.16889476776123047,-0.858214795589447,0.7165462374687195
1772721079526493400,6.434493408203125,-0.29216480255126953,-1.1821585893630981,0.7614173889160156
1772721079545089300,6.45308935546875,-0.26734447479248047,-1.419932246208191,0.5839490294456482
1772721079563685400,6.471685302734375,-0.1864919662475586,-1.4597806930541992,0.6402819156646729
1772721079582281200,6.49028125,-0.2241983413696289,-1.2524471282958984,1.1747348308563232
1772721079600877300,6.508877197265625,0.14290618896484375,-0.9707193374633789,1.946523904800415
1772721079619473200,6.52747314453125,0.4941110610961914,-0.706807017326355,1.8267735242843628
1772721079638069200,6.5460693359375,0.7375001907348633,-0.29602229595184326,1.4565335512161255
1772721079656665300,6.564665283203125,1.1051244735717773,0.11107659339904785,0.7916475534439087
1772721079675261200,6.58326123046875,1.4700031280517578,0.34791111946105957,0.10713303089141846
1772721079693857000,6.60185693359375,1.180150032043457,0.359389066696167,-0.446880578994751
1772721079712453000,6.620453125,0.9255475997924805,0.1875382661819458,-0.9202760457992554
1772721079731049000,6.639049072265625,0.6260604858398438,0.11175012588500977,-1.062476634979248
1772721079749645000,6.65764501953125,0.15568923950195312,0.03351569175720215,-0.47985851764678955
1772721079768241000,6.676240966796875,-0.5313959121704102,0.02401411533355713,0.2541821599006653
1772721079786837000,6.6948369140625,-1.3132362365722656,0.05651736259460449,0.678524911403656
1772721079805432800,6.713432861328125,-1.4229316711425781,0.2204291820526123,0.9408929347991943
1772721079824029000,6.73202880859375,-1.1106376647949219,0.38805103302001953,1.016310214996338
1772721079842625000,6.750625,-0.767974853515625,0.6239697933197021,0.834286630153656
1772721079861220900,6.769220947265625,-0.677729606628418,0.861984372138977,0.7418296337127686
1772721079879816700,6.787816650390625,-0.3867006301879883,0.9469178915023804,0.5781944990158081
1772721079898412800,6.806412841796875,0.052512168884277344,0.9498271942138672,0.4106706380844116
1772721079917008600,6.825008544921875,-0.19458675384521484,1.1186633110046387,0.43319547176361084
1772721079935604700,6.843604736328125,-0.5478124618530273,1.225428819656372,0.8624987006187439
1772721079954200600,6.86220068359375,-0.7773332595825195,1.4269554615020752,1.2387068271636963
1772721079972796700,6.880796630859375,-0.5789976119995117,1.6249966621398926,1.3890199661254883
1772721079991392500,6.899392578125,-0.21697139739990234,1.654302954673767,1.278481125831604
1772721080009988600,6.917988525390625,-0.10727214813232422,1.303471565246582,0.9027720093727112
1772721080028584400,6.93658447265625,-0.3748340606689453,1.0622379779815674,0.6411489248275757
1772721080047180500,6.9551806640625,-0.7146005630493164,0.9631434679031372,0.578023374080658
1772721080065776400,6.9737763671875,-0.23481464385986328,1.0170501470565796,1.0319753885269165
1772721080084372500,6.99237255859375,0.5713329315185547,0.950326681137085,2.03759765625
1772721080102968300,7.01096826171875,0.9387483596801758,0.6049071550369263,2.477074146270752
1772721080121564200,7.029564208984375,1.9812488555908203,0.172399640083313,1.1340512037277222
1772721080140160300,7.04816015625,2.689663887023926,-0.4328776001930237,-0.36014074087142944
1772721080158756400,7.06675634765625,2.5487136840820312,-0.6800796985626221,-1.3533846139907837
1772721080177352200,7.085352294921875,1.640909194946289,-0.693554162979126,-2.0316953659057617
1772721080195948000,7.103947998046875,0.9069461822509766,-0.7687307596206665,-2.0017600059509277
1772721080214544100,7.122544189453125,0.46730518341064453,-0.7377933263778687,-1.0537116527557373
1772721080233140200,7.14114013671875,-0.3579216003417969,-0.9494140148162842,-0.13951635360717773
1772721080251736000,7.159736083984375,-1.1845293045043945,-0.9816721677780151,0.30678480863571167
1772721080270332000,7.178331787109375,-1.8321638107299805,-1.0905040502548218,0.5125254988670349
1772721080288928000,7.196927978515625,-2.0246238708496094,-1.2560267448425293,0.5575405955314636
1772721080307523800,7.21552392578125,-1.9903202056884766,-1.4151461124420166,0.35139966011047363
1772721080326120000,7.234119873046875,-1.289015769958496,-1.3942830562591553,0.06576752662658691
1772721080344715800,7.2527158203125,-0.3968820571899414,-1.3744690418243408,-0.1833363175392151
1772721080363311900,7.271311767578125,-0.18184566497802734,-1.3402385711669922,-0.31927284598350525
1772721080381907700,7.28990771484375,-0.6745433807373047,-1.29056978225708,-0.6956945657730103
1772721080400503600,7.308503662109375,-1.1464834213256836,-1.276996374130249,-1.447324275970459
1772721080419099600,7.327099609375,-0.9624595642089844,-1.2551220655441284,-2.0559635162353516
1772721080437695700,7.34569580078125,-0.1536083221435547,-1.222624659538269,-2.290257215499878
1772721080456291600,7.36429150390625,0.6094865798950195,-0.8604141473770142,-1.9606528282165527
1772721080474887400,7.382887451171875,0.6765575408935547,-0.29643845558166504,-1.0090579986572266
1772721080493483500,7.4014833984375,0.23959922790527344,0.11059141159057617,-0.2088211178779602
1772721080512079400,7.420079345703125,-0.2965869903564453,0.32409989833831787,-0.09668916463851929
1772721080530675500,7.438675537109375,-0.43735790252685547,0.2900294065475464,-0.48034948110580444
1772721080549271300,7.457271240234375,0.02628326416015625,0.1647043228149414,-0.924290657043457
1772721080567867100,7.4758671875,0.7020387649536133,-0.04327857494354248,-1.0978984832763672
1772721080586463200,7.494463134765625,0.6753768920898438,-0.22183984518051147,-1.0541315078735352
1772721080605059000,7.51305908203125,-0.044030189514160156,-0.409607470035553,-1.0854326486587524
1772721080623655200,7.5316552734375,-0.8535242080688477,-0.559548556804657,-1.10885751247406
1772721080642251000,7.5502509765625,-1.3019161224365234,-0.6078747510910034,-1.0242489576339722
1772721080660847000,7.56884716796875,-1.331289291381836,-0.40843796730041504,-0.7929134368896484
1772721080679443000,7.58744287109375,-0.7020635604858398,-0.15540313720703125,-0.4019331932067871
1772721080698038800,7.606038818359375,-0.18262958526611328,0.11012107133865356,-0.21541136503219604
1772721080716635000,7.624634765625,-0.10811042785644531,0.23895061016082764,-0.10990315675735474
1772721080735231000,7.64323095703125,-0.36980533599853516,0.34354570508003235,-0.038101792335510254
1772721080753826800,7.661826904296875,-0.5965805053710938,0.47871387004852295,-0.017178356647491455
1772721080772422700,7.680422607421875,-0.3210153579711914,0.6225324273109436,-0.17422276735305786
1772721080791018800,7.699018798828125,0.401275634765625,0.757520318031311,-0.1107180118560791
1772721080809614600,7.717614501953125,0.9699602127075195,0.9971368908882141,0.17882633209228516
1772721080828210400,7.73621044921875,1.1816768646240234,1.159828782081604,0.49643123149871826
1772721080846806500,7.754806640625,1.167032241821289,1.1866159439086914,0.5759339332580566
1772721080865402400,7.77340234375,1.018514633178711,1.0118658542633057,0.12897467613220215
1772721080883998500,7.79199853515625,0.5932807922363281,0.8026269674301147,-0.549231767654419
1772721080902594300,7.81059423828125,0.0947885513305664,0.7111279368400574,-0.9350067377090454
1772721080921190100,7.829190185546875,-0.2780303955078125,0.6315534114837646,-0.7928476333618164
1772721080939786200,7.8477861328125,-0.6404829025268555,0.5963075160980225,-0.6036133766174316
1772721080958382000,7.866382080078125,-0.8099479675292969,0.4320409297943115,-0.5232201814651489
1772721080976978000,7.88497802734375,-0.31441307067871094,-0.02103292942047119,-0.6539602279663086
1772721080995574000,7.903573974609375,0.1958322525024414,-0.49040019512176514,-0.6137853860855103
1772721081014170000,7.922170166015625,0.47023582458496094,-0.7934355139732361,0.10489863157272339
1772721081032766000,7.940765869140625,0.25129032135009766,-1.2366315126419067,1.1007038354873657
1772721081051361800,7.95936181640625,-0.2274637222290039,-1.5262413024902344,1.7360401153564453
1772721081069958000,7.9779580078125,-0.7590789794921875,-1.7436714172363281,1.3263040781021118
1772721081088553700,7.9965537109375,-0.8495569229125977,-1.7331323623657227,0.005889475345611572
1772721081107149800,8.01514990234375,0.06920146942138672,-1.807995319366455,-0.881172776222229
1772721081125745700,8.03374560546875,1.464254379272461,-1.641221046447754,-1.0419490337371826
1772721081144341500,8.052341552734376,2.436277389526367,-1.3972506523132324,-0.840939998626709
1772721081162937600,8.0709375,2.682816505432129,-1.3317776918411255,-0.7308778762817383
1772721081181533400,8.089533447265625,2.026980400085449,-1.368250846862793,-0.6185449361801147
1772721081200129300,8.10812939453125,1.1014022827148438,-1.3524236679077148,-0.4469747543334961
1772721081218725400,8.126725341796876,0.22213077545166016,-1.4003243446350098,-0.12014782428741455
1772721081237321200,8.1453212890625,-0.4795351028442383,-1.5274946689605713,0.3674124479293823
1772721081255917300,8.163917236328125,-0.7888479232788086,-1.4111754894256592,1.1940767765045166
1772721081274513200,8.18251318359375,-0.7922487258911133,-1.0042979717254639,2.7765555381774902
1772721081293109000,8.20110888671875,-0.6454782485961914,-0.6406548619270325,4.777497291564941
1772721081311705000,8.219705078125,-0.5782880783081055,-0.4800024628639221,5.73554801940918
1772721081330301000,8.238301025390625,0.18712139129638672,-0.3673064708709717,5.0068359375
1772721081348896800,8.256896728515626,1.3005790710449219,-0.6024587750434875,2.985598564147949
1772721081367492900,8.275492919921875,1.9721393585205078,-0.7854543924331665,0.6585580110549927
1772721081386088700,8.294088623046875,1.9400949478149414,-0.7681359052658081,-1.1557936668395996
1772721081404684500,8.3126845703125,1.2240791320800781,-0.6568231582641602,-2.032257556915283
1772721081423280600,8.33128076171875,0.25359153747558594,-0.5063969492912292,-2.342223882675171
1772721081441876500,8.34987646484375,-0.7070674896240234,-0.25316521525382996,-1.8377797603607178
1772721081460472300,8.368472412109375,-1.322469711303711,0.13308817148208618,-0.7461662292480469
1772721081479068400,8.387068359375,-1.2330646514892578,0.330136239528656,0.3675263226032257
1772721081497664300,8.405664306640626,-0.6679525375366211,0.4608435034751892,1.2595425844192505
1772721081516260400,8.42426025390625,-0.5031919479370117,0.3950648903846741,1.0616862773895264
1772721081534856200,8.442856201171875,-0.40775489807128906,0.34394872188568115,0.27953070402145386
1772721081553452000,8.4614521484375,-0.28298091888427734,0.45401376485824585,-0.1334933340549469
1772721081572048100,8.480048095703125,-0.14567089080810547,0.6198605298995972,-0.13280487060546875
1772721081590644000,8.49864404296875,-0.5587854385375977,0.6467915177345276,-0.14692357182502747
1772721081609239800,8.51723974609375,-0.8754119873046875,0.5510826110839844,-0.07862871885299683
1772721081627836000,8.5358359375,-0.8448905944824219,0.45331060886383057,0.28078871965408325
1772721081646431700,8.554431640625,-0.8564987182617188,0.43534111976623535,0.6721276044845581
1772721081665027800,8.57302783203125,-0.6906032562255859,0.46650582551956177,1.147914171218872
1772721081683623700,8.591623779296874,-0.42932891845703125,0.4464438557624817,1.5336334705352783
1772721081702219500,8.610219482421876,-0.4922599792480469,0.5385256409645081,1.7514605522155762
1772721081720815400,8.6288154296875,-0.7058029174804688,0.6122584939002991,1.8259968757629395
1772721081739411500,8.647411376953125,-0.7256946563720703,0.604970395565033,1.6074175834655762
1772721081758007300,8.66600732421875,-0.6680774688720703,0.4998176693916321,1.2093985080718994
1772721081776603100,8.68460302734375,-0.6675691604614258,0.4934355616569519,0.8315547704696655
1772721081795199200,8.70319921875,-0.6119327545166016,0.4982653260231018,0.5812593102455139
1772721081813795000,8.721795166015625,-0.4646482467651367,0.5894650816917419,0.5675104260444641
1772721081832391200,8.74039111328125,-0.06287574768066406,0.6612139940261841,0.7147624492645264
1772721081850987000,8.758987060546875,0.5365762710571289,0.8628168106079102,1.151254653930664
1772721081869582800,8.777582763671875,1.125340461730957,1.054867148399353,1.6858247518539429
1772721081888178700,8.7961787109375,1.8778162002563477,1.252987027168274,1.6131508350372314
1772721081906774800,8.81477490234375,2.4868459701538086,1.151490330696106,1.3187779188156128
1772721081925370600,8.83337060546875,2.3708200454711914,0.8824034929275513,0.8563827276229858
1772721081943966500,8.851966552734375,1.7371912002563477,0.5623235702514648,0.07820257544517517
1772721081962562600,8.8705625,1.7932138442993164,-0.02795875072479248,-0.800321638584137
1772721081981158400,8.889158447265626,1.7587413787841797,-0.37930989265441895,-1.2477641105651855
1772721081999754200,8.907754150390625,0.7188615798950195,-0.6353988647460938,-1.2615692615509033
1772721082018350300,8.926350341796875,-0.36106204986572266,-0.7886373996734619,-0.595310628414154
1772721082036946200,8.9449462890625,-1.0252857208251953,-1.0490996837615967,0.06936860084533691
1772721082055542000,8.9635419921875,-0.8896207809448242,-1.1955605745315552,0.33239758014678955
1772721082074138000,8.98213818359375,-0.5078287124633789,-1.2699244022369385,0.6134864687919617
1772721082092734000,9.00073388671875,-0.3065309524536133,-1.4213422536849976,0.6281428337097168
1772721082111329800,9.019329833984376,-0.6450109481811523,-1.648430585861206,0.17535439133644104
1772721082129925600,9.037925537109375,-1.171422004699707,-1.6811244487762451,-0.3945162296295166
1772721082148521700,9.056521728515625,-1.5029706954956055,-1.3524134159088135,-0.8631454110145569
1772721082167117600,9.07511767578125,-1.281280517578125,-0.9601529836654663,-1.3007038831710815
1772721082185713700,9.093713623046876,0.20950603485107422,-0.8390213251113892,-1.5441539287567139
1772721082204309500,9.1123095703125,1.1708860397338867,-0.992825984954834,-1.8635857105255127
1772721082222905300,9.1309052734375,0.8623037338256836,-1.0942308902740479,-1.96206796169281
1772721082241501200,9.149501220703126,-0.020206451416015625,-1.057243824005127,-1.777446985244751
1772721082260097300,9.16809716796875,-0.6869707107543945,-0.9827866554260254,-1.4196280241012573
1772721082278693000,9.186693115234375,-1.154275894165039,-0.7837224006652832,-1.1785707473754883
1772721082297289000,9.2052890625,-0.9755821228027344,-0.7354962825775146,-1.1066598892211914
1772721082315884800,9.223884765625,-0.36182212829589844,-0.7830880880355835,-1.2821630239486694
1772721082334481000,9.24248095703125,0.30557727813720703,-0.7312525510787964,-1.3212186098098755
1772721082353076700,9.26107666015625,0.539036750793457,-0.5457262992858887,-1.0331332683563232
1772721082371672600,9.279672607421874,0.510838508605957,-0.39790213108062744,-0.6759231686592102
1772721082390268700,9.2982685546875,-0.017745018005371094,-0.45642364025115967,-0.7626387476921082
1772721082408864500,9.316864501953125,-0.40231895446777344,-0.5759545564651489,-0.9724763631820679
1772721082427460400,9.33546044921875,-0.3054361343383789,-0.5789976119995117,-1.0625414848327637
1772721082446056200,9.35405615234375,0.14435100555419922,-0.5421828031539917,-1.0226632356643677
1772721082464652300,9.37265234375,0.14140701293945312,-0.43683743476867676,-0.7078793048858643
1772721082483248000,9.391248046875,-0.009706497192382812,-0.2906581163406372,-0.16766884922981262
1772721082501844000,9.409843994140624,0.21966934204101562,-0.08182811737060547,0.23922592401504517
1772721082520439800,9.428439697265626,0.4679899215698242,0.08120334148406982,0.32598912715911865
1772721082539036000,9.447035888671875,0.24891185760498047,0.26827478408813477,0.4328039288520813
1772721082557631700,9.4656318359375,0.11149883270263672,0.5963462591171265,0.5292019248008728
1772721082576227800,9.484227783203124,0.28619956970214844,0.7114858627319336,0.37453117966651917
1772721082594823700,9.50282373046875,0.44703006744384766,0.5448707342147827,-0.13174420595169067
1772721082613419500,9.52141943359375,0.33658599853515625,0.2195889949798584,-0.43284210562705994
1772721082632015400,9.540015380859375,-0.03281688690185547,-0.06942272186279297,-0.7600606679916382
1772721082650611500,9.558611572265624,-0.2180156707763672,-0.134618878364563,-1.2511358261108398
1772721082669207300,9.577207275390625,-0.2179422378540039,-0.04346060752868652,-1.632026195526123
1772721082687803100,9.59580322265625,0.11270332336425781,-0.04863154888153076,-1.6291552782058716
1772721082706399000,9.61439892578125,0.14847469329833984,-0.04230940341949463,-1.3977707624435425
1772721082724994800,9.632994873046876,0.08012008666992188,-0.08143734931945801,-0.7773646116256714
1772721082743591000,9.6515908203125,-0.0023870468139648438,-0.10263192653656006,-0.250817209482193
1772721082762186800,9.670186767578125,-0.18345165252685547,0.018894553184509277,0.009478151798248291
1772721082780782800,9.688782958984374,-0.49191761016845703,0.26172077655792236,-0.048456937074661255
1772721082799378400,9.70737841796875,-0.3849372863769531,0.23054850101470947,-0.4043862223625183
1772721082817974500,9.725974609375,-0.09756755828857422,0.11400926113128662,-0.8389127254486084
1772721082836570400,9.7445703125,0.1002655029296875,0.15790843963623047,-0.8135431408882141
1772721082855166200,9.763166259765624,0.19584369659423828,0.15667986869812012,-1.0977332592010498
1772721082873762300,9.78176220703125,0.08257675170898438,-0.1943885087966919,-1.7831146717071533
1772721082892358100,9.800358154296875,-0.1888408660888672,-0.47813940048217773,-2.069977283477783
1772721082910954000,9.8189541015625,-0.2724637985229492,-0.5967512130737305,-1.4882175922393799
1772721082929549800,9.8375498046875,0.07877826690673828,-0.5884860754013062,-0.48510730266571045
1772721082948146000,9.85614599609375,0.050978660583496094,-0.6605236530303955,0.285775750875473
1772721082966741800,9.87474169921875,0.01883220672607422,-0.8096683025360107,0.5730798244476318
1772721082985337600,9.893337646484374,0.009250640869140625,-1.133035659790039,0.3261604905128479
1772721083003933400,9.911933349609376,-0.14763545989990234,-1.3220274448394775,-0.177413672208786
1772721083022529300,9.930529296875,-0.26044464111328125,-1.2560055255889893,-0.6382229924201965
1772721083041125400,9.94912548828125,0.02422046661376953,-1.1906499862670898,-0.6585498452186584
1772721083059721200,9.96772119140625,0.19532012939453125,-1.109975814819336,-0.40075671672821045
1772721083078317000,9.986317138671875,0.11335945129394531,-1.0819315910339355,-0.0821632444858551
1772721083096913200,10.0049130859375,0.2639589309692383,-0.9976096153259277,-0.025793597102165222
1772721083115509000,10.023509033203124,0.3723430633544922,-0.8905820250511169,-0.14071917533874512
1772721083134104800,10.042104736328126,0.5669012069702148,-0.8244217038154602,-0.35702818632125854
1772721083152700700,10.06070068359375,1.0809125900268555,-0.7252801656723022,-0.3672012686729431
1772721083171296500,10.079296630859375,1.5921707153320312,-0.5924626588821411,0.16840267181396484
1772721083189892600,10.097892578125,1.6219196319580078,-0.5349929928779602,0.6753294467926025
1772721083208488400,10.116488525390626,0.9975147247314453,-0.5591825246810913,0.8280794620513916
1772721083227084300,10.135084228515625,0.2784900665283203,-0.49674123525619507,1.0598410367965698
1772721083245680000,10.15368017578125,-0.2906961441040039,-0.3205074071884155,1.1651949882507324
1772721083264276200,10.172276123046874,-0.5825862884521484,-0.14102065563201904,0.9632211923599243
1772721083282872000,10.1908720703125,-0.7655715942382812,-0.060660719871520996,0.5130972862243652
1772721083301468000,10.209468017578125,-0.7491436004638672,0.06086719036102295,0.1555481255054474
1772721083320063700,10.228063720703124,-0.670069694519043,0.282931923866272,-0.04255044460296631
1772721083338659600,10.24665966796875,-0.5155181884765625,0.6131000518798828,0.06360021233558655
1772721083357255700,10.265255615234375,-0.403472900390625,0.7681691646575928,0.14224465191364288
1772721083375851500,10.2838515625,-0.37404918670654297,0.7368526458740234,-0.16823717951774597
1772721083394447400,10.302447265625,-0.3004903793334961,0.5687483549118042,-0.9075937271118164
1772721083413043200,10.321043212890626,-0.11697959899902344,0.5122166872024536,-1.4258418083190918
1772721083431639300,10.339639404296875,0.17998409271240234,0.6317189931869507,-1.4573701620101929
1772721083450235100,10.358235107421875,0.34700489044189453,0.7710398435592651,-0.9639201760292053
1772721083468831000,10.3768310546875,0.1895456314086914,0.9383761882781982,-0.4707489609718323
1772721083487426800,10.3954267578125,-0.34133052825927734,0.9373303651809692,-0.15362131595611572
1772721083506022700,10.414022705078125,-0.37134456634521484,0.9549105167388916,0.2152388095855713
1772721083524618800,10.43261865234375,-0.08533954620361328,0.8741120100021362,0.34795963764190674
1772721083543214600,10.451214599609376,-0.08545875549316406,0.674343466758728,0.17822861671447754
1772721083561810400,10.469810546875,-0.39371585845947266,0.5359848737716675,-0.14028215408325195
1772721083580406300,10.48840625,-0.644984245300293,0.4891228675842285,-0.3290046453475952
1772721083599002000,10.507002197265624,-1.0180273056030273,0.566832423210144,-0.3444114923477173
1772721083617598200,10.52559814453125,-1.1769037246704102,0.671736478805542,-0.2616778612136841
1772721083636194000,10.544194091796875,-1.1085147857666016,0.7231183052062988,-0.06806588172912598
1772721083654790000,10.562789794921875,-0.7451152801513672,0.8919851779937744,0.2891908288002014
1772721083673385700,10.5813857421875,-0.3420896530151367,0.9340729713439941,0.4290041923522949
1772721083691981600,10.599981689453125,-0.3809957504272461,0.9592572450637817,0.4676051735877991
1772721083710577400,10.618577392578125,-0.3027839660644531,1.0864912271499634,0.5924708843231201
1772721083729173500,10.637173583984374,0.046471595764160156,0.9265439510345459,0.7002899646759033
1772721083747769300,10.655769287109376,-0.1497201919555664,0.9685783386230469,0.715668797492981
1772721083766365200,10.674365234375,-0.3877296447753906,1.010433316230774,0.9659041166305542
1772721083784961000,10.6929609375,-0.280914306640625,1.1163526773452759,1.1574208736419678
1772721083803557000,10.71155712890625,-0.049622535705566406,1.1696381568908691,1.093765377998352
1772721083822152700,10.730152587890625,0.11530303955078125,1.23160719871521,0.978388249874115
1772721083840748800,10.748748779296875,0.30703067779541016,1.3243026733398438,1.2670027017593384
1772721083859344600,10.7673447265625,0.2518625259399414,1.3801398277282715,1.3726885318756104
1772721083877940500,10.7859404296875,0.4237947463989258,1.385978102684021,1.2475053071975708
1772721083896536300,10.804536376953125,0.6607961654663086,1.2971630096435547,1.2148056030273438
1772721083915132400,10.82313232421875,1.0170392990112305,1.3119345903396606,1.0965609550476074
1772721083933728300,10.841728271484374,1.3416204452514648,1.3804619312286377,0.7001771926879883
1772721083952324000,10.860323974609376,1.4528865814208984,1.318946361541748,-0.03185552358627319
1772721083970920000,10.878919921875,1.4487810134887695,1.2355237007141113,-0.5980104804039001
1772721083989515800,10.897515869140625,1.5234050750732422,1.1252819299697876,-0.8352602124214172
1772721084008111600,10.916111572265624,1.5122861862182617,0.884265661239624,-0.7799928784370422
1772721084026707700,10.934707763671875,1.280721664428711,0.565161943435669,-0.2586566209793091
1772721084045303600,10.953303466796875,0.6113452911376953,0.22784364223480225,0.285617470741272
1772721084063899400,10.9718994140625,-0.2648468017578125,-0.16565179824829102,0.41006624698638916
1772721084082495200,10.9904951171875,-0.9060239791870117,-0.710487961769104,0.32849299907684326
1772721084101091000,11.009091064453125,-0.29158878326416016,-1.1614282131195068,0.13721489906311035
1772721084119687000,11.02768701171875,0.3796367645263672,-1.2699501514434814,-0.11293435096740723
1772721084138282800,11.04628271484375,0.5274782180786133,-1.3189752101898193,-0.1871936321258545
1772721084156878800,11.06487890625,0.5717029571533203,-1.367123007774353,-0.13798940181732178
1772721084175474700,11.083474609375,0.12354469299316406,-1.3211791515350342,-0.14023560285568237
1772721084194070500,11.102070556640625,-0.869598388671875,-1.426914095878601,-0.22138047218322754
1772721084212666400,11.120666259765626,-2.2019519805908203,-1.555191159248352,-0.39513975381851196
1772721084231262200,11.13926220703125,-2.950505256652832,-1.6105626821517944,-0.8046387434005737
1772721084249858000,11.157858154296875,-2.530937671661377,-1.6046056747436523,-1.5075767040252686
1772721084268454000,11.176453857421874,-1.1770734786987305,-1.625693678855896,-2.372924566268921
1772721084287050000,11.195050048828126,0.17915630340576172,-1.2696843147277832,-2.696336269378662
1772721084305645800,11.213645751953125,0.5762701034545898,-0.816750168800354,-2.5554704666137695
1772721084324241700,11.23224169921875,0.15166282653808594,-0.40304338932037354,-2.1102356910705566
1772721084342837500,11.25083740234375,-0.4509468078613281,-0.223099946975708,-1.769568920135498
1772721084361433300,11.269433349609375,-0.5000829696655273,-0.2710367441177368,-1.5875084400177002
1772721084380029200,11.288029296875,-0.0684814453125,-0.29081010818481445,-1.382692813873291
1772721084398625000,11.306625,0.29932117462158203,-0.36234521865844727,-1.1395509243011475
1772721084417221000,11.32522119140625,0.23304462432861328,-0.29592156410217285,-0.674980878829956
1772721084435817000,11.34381689453125,-0.1523580551147461,-0.1410059928894043,-0.1838884949684143
1772721084454412800,11.362412841796875,-0.6783523559570312,0.06050980091094971,0.06570017337799072
1772721084473008600,11.381008544921874,-1.0684213638305664,0.1711444854736328,0.1858873963356018
1772721084491604500,11.3996044921875,-0.9086847305297852,0.21079564094543457,0.2689253091812134
1772721084510200300,11.418200439453125,-0.6242446899414062,0.2601562738418579,0.11139774322509766
1772721084528796200,11.436796142578125,-0.21982669830322266,0.3964674472808838,-0.08802473545074463
1772721084547392000,11.45539208984375,0.3125467300415039,0.6637412309646606,0.05791354179382324
1772721084565988000,11.473988037109375,1.0254755020141602,0.8223929405212402,0.2733442783355713
1772721084584584000,11.492583984375,1.1937379837036133,0.9607884883880615,0.36807096004486084
1772721084603179800,11.5111796875,0.9448833465576172,1.0522141456604004,0.6217455863952637
1772721084621775600,11.529775634765626,0.6167116165161133,1.0577642917633057,0.7755860090255737
1772721084640371500,11.548371337890625,0.4934072494506836,0.9568197131156921,0.7320361137390137
1772721084658967300,11.56696728515625,0.6099481582641602,0.8190280795097351,0.5345656871795654
1772721084677563100,11.585563232421874,0.7049188613891602,0.7204646468162537,0.3627157211303711
1772721084696159000,11.604158935546875,0.40738868713378906,0.6222444772720337,0.0640329122543335
1772721084714754800,11.6227548828125,-0.0011014938354492188,0.6730186343193054,-0.13545799255371094
1772721084733351000,11.641350830078125,-0.3820180892944336,0.7538458704948425,-0.21882176399230957
1772721084751946800,11.65994677734375,-0.7595376968383789,0.7805370092391968,-0.4119741916656494
1772721084770542600,11.67854248046875,-0.9405755996704102,0.7753376960754395,-0.6808385848999023
1772721084789138400,11.697138427734375,-0.9154043197631836,0.8829001784324646,-0.913145899772644
1772721084807734300,11.715734375,-0.35991764068603516,0.9093683958053589,-0.9448707103729248
1772721084826330000,11.734330078125,0.07454109191894531,1.0058269500732422,-0.7542535066604614
1772721084844926000,11.752926025390625,-0.014260292053222656,0.9700906872749329,-0.5466972589492798
1772721084863521800,11.771521728515625,-0.15905380249023438,1.0458779335021973,-0.2753092050552368
1772721084882117600,11.79011767578125,-0.14176177978515625,1.032867431640625,-0.05247223377227783
1772721084900713700,11.808713623046875,0.14466571807861328,0.9265814423561096,0.03108978271484375
1772721084919309600,11.8273095703125,0.3792400360107422,0.893801748752594,0.08851313591003418
1772721084937905400,11.845905517578124,0.8087968826293945,0.7870244979858398,-0.028481721878051758
1772721084956501200,11.864501220703126,1.123927116394043,0.32730960845947266,-0.5467177629470825
1772721084975097000,11.88309716796875,1.230595588684082,-0.023912429809570312,-0.8804301619529724
1772721084993693000,11.90169287109375,1.3139829635620117,-0.5472409129142761,-0.856293261051178
1772721085012288800,11.920288818359374,-1.550893783569336,-0.8112220764160156,-0.7077866196632385
1772721085030884600,11.938884521484376,-1.0660467147827148,-0.3437981605529785,-1.0271296501159668
1772721085049480400,11.95748046875,-0.8229160308837891,-0.7120875120162964,-0.9258092641830444
1772721085068076300,11.976076171875,-0.5257730484008789,-0.523730993270874,-0.607284665107727
1772721085086672100,11.994672119140626,0.32599449157714844,-0.42395347356796265,-0.24845093488693237
1772721085105268200,12.013268310546875,1.1673498153686523,-0.6222841143608093,-0.35829877853393555
1772721085123864000,12.031864013671875,1.6077041625976562,-0.6102986931800842,-0.5758559703826904
1772721085142460000,12.0504599609375,1.771265983581543,-0.6758188009262085,-0.34754979610443115
1772721085161055700,12.0690556640625,1.7129383087158203,-0.921971321105957,0.16826581954956055
1772721085179651600,12.087651611328125,0.8457984924316406,-1.2194781303405762,0.39064711332321167
1772721085198247400,12.106247314453125,-0.06492996215820312,-1.24443781375885,0.29948294162750244
1772721085216843300,12.12484326171875,-0.8021335601806641,-1.3619848489761353,0.4090349078178406
1772721085235439000,12.143439208984375,-1.3411846160888672,-1.5806937217712402,0.4641113877296448
1772721085254035000,12.162034912109375,-1.447026252746582,-1.390998363494873,0.7289044260978699
1772721085272630800,12.180630859375,-1.0431642532348633,-1.4692978858947754,1.5779170989990234
1772721085291226600,12.1992265625,-0.1308612823486328,-1.288641333580017,1.8243554830551147
1772721085309822500,12.217822509765625,0.3863811492919922,-0.6799732446670532,1.2783503532409668
1772721085328418600,12.23641845703125,0.7335729598999023,-0.3085670471191406,0.8538306951522827
1772721085347014400,12.255014404296874,0.9150123596191406,-0.1602727174758911,0.809788167476654
1772721085365610200,12.2736103515625,1.2636032104492188,-0.19637495279312134,0.7008759379386902
1772721085384206000,12.2922060546875,1.1441831588745117,-0.31817638874053955,0.4641268849372864
1772721085402801700,12.3108017578125,0.4954662322998047,0.03067624568939209,0.00619661808013916
1772721085421397800,12.329397705078126,-0.23704910278320312,0.39873552322387695,-0.17962133884429932
1772721085439993600,12.34799365234375,-0.9454221725463867,0.47197067737579346,0.10060837864875793
1772721085458589400,12.36658935546875,-1.0972251892089844,0.3211705684661865,-0.06345593929290771
1772721085477185300,12.385185302734374,-0.4178647994995117,-0.12281697988510132,-0.44110947847366333
1772721085495781000,12.403781005859376,0.3397645950317383,-0.33738183975219727,-0.4897674024105072
1772721085514377000,12.422376953125,0.6174211502075195,-0.3364027738571167,-0.42087748646736145
1772721085532972800,12.440972900390625,-0.03927135467529297,0.02687394618988037,0.04723814129829407
1772721085551568600,12.459568603515624,-0.8386116027832031,0.3633612394332886,0.004118978977203369
1772721085570164500,12.47816455078125,-1.304159164428711,0.6340014934539795,0.1843753606081009
1772721085588760300,12.49676025390625,-1.1968193054199219,0.8650450706481934,0.5027931332588196
1772721085607356200,12.515356201171874,-0.7256765365600586,0.9614685773849487,0.9140303134918213
1772721085625952000,12.533951904296876,-0.1756725311279297,1.0175740718841553,1.2120927572250366
1772721085644547800,12.5525478515625,0.15405559539794922,0.9052033424377441,0.965203046798706
1772721085663143700,12.571143798828125,0.3062753677368164,0.7751684188842773,0.3926573097705841
1772721085681739500,12.589739501953124,0.5406360626220703,0.4959520101547241,-0.18871420621871948
1772721085700335600,12.608335693359376,0.5181140899658203,0.6691586971282959,-0.6320916414260864
1772721085718931500,12.626931396484375,0.16611003875732422,0.8725095987319946,-0.5431235432624817
1772721085737527300,12.64552734375,-0.16794204711914062,1.0502465963363647,-0.36943286657333374
1772721085756123100,12.664123046875,-0.2268352508544922,1.1889674663543701,-0.024745702743530273
1772721085774719000,12.682718994140625,-0.3552389144897461,1.411163091659546,0.26532235741615295
1772721085793314800,12.701314697265625,-0.1932668685913086,1.6721947193145752,1.0730310678482056
1772721085811910700,12.71991064453125,0.25840282440185547,1.5254396200180054,1.856144666671753
1772721085830506500,12.738506591796876,1.1306018829345703,1.1380263566970825,1.1446778774261475
1772721085849102300,12.757102294921875,2.0575361251831055,0.5131492614746094,-0.04846702516078949
1772721085867698200,12.7756982421875,2.656796455383301,-0.1600583791732788,-0.04346681386232376
1772721085886294000,12.7942939453125,1.397465705871582,-0.6643857955932617,-0.5581943392753601
1772721085904889900,12.812889892578125,0.5751876831054688,-1.0334055423736572,-0.6658397912979126
