time,seconds_elapsed,z,y,x
1772721073185246700,0.093246826171875,-0.10231985151767731,-0.168675035238266,0.34552037715911865
1772721073203842800,0.1118427734375,-0.11972949653863907,-0.16470441222190857,0.20166173577308655
1772721073222439000,0.13043896484375,-0.09437860548496246,-0.12927426397800446,0.106366828083992
1772721073241035000,0.149034912109375,-0.04520399495959282,-0.09812015295028687,0.11094831675291061
1772721073259631000,0.167631103515625,0.0021380267571657896,0.012751801870763302,0.256334125995636
1772721073278227200,0.186227294921875,0.04581485688686371,0.07567087560892105,0.43256860971450806
1772721073296823300,0.2048232421875,0.06017018109560013,0.15722131729125977,0.441426157951355
1772721073315419400,0.22341943359375,0.1029307171702385,0.13217586278915405,0.2917642891407013
1772721073334015500,0.242015380859375,0.09132428467273712,-0.010766491293907166,0.0755181610584259
1772721073352611600,0.260611572265625,0.06261363625526428,-0.0397825688123703,-0.08239039033651352
1772721073371207700,0.279207763671875,0.04306596517562866,-0.03428478538990021,-0.12148573249578476
1772721073389803800,0.2978037109375,-0.0009162971982732415,-0.0501672700047493,-0.030772313475608826
1772721073408399600,0.316399658203125,-0.06108647957444191,0.057039499282836914,0.24442227184772491
1772721073426996000,0.334995849609375,-0.1585194170475006,0.06039925664663315,0.58039790391922
1772721073445591800,0.353591796875,-0.23487751185894012,0.01824958436191082,0.8058069944381714
1772721073464188200,0.372188232421875,-0.19792018830776215,-0.019929463043808937,0.821384072303772
1772721073482784000,0.390783935546875,-0.09193515032529831,-0.049861837178468704,0.6469821333885193
1772721073501380400,0.40938037109375,0.05039634555578232,-0.16562071442604065,0.23312127590179443
1772721073519976200,0.42797607421875,0.21655155718326569,-0.21784965693950653,-0.34384050965309143
1772721073538572300,0.446572265625,0.2733619809150696,-0.1268308013677597,-0.667904257774353
1772721073557168400,0.46516845703125,0.25350889563560486,-0.08009964227676392,-0.6046797633171082
1772721073575764500,0.483764404296875,0.3231474757194519,-0.23189954459667206,-0.4421897530555725
1772721073594360600,0.502360595703125,0.48502662777900696,-0.4670824706554413,-0.44066259264945984
1772721073612956700,0.520956787109375,0.5259546041488647,-0.32963791489601135,-0.4067595899105072
1772721073631552800,0.539552734375,0.3915643095970154,-0.22762349247932434,-0.3200167715549469
1772721073650148900,0.55814892578125,0.27580544352531433,-0.11430807411670685,-0.09308052062988281
1772721073668745000,0.576744873046875,0.1646280586719513,0.15874847769737244,0.17203480005264282
1772721073687341000,0.595341064453125,0.18875721096992493,0.25954118371009827,0.28412848711013794
1772721073705937200,0.613937255859375,0.13958260416984558,0.1966221034526825,0.343993216753006
1772721073724533200,0.632533203125,0.10445787757635117,-0.08407026529312134,0.38583746552467346
1772721073743129300,0.65112939453125,0.11423171311616898,-0.32352927327156067,0.4087449014186859
1772721073761725400,0.669725341796875,0.09071341902017593,-0.4402044415473938,0.3107011020183563
1772721073780321500,0.688321533203125,0.021380268037319183,-0.1989128440618515,0.06421715766191483
1772721073798917600,0.706917724609375,-0.050090912729501724,0.1654679924249649,-0.16485713422298431
1772721073817513500,0.725513427734375,-0.06750056147575378,0.44005170464515686,-0.22472187876701355
1772721073836109800,0.74410986328125,-0.09712749719619751,0.6446914076805115,-0.2525162398815155
1772721073854705700,0.76270556640625,-0.14233149588108063,0.8120683431625366,-0.29588761925697327
1772721073873301800,0.7813017578125,-0.20616686344146729,0.9308815598487854,-0.2925278842449188
1772721073891897900,0.79989794921875,-0.2779434621334076,0.8624647259712219,-0.21922409534454346
1772721073910494000,0.818493896484375,-0.3231474757194519,0.6471349000930786,-0.05367974191904068
1772721073929090000,0.837090087890625,-0.32192572951316833,0.4027889668941498,0.12408190965652466
1772721073947686100,0.85568603515625,-0.25320345163345337,0.18898628652095795,0.20807582139968872
1772721073966282200,0.8742822265625,-0.1744018942117691,0.01672242395579815,0.21571162343025208
1772721073984878300,0.89287841796875,-0.03298669680953026,-0.13049599528312683,0.23770275712013245
1772721074003474400,0.911474365234375,0.1078176349401474,-0.21113014221191406,0.33544111251831055
1772721074022070500,0.930070556640625,0.18417572975158691,-0.16226094961166382,0.35559967160224915
1772721074040666600,0.94866650390625,0.24801109731197357,0.02649625949561596,0.224569171667099
1772721074059262700,0.9672626953125,0.3170388340950012,0.17676898837089539,0.06330086290836334
1772721074077858600,0.985858642578125,0.49021899700164795,0.22014039754867554,-0.000839939049910754
1772721074096454700,1.00445458984375,0.5464185476303101,0.2925278842449188,-0.05001455545425415
1772721074115050800,1.02305078125,0.5888736248016357,0.34811657667160034,-0.18776455521583557
1772721074133646800,1.041646728515625,0.5626064538955688,0.47181668877601624,-0.37988153100013733
1772721074152243000,1.060242919921875,0.4932733178138733,0.5124391913414001,-0.5551997423171997
1772721074170839000,1.078839111328125,0.43432486057281494,0.47761988639831543,-0.6117047071456909
1772721074189435100,1.09743505859375,0.3955349326133728,0.339869886636734,-0.5692496299743652
1772721074208031200,1.11603125,0.3759872615337372,0.16760602593421936,-0.4693732261657715
1772721074226627300,1.13462744140625,0.364991694688797,0.04298960790038109,-0.28061601519584656
1772721074245223400,1.153223388671875,0.37262752652168274,-0.10178534686565399,-0.12851068377494812
1772721074263819300,1.1718193359375,0.3744601011276245,-0.12957969307899475,-0.033826638013124466
1772721074282415400,1.190415283203125,0.3744601011276245,-0.09750928729772568,-0.0322994738817215
1772721074301011500,1.209011474609375,0.3814850449562073,-0.02084576152265072,-0.10041090101003647
1772721074319607600,1.227607666015625,0.4563159942626953,-0.030314164236187935,-0.13858994841575623
1772721074338203600,1.24620361328125,0.5952877402305603,-0.173256516456604,-0.062537282705307
1772721074356799700,1.2647998046875,0.6130027770996094,-0.31436628103256226,0.16653701663017273
1772721074375395800,1.283395751953125,0.5137372612953186,-0.3748418986797333,0.4395935535430908
1772721074393992000,1.301991943359375,0.31459537148475647,-0.28473934531211853,0.5171734094619751
1772721074412588000,1.320588134765625,0.040317077189683914,0.1242346242070198,0.32597270607948303
1772721074431184000,1.339183837890625,-0.07544180005788803,0.48036879301071167,-0.01672242395579815
1772721074449780000,1.357780029296875,-0.04367683082818985,0.6746237874031067,-0.279394268989563
1772721074468376000,1.3763759765625,0.038789913058280945,0.7827468514442444,-0.4113410711288452
1772721074486972200,1.39497216796875,0.11392628401517868,0.8673516511917114,-0.30779948830604553
1772721074505568300,1.413568359375,0.12492185086011887,0.7195223569869995,-0.010919207707047462
1772721074524164400,1.432164306640625,0.0824667438864708,0.49686214327812195,0.2905425727367401
1772721074542760400,1.450760498046875,0.04520399495959282,0.20425790548324585,0.4307360351085663
1772721074561356500,1.4693564453125,0.06322450190782547,-0.08162680268287659,0.38095054030418396
1772721074579952600,1.48795263671875,0.0977383628487587,-0.2554178237915039,0.22243113815784454
1772721074598548500,1.506548583984375,0.1185077652335167,-0.27985242009162903,0.09201150387525558
1772721074617144600,1.52514453125,0.15821397304534912,-0.18058690428733826,0.06788235157728195
1772721074635740700,1.54374072265625,0.17043127119541168,-0.059635672718286514,0.08437569439411163
1772721074654336800,1.562336669921875,0.1334739476442337,0.0576503649353981,0.07704532146453857
1772721074672932900,1.580932861328125,0.12247838824987411,0.17493639886379242,0.0034361144062131643
1772721074691529000,1.599529052734375,0.18784092366695404,0.29191699624061584,-0.10957387089729309
1772721074710124800,1.618124755859375,0.26908594369888306,0.39332056045532227,-0.2225838601589203
1772721074728721200,1.63672119140625,0.3243691921234131,0.4901426136493683,-0.32734715938568115
1772721074747317000,1.65531689453125,0.37354379892349243,0.493196964263916,-0.408592164516449
1772721074765913000,1.6739130859375,0.37781986594200134,0.372245728969574,-0.38140869140625
1772721074784509200,1.69250927734375,0.3845393657684326,0.256792277097702,-0.26595523953437805
1772721074803105300,1.711105224609375,0.3961458206176758,0.13706278800964355,-0.19356778264045715
1772721074821701400,1.729701416015625,0.33017241954803467,0.027717988938093185,-0.16332997381687164
1772721074840297500,1.74829736328125,0.2467893660068512,-0.014737112447619438,-0.13217586278915405
1772721074858893600,1.7668935546875,0.2522871494293213,0.0023671009112149477,-0.11873684078454971
1772721074877489400,1.785489501953125,0.33750277757644653,-0.0006872228696011007,-0.21494804322719574
1772721074896085500,1.80408544921875,0.43279770016670227,0.06986765563488007,-0.31696245074272156
1772721074914681600,1.822681640625,0.5174024701118469,0.10468695312738419,-0.3969857394695282
1772721074933277700,1.841277587890625,0.544891357421875,0.03565923124551773,-0.46051567792892456
1772721074951873500,1.85987353515625,0.5021308660507202,-0.023594651371240616,-0.40920305252075195
1772721074970470000,1.878469970703125,0.45326167345046997,-0.07979421317577362,-0.30566146969795227
1772721074989065700,1.897065673828125,0.4276053309440613,-0.10392337292432785,-0.1611919403076172
1772721075007661800,1.915661865234375,0.40958482027053833,-0.14118611812591553,-0.07200568914413452
1772721075026258000,1.9342578125,0.3787361681461334,-0.1628718227148056,-0.06498073786497116
1772721075044854000,1.95285400390625,0.31520622968673706,-0.12957969307899475,-0.11537708342075348
1772721075063450000,1.9714501953125,0.24862197041511536,-0.03245219215750694,-0.15752676129341125
1772721075082046000,1.9900458984375,0.1798996776342392,0.07261654734611511,-0.16241367161273956
1772721075100642000,2.00864208984375,0.07330377399921417,0.15202897787094116,-0.14866921305656433
1772721075119238100,2.027238037109375,-0.013133592903614044,0.2277761995792389,-0.13645191490650177
1772721075137834200,2.045834228515625,-0.06902772188186646,0.29161158204078674,-0.12576179206371307
1772721075156430300,2.064430419921875,-0.10384701192378998,0.3148244321346283,-0.10193806141614914
1772721075175026400,2.0830263671875,-0.13591741025447845,0.30688318610191345,-0.06528617441654205
1772721075193622500,2.10162255859375,-0.14660754799842834,0.24396412074565887,-0.02283107116818428
1772721075212218400,2.12021826171875,-0.10903936624526978,0.15691588819026947,0.013209951110184193
1772721075230814500,2.138814453125,-0.08857539296150208,0.06589704006910324,0.08376483619213104
1772721075249410600,2.15741064453125,-0.09926552325487137,-0.08834631741046906,0.1836412250995636
1772721075268006700,2.176006591796875,-0.15149445831775665,-0.20105087757110596,0.30367615818977356
1772721075286602500,2.1946025390625,-0.26389357447624207,-0.23098324239253998,0.4053851366043091
1772721075305198600,2.213198486328125,-0.3799578845500946,-0.14637847244739532,0.38644832372665405
1772721075323794700,2.231794677734375,-0.4407389461994171,-0.02023489587008953,0.22182027995586395
1772721075342390800,2.250390869140625,-0.4834994673728943,-0.08223766833543777,0.10911571979522705
1772721075360987000,2.26898681640625,-0.5192350745201111,-0.229150652885437,0.1833357959985733
1772721075379583000,2.2875830078125,-0.527481734752655,-0.3632354736328125,0.3287216126918793
1772721075398179000,2.306178955078125,-0.5476402640342712,-0.4508945643901825,0.4365392327308655
1772721075416775000,2.32477490234375,-0.5888736248016357,-0.38064512610435486,0.4359283745288849
1772721075435371000,2.34337109375,-0.6163625717163086,-0.2596938908100128,0.3107011020183563
1772721075453967000,2.361967041015625,-0.5928442478179932,-0.1482110619544983,0.20257803797721863
1772721075472563200,2.380563232421875,-0.5671879649162292,-0.057497646659612656,0.21723878383636475
1772721075491159300,2.3991591796875,-0.5900954008102417,-0.03306305781006813,0.3891972303390503
1772721075509755100,2.417755126953125,-0.6075050234794617,0.028634287416934967,0.5834522247314453
1772721075528351200,2.436351318359375,-0.5128209590911865,0.072921983897686,0.646065890789032
1772721075546947300,2.454947265625,-0.35216355323791504,0.060704685747623444,0.5794816017150879
1772721075565543400,2.47354345703125,-0.16065743565559387,-0.005574141163378954,0.47991064190864563
1772721075584139300,2.49213916015625,0.04367683082818985,-0.10361793637275696,0.377285361289978
1772721075602735400,2.5107353515625,0.19853104650974274,-0.28901541233062744,0.28504478931427
1772721075621331500,2.52933154296875,0.2974911332130432,-0.5150353908538818,0.2303723841905594
1772721075639927600,2.547927490234375,0.3292561173439026,-0.6393463611602783,0.1628718227148056
1772721075658523600,2.566523681640625,0.31612253189086914,-0.6769145131111145,0.03367391973733902
1772721075677119500,2.585119384765625,0.1853974610567093,-0.6063596606254578,-0.07475458085536957
1772721075695715600,2.603715576171875,-0.05925388261675835,-0.32536184787750244,-0.19020801782608032
1772721075714311700,2.622311767578125,-0.34666576981544495,0.03932442143559456,-0.3499491512775421
1772721075732907800,2.64090771484375,-0.6783653497695923,0.4986947476863861,-0.4632645845413208
1772721075751504000,2.65950390625,-0.9434806704521179,0.8496365547180176,-0.4901426136493683
1772721075770099700,2.678099609375,-1.0583232641220093,0.9855539798736572,-0.3853793144226074
1772721075788695800,2.69669580078125,-1.0372483730316162,0.9999092817306519,-0.15691588819026947
1772721075807292000,2.7152919921875,-0.8857539296150208,0.741818904876709,0.037949975579977036
1772721075825888000,2.733887939453125,-0.6667588949203491,0.3954585790634155,0.1833357959985733
1772721075844484000,2.752484130859375,-0.4465421438217163,-0.03581194952130318,0.3284161686897278
1772721075863080000,2.771079833984375,-0.2809978127479553,-0.45242172479629517,0.4447859227657318
1772721075881676000,2.789676025390625,-0.20769402384757996,-0.764879047870636,0.4918225109577179
1772721075900272000,2.808272216796875,-0.24251331388950348,-0.8250492215156555,0.4771617650985718
1772721075918868200,2.8268681640625,-0.3139844834804535,-0.6332377195358276,0.37026041746139526
1772721075937464000,2.845464111328125,-0.3640754222869873,-0.3568213880062103,0.17936517298221588
1772721075956060200,2.86406005859375,-0.37293294072151184,-0.14668390154838562,0.012904518283903599
1772721075974656300,2.88265625,-0.3634645342826843,0.06406444311141968,-0.09246965497732162
1772721075993252400,2.90125244140625,-0.3646862804889679,0.20822852849960327,-0.19387321174144745
1772721076011848400,2.919848388671875,-0.32162031531333923,0.1914297491312027,-0.25007277727127075
1772721076030444300,2.9384443359375,-0.28985533118247986,0.058566659688949585,-0.2112828493118286
1772721076049040400,2.957040283203125,-0.3436114490032196,-0.08498656004667282,-0.14897464215755463
1772721076067636500,2.975636474609375,-0.4453204274177551,-0.1521816849708557,-0.09002619981765747
1772721076086232300,2.994232421875,-0.5540543794631958,-0.2407570779323578,-0.0243582334369421
1772721076104828400,3.012828369140625,-0.6374374032020569,-0.3424660563468933,0.02328922040760517
1772721076123424500,3.031424560546875,-0.638353705406189,-0.4560869038105011,0.03825540840625763
1772721076142020600,3.0500205078125,-0.5748237371444702,-0.5098429918289185,0.06879864633083344
1772721076160616700,3.06861669921875,-0.4761691093444824,-0.4457022249698639,0.11094831675291061
1772721076179212500,3.087212646484375,-0.3946186602115631,-0.2401462197303772,0.11980585753917694
1772721076197808600,3.10580859375,-0.37812530994415283,-0.17142392694950104,0.11064288020133972
1772721076216404700,3.12440478515625,-0.44501498341560364,-0.1274416595697403,0.09201150387525558
1772721076235000800,3.143000732421875,-0.5351175665855408,-0.0907897800207138,0.0397825688123703
1772721076253596700,3.1615966796875,-0.5992583632469177,0.03779725730419159,-0.025274530053138733
1772721076272192800,3.18019287109375,-0.6539307236671448,0.39820748567581177,-0.12851068377494812
1772721076290788900,3.198788818359375,-0.6420188546180725,0.8410844206809998,-0.2369391769170761
1772721076309384700,3.217384765625,-0.6056724190711975,1.1480439901351929,-0.3108538091182709
1772721076327980800,3.235980712890625,-0.5723803043365479,1.2396737337112427,-0.30107998847961426
1772721076346577000,3.254576904296875,-0.5097666382789612,1.1168898344039917,-0.23327398300170898
1772721076365173000,3.273173095703125,-0.38728827238082886,0.7137191295623779,-0.04848739132285118
1772721076383769000,3.29176904296875,-0.29565855860710144,0.3285689055919647,0.3891972303390503
1772721076402365000,3.310364990234375,-0.22449280321598053,-0.053832460194826126,0.6964622139930725
1772721076420961000,3.3289609375,-0.17776164412498474,-0.3849211633205414,0.7541889548301697
1772721076439557000,3.34755712890625,-0.11728604137897491,-0.6784417033195496,0.6127737164497375
1772721076458153000,3.366153076171875,-0.0665842592716217,-0.9438624382019043,0.37697991728782654
1772721076476749000,3.3847490234375,-0.06627883017063141,-1.0638973712921143,0.24106250703334808
1772721076495345200,3.40334521484375,-0.16249002516269684,-0.9774600267410278,0.15706861019134521
1772721076513941200,3.421941162109375,-0.34116798639297485,-0.6759982109069824,0.14912736415863037
1772721076532537000,3.440537109375,-0.5396990180015564,-0.2590830326080322,0.2041051983833313
1772721076551133200,3.45913330078125,-0.7418952584266663,0.10743584483861923,0.17997603118419647
1772721076569729300,3.477729248046875,-0.8491020202636719,0.3817141354084015,0.04069886729121208
1772721076588325000,3.4963251953125,-0.7883210182189941,0.7176897525787354,-0.16241367161273956
1772721076606921200,3.514921142578125,-0.6557633280754089,0.9253838062286377,-0.3560578227043152
1772721076625517300,3.533517333984375,-0.5247328281402588,1.0261764526367188,-0.5466476082801819
1772721076644113400,3.552113525390625,-0.4871646761894226,1.0982584953308105,-0.6107884049415588
1772721076662709500,3.57070947265625,-0.5115992426872253,0.9614248275756836,-0.5405389666557312
1772721076681305300,3.589305419921875,-0.5952877402305603,0.5784125924110413,-0.32765260338783264
1772721076699901400,3.6079013671875,-0.7602212429046631,0.17371466755867004,0.07215840369462967
1772721076718497500,3.62649755859375,-0.8949168920516968,-0.18150319159030914,0.45242172479629517
1772721076737093400,3.64509326171875,-0.9789108037948608,-0.4444804787635803,0.5926151871681213
1772721076755689500,3.663689453125,-1.074205756187439,-0.5296961069107056,0.5104538798332214
1772721076774285600,3.68228564453125,-1.1869102716445923,-0.48449212312698364,0.307646781206131
1772721076792881700,3.700881591796875,-1.28556489944458,-0.45242172479629517,0.11522436887025833
1772721076811477500,3.7194775390625,-1.3362667560577393,-0.4411207437515259,-0.0057268571108579636
1772721076830073600,3.738073486328125,-1.3142756223678589,-0.3995819091796875,-0.07658717036247253
1772721076848669700,3.756669677734375,-1.2498292922973633,-0.3791179656982422,-0.093691386282444
1772721076867265500,3.775265625,-1.1575887203216553,-0.22182027995586395,-0.04940368980169296
1772721076885861600,3.793861572265625,-1.05496346950531,-0.05169443041086197,-0.03535379841923714
1772721076904457700,3.812457763671875,-0.9908226728439331,0.0732274129986763,-0.06131555140018463
1772721076923053600,3.831053466796875,-1.0146464109420776,0.17493639886379242,-0.08972076326608658
1772721076941649700,3.849649658203125,-1.125823736190796,0.21494804322719574,-0.1037706509232521
1772721076960245800,3.868245849609375,-1.2904518842697144,0.2671769857406616,-0.03504836559295654
1772721076978841900,3.886841796875,-1.4556907415390015,0.22808164358139038,0.03520108386874199
1772721076997437700,3.905437744140625,-1.6145156621932983,0.057039499282836914,0.18241949379444122
1772721077016033800,3.92403369140625,-1.6719368696212769,-0.21143557131290436,0.3571268320083618
1772721077034630000,3.9426298828125,-1.6615521907806396,-0.5477166175842285,0.5095375776290894
1772721077053225700,3.961225830078125,-1.740659236907959,-0.8696423768997192,0.6210203766822815
1772721077071821800,3.97982177734375,-1.9428554773330688,-1.0758092403411865,0.6763036847114563
1772721077090418000,3.99841796875,-2.190561056137085,-1.0214422941207886,0.6503419280052185
1772721077109013800,4.017013671875,-2.403447389602661,-0.7340303659439087,0.5773435831069946
1772721077127609900,4.03560986328125,-2.472169876098633,-0.46280643343925476,0.4960985481739044
1772721077146206000,4.0542060546875,-2.4046692848205566,-0.37087127566337585,0.5067886710166931
1772721077164801800,4.0728017578125,-2.2311835289001465,-0.43806639313697815,0.5220603346824646
1772721077183398000,4.09139794921875,-2.137721300125122,-0.581314206123352,0.4814378023147583
1772721077201994000,4.109993896484375,-2.156963586807251,-0.6485093235969543,0.3363574147224426
1772721077220589800,4.12858984375,-2.254396438598633,-0.6604211926460266,0.23770275712013245
1772721077239186000,4.14718603515625,-2.361603260040283,-0.7178424596786499,0.23403756320476532
1772721077257782000,4.165781982421875,-2.4077234268188477,-0.7245619893074036,0.29451319575309753
1772721077276378000,4.184378173828125,-2.3854269981384277,-0.6353757381439209,0.36170831322669983
1772721077294974000,4.202973876953125,-2.316093921661377,-0.42279478907585144,0.4105774760246277
1772721077313570000,4.221570068359375,-2.20461106300354,-0.10850485414266586,0.38186684250831604
1772721077332166100,4.240166259765625,-1.9718714952468872,0.07108938694000244,0.22609633207321167
1772721077350762000,4.258761962890625,-1.666744589805603,0.09094249457120895,0.053832460194826126
1772721077369358000,4.277358154296875,-1.3173298835754395,-0.04222602769732475,-0.07261654734611511
1772721077387954200,4.2959541015625,-0.9743293523788452,-0.21021384000778198,-0.21097742021083832
1772721077406550000,4.314550048828125,-0.7531962990760803,-0.32047492265701294,-0.367053359746933
1772721077425146000,4.33314599609375,-0.7147117853164673,-0.34613126516342163,-0.5127446055412292
1772721077443742200,4.3517421875,-0.8655954003334045,-0.15493057668209076,-0.667904257774353
1772721077462338000,4.370338134765625,-1.1502584218978882,0.14194969832897186,-0.7531198859214783
1772721077480934100,4.38893408203125,-1.4361430406570435,0.3413970470428467,-0.6749292016029358
1772721077499530200,4.4075302734375,-1.6838487386703491,0.3566686809062958,-0.4434114694595337
1772721077518126000,4.4261259765625,-1.849698543548584,0.2167806327342987,-0.16791145503520966
1772721077536722200,4.44472216796875,-1.895818829536438,-0.004657844081521034,0.06299543380737305
1772721077555318000,4.463318115234375,-1.8270965814590454,-0.22609633207321167,0.14851650595664978
1772721077573914000,4.4819140625,-1.7620394229888916,-0.3876700699329376,0.19127702713012695
1772721077592510200,4.50051025390625,-1.7168354988098145,-0.5303069949150085,0.23403756320476532
1772721077611106300,4.519106201171875,-1.6814053058624268,-0.5846739411354065,0.2874882221221924
1772721077629702100,4.5377021484375,-1.676518440246582,-0.534277617931366,0.3568213880062103
1772721077648298200,4.55629833984375,-1.6591087579727173,-0.3333030939102173,0.34521496295928955
1772721077666894300,4.574894287109375,-1.5873321294784546,-0.18272492289543152,0.26763513684272766
1772721077685490200,4.593490234375,-1.489288330078125,-0.10056361556053162,0.2086866796016693
1772721077704086300,4.612086181640625,-1.3665045499801636,-0.11003202199935913,0.20227259397506714
1772721077722682400,4.630682373046875,-1.2284491062164307,-0.20044000446796417,0.19127702713012695
1772721077741278200,4.6492783203125,-1.1395682096481323,-0.29451319575309753,0.1784488707780838
1772721077759874300,4.667874267578125,-1.1588104963302612,-0.30367615818977356,0.1937204897403717
1772721077778470400,4.686470458984375,-1.2528836727142334,-0.24686573445796967,0.2199876755475998
1772721077797066200,4.705066162109375,-1.29503333568573,-0.23098324239253998,0.24747659265995026
1772721077815662300,4.723662353515625,-1.2437206506729126,-0.23831361532211304,0.2401462197303772
1772721077834258400,4.742258544921875,-1.1536180973052979,-0.2251800298690796,0.18761184811592102
1772721077852854300,4.760854248046875,-1.0415244102478027,-0.1634826809167862,0.1170569658279419
1772721077871450400,4.779450439453125,-0.9334014058113098,-0.07338013499975204,0.026038112118840218
1772721077890046500,4.79804638671875,-0.8576541543006897,0.014584396965801716,-0.061620984226465225
1772721077908642300,4.816642333984375,-0.8301652073860168,0.06589704006910324,-0.10865757614374161
1772721077927238400,4.83523828125,-0.841160774230957,0.10254892706871033,-0.10041090101003647
1772721077945834500,4.85383447265625,-0.8723149299621582,0.14317142963409424,-0.07750347256660461
1772721077964430300,4.872430419921875,-0.9037744402885437,0.18501566350460052,-0.07750347256660461
1772721077983026400,4.8910263671875,-0.9138537049293518,0.2625955045223236,-0.08758273720741272
1772721078001622500,4.90962255859375,-0.8845322132110596,0.3157407343387604,-0.114460788667202
1772721078020218400,4.92821826171875,-0.8249728679656982,0.33742642402648926,-0.12056943774223328
1772721078038814500,4.946814453125,-0.7776308655738831,0.3300960659980774,-0.10865757614374161
1772721078057410300,4.965410400390625,-0.7443387508392334,0.3294851779937744,-0.10468695312738419
1772721078076006400,4.98400634765625,-0.7128791809082031,0.3401753306388855,-0.11507165431976318
1772721078094602500,5.0026025390625,-0.6911935210227966,0.3456731140613556,-0.12606722116470337
1772721078113198300,5.0211982421875,-0.6591231226921082,0.3701077103614807,-0.08941533416509628
1772721078131794400,5.03979443359375,-0.6114756464958191,0.32826346158981323,-0.029245151206851006
1772721078150390300,5.058390380859375,-0.5757400393486023,0.20853395760059357,0.06757691502571106
1772721078168986400,5.076986328125,-0.5659661889076233,0.03871355578303337,0.17539454996585846
1772721078187582500,5.09558251953125,-0.5858193039894104,-0.10881029069423676,0.23220497369766235
1772721078206178300,5.11417822265625,-0.5998691916465759,-0.16745330393314362,0.21601705253124237
1772721078224774400,5.1327744140625,-0.600785493850708,-0.013209951110184193,0.20746494829654694
1772721078243370200,5.151370361328125,-0.5619956254959106,0.16180281341075897,0.24228423833847046
1772721078261966300,5.16996630859375,-0.47372564673423767,0.27175846695899963,0.3482692837715149
1772721078280562400,5.1885625,-0.3857611119747162,0.36216646432876587,0.38644832372665405
1772721078299158300,5.207158203125,-0.31642794609069824,0.4626537263393402,0.2599993348121643
1772721078317754400,5.22575439453125,-0.24037529528141022,0.5157989263534546,0.11400263756513596
1772721078336350200,5.24435009765625,-0.17623448371887207,0.5228238701820374,0.20715951919555664
1772721078354946300,5.2629462890625,-0.11117739230394363,0.428139865398407,0.4710530936717987
1772721078373542400,5.28154248046875,-0.08491020649671555,0.3084103465080261,0.7969494462013245
1772721078392138200,5.30013818359375,-0.10354158282279968,0.16485713422298431,0.98631751537323
1772721078410734300,5.318734375,-0.11667517572641373,-0.0031306820455938578,0.9188169836997986
1772721078429330400,5.337330322265625,-0.09560033679008484,-0.12988512217998505,0.6436223983764648
1772721078447926300,5.35592626953125,-0.06872228533029556,-0.25847217440605164,0.32414013147354126
1772721078466522400,5.3745224609375,-0.06841685622930527,-0.3836994469165802,0.21815508604049683
1772721078485118500,5.393118408203125,-0.11514800786972046,-0.4600575268268585,0.2813795804977417
1772721078503714300,5.41171435546875,-0.22235478460788727,-0.4652498960494995,0.3571268320083618
1772721078522310400,5.430310302734375,-0.39339691400527954,-0.36079201102256775,0.2804632782936096
1772721078540906200,5.44890625,-0.5861247777938843,-0.15095995366573334,-0.010919207707047462
1772721078559502300,5.46750244140625,-0.6927206516265869,0.002061668550595641,-0.34720027446746826
1772721078578098200,5.48609814453125,-0.6169734001159668,0.0423787422478199,-0.4724275469779968
1772721078596694300,5.5046943359375,-0.3426951467990875,-0.015042545273900032,-0.27511823177337646
1772721078615290000,5.5232900390625,-0.09712749719619751,-0.1326340138912201,0.034895651042461395
1772721078633886200,5.54188623046875,0.050090912729501724,-0.21021384000778198,0.16500984132289886
1772721078652482300,5.560482421875,0.05833758786320686,-0.22548545897006989,0.12377647310495377
1772721078671078100,5.579078125,0.0021380267571657896,-0.16745330393314362,-0.050930850207805634
1772721078689674200,5.59767431640625,0.025961752980947495,-0.08193223923444748,-0.29222244024276733
1772721078708270300,5.616270263671875,0.06566796451807022,0.01183550525456667,-0.4486038088798523
1772721078726866200,5.6348662109375,0.10415244847536087,0.013362666592001915,-0.4437169134616852
1772721078745462300,5.653462158203125,0.13652828335762024,-0.00923932995647192,-0.30688318610191345
1772721078764058000,5.67205810546875,0.12095122784376144,-0.05719221383333206,-0.21952952444553375
1772721078782654200,5.690654296875,0.01893680728971958,-0.004352411720901728,-0.23052509129047394
1772721078801250000,5.70925,-0.11331541836261749,0.07383827865123749,-0.35300347208976746
1772721078819846100,5.72784619140625,-0.2098320573568344,0.1346193253993988,-0.478841632604599
1772721078838442000,5.74644189453125,-0.25900667905807495,0.1755472719669342,-0.46570804715156555
1772721078857038000,5.7650380859375,-0.26511532068252563,0.1911243200302124,-0.3664425015449524
1772721078875634200,5.78363427734375,-0.28527384996414185,0.24121522903442383,-0.2781725525856018
1772721078894230000,5.80222998046875,-0.34697118401527405,0.33162322640419006,-0.25557056069374084
1772721078912826000,5.820826171875,-0.42424559593200684,0.4232529401779175,-0.27572908997535706
1772721078931422200,5.839422119140625,-0.5097666382789612,0.474260151386261,-0.2888626754283905
1772721078950018000,5.85801806640625,-0.5656607747077942,0.4986947476863861,-0.2928332984447479
1772721078968614000,5.87661376953125,-0.6056724190711975,0.55672687292099,-0.2952767610549927
1772721078987210000,5.8952099609375,-0.6591231226921082,0.6031526327133179,-0.2787834107875824
1772721079005806000,5.91380615234375,-0.7076868414878845,0.5921570658683777,-0.25007277727127075
1772721079024402000,5.93240185546875,-0.7308996915817261,0.4950295388698578,-0.1660788655281067
1772721079042998000,5.950998046875,-0.7260127663612366,0.3206276595592499,-0.04818195849657059
1772721079061593900,5.96959375,-0.712573766708374,0.1605810821056366,0.06910407543182373
1772721079080190000,5.98818994140625,-0.6908880472183228,0.002672533504664898,0.12347104400396347
1772721079098786000,6.0067861328125,-0.6527090072631836,-0.19280420243740082,0.13385574519634247
1772721079117382000,6.0253818359375,-0.6524035930633545,-0.40263625979423523,0.2202931046485901
1772721079135977700,6.043977783203125,-0.7128791809082031,-0.5257254838943481,0.34124433994293213
1772721079154573800,6.06257373046875,-0.8109229803085327,-0.5877282619476318,0.4200458824634552
1772721079173170000,6.081169921875,-0.8707877397537231,-0.606970489025116,0.4951822757720947
1772721079191765800,6.099765869140625,-0.8768963813781738,-0.6005564332008362,0.5125918984413147
1772721079210361900,6.11836181640625,-0.832608699798584,-0.626518189907074,0.47991064190864563
1772721079228957700,6.136957763671875,-0.7919861674308777,-0.6042216420173645,0.3736201822757721
1772721079247553800,6.1555537109375,-0.739757239818573,-0.6866883635520935,0.30306529998779297
1772721079266149600,6.174149658203125,-0.629496157169342,-0.8558979034423828,0.31894776225090027
1772721079284745700,6.192745849609375,-0.5097666382789612,-0.9585232138633728,0.40110909938812256
1772721079303341600,6.211341552734375,-0.4425715208053589,-0.9307288527488708,0.4664716124534607
1772721079321937700,6.229937744140625,-0.4776962697505951,-0.6866883635520935,0.43226319551467896
1772721079340533800,6.24853369140625,-0.6206386089324951,-0.22823435068130493,0.22243113815784454
1772721079359129600,6.267129638671875,-0.7987056970596313,0.26564982533454895,-0.01672242395579815
1772721079377725400,6.285725341796875,-0.9462295174598694,0.6343067288398743,-0.1395062506198883
1772721079396321500,6.304321533203125,-1.0164790153503418,0.8658244609832764,-0.1605810821056366
1772721079414917600,6.322917724609375,-1.0164790153503418,0.9201914072036743,-0.08910989761352539
1772721079433513500,6.341513427734375,-0.9199623465538025,0.8062651753425598,0.04802924394607544
1772721079452109600,6.360109619140625,-0.7324268817901611,0.6633228063583374,0.21235187351703644
1772721079470705400,6.378705322265625,-0.5170970559120178,0.37346744537353516,0.3320813775062561
1772721079489301500,6.397301513671875,-0.3448331654071808,0.03474293276667595,0.3827831447124481
1772721079507897300,6.4158974609375,-0.21655155718326569,-0.2612210512161255,0.38705918192863464
1772721079526493400,6.434493408203125,-0.10934479534626007,-0.5073995590209961,0.367511510848999
1772721079545089300,6.45308935546875,-0.029016077518463135,-0.7160098552703857,0.3485747277736664
1772721079563685400,6.471685302734375,-0.006719512399286032,-0.7538834810256958,0.3082576394081116
1772721079582281200,6.49028125,-0.06505709886550903,-0.6323214173316956,0.20013457536697388
1772721079600877300,6.508877197265625,-0.24434591829776764,-0.41668614745140076,0.095982126891613
1772721079619473200,6.52747314453125,-0.43951719999313354,-0.12866339087486267,0.00923932995647192
1772721079638069200,6.5460693359375,-0.5729911923408508,0.17921245098114014,-0.10529781877994537
1772721079656665300,6.564665283203125,-0.6102539300918579,0.34200790524482727,-0.16730059683322906
1772721079675261200,6.58326123046875,-0.5534434914588928,0.32795801758766174,-0.1092684343457222
1772721079693857000,6.60185693359375,-0.46364638209342957,0.15202897787094116,-0.026190826669335365
1772721079712453000,6.620453125,-0.31093016266822815,-0.05413788929581642,0.049861837178468704
1772721079731049000,6.639049072265625,-0.0772743970155716,-0.2969566285610199,0.14637847244739532
1772721079749645000,6.65764501953125,0.13561198115348816,-0.5577958822250366,0.261526495218277
1772721079768241000,6.676240966796875,0.23548837006092072,-0.7169261574745178,0.3070359230041504
1772721079786837000,6.6948369140625,0.25045454502105713,-0.7825941443443298,0.22212570905685425
1772721079805432800,6.713432861328125,0.18631376326084137,-0.7254782915115356,0.0859028622508049
1772721079824029000,6.73202880859375,0.06200277432799339,-0.5306124091148376,-0.029245151206851006
1772721079842625000,6.750625,-0.08093958348035812,-0.34063348174095154,-0.10132719576358795
1772721079861220900,6.769220947265625,-0.21930044889450073,-0.20624321699142456,-0.13736821711063385
1772721079879816700,6.787816650390625,-0.324063777923584,-0.03428478538990021,-0.16394083201885223
1772721079898412800,6.806412841796875,-0.3634645342826843,0.03657552972435951,-0.093691386282444
1772721079917008600,6.825008544921875,-0.35216355323791504,-0.055970486253499985,-0.026801692321896553
1772721079935604700,6.843604736328125,-0.3536907136440277,-0.1631772518157959,-0.006948587018996477
1772721079954200600,6.86220068359375,-0.3894262909889221,-0.3064250349998474,-0.002672533504664898
1772721079972796700,6.880796630859375,-0.4422661066055298,-0.4249328076839447,0.033368486911058426
1772721079991392500,6.899392578125,-0.49663305282592773,-0.5110647678375244,0.1014799103140831
1772721080009988600,6.917988525390625,-0.5170970559120178,-0.4802160859107971,0.15615230798721313
1772721080028584400,6.93658447265625,-0.4819723069667816,-0.35040730237960815,0.13843722641468048
1772721080047180500,6.9551806640625,-0.4370737373828888,-0.18608468770980835,-0.012140937149524689
1772721080065776400,6.9737763671875,-0.42943793535232544,-0.12408190965652466,-0.08177952468395233
1772721080084372500,6.99237255859375,-0.527481734752655,0.09980003535747528,-0.00511599238961935
1772721080102968300,7.01096826171875,-0.7345649003982544,0.5625301003456116,-0.024663666263222694
1772721080121564200,7.029564208984375,-0.8182533979415894,0.9806670546531677,-0.03565923124551773
1772721080140160300,7.04816015625,-0.7015781998634338,1.204548954963684,0.06910407543182373
1772721080158756400,7.06675634765625,-0.5320632457733154,1.122998595237732,0.2407570779323578
1772721080177352200,7.085352294921875,-0.3127627670764923,0.816649854183197,0.3336085379123688
1772721080195948000,7.103947998046875,-0.09468404203653336,0.3612501621246338,0.3940841555595398
1772721080214544100,7.122544189453125,0.018325943499803543,-0.0012980876490473747,0.48388126492500305
1772721080233140200,7.14114013671875,0.05497783049941063,-0.12163844704627991,0.5037343502044678
1772721080251736000,7.159736083984375,0.08093958348035812,-0.31528258323669434,0.45944666862487793
1772721080270332000,7.178331787109375,0.07849612087011337,-0.5718457698822021,0.35590508580207825
1772721080288928000,7.196927978515625,0.07360920310020447,-0.7031817436218262,0.2144898921251297
1772721080307523800,7.21552392578125,0.07269290834665298,-0.617660641670227,0.002825249684974551
1772721080326120000,7.234119873046875,0.06505709886550903,-0.5522981286048889,-0.15691588819026947
1772721080344715800,7.2527158203125,0.05925388261675835,-0.38217228651046753,-0.1404225379228592
1772721080363311900,7.271311767578125,0.02260199747979641,-0.17203480005264282,-0.07414371520280838
1772721080381907700,7.28990771484375,-0.03787361457943916,0.015806125476956367,-0.1291215419769287
1772721080400503600,7.308503662109375,-0.05100720748305321,0.09674570709466934,-0.298331081867218
1772721080419099600,7.327099609375,0.015271619893610477,0.17768529057502747,-0.4727329909801483
1772721080437695700,7.34569580078125,0.12003492563962936,0.30566146969795227,-0.5613083839416504
1772721080456291600,7.36429150390625,0.20341797173023224,0.3187950551509857,-0.4944186806678772
1772721080474887400,7.382887451171875,0.19944734871387482,0.28733551502227783,-0.35300347208976746
1772721080493483500,7.4014833984375,0.1288924664258957,0.25587597489356995,-0.2732856273651123
1772721080512079400,7.420079345703125,0.06872228533029556,0.16699515283107758,-0.28183773159980774
1772721080530675500,7.438675537109375,0.07024945318698883,-0.006490438245236874,-0.34903284907341003
1772721080549271300,7.457271240234375,0.13225223124027252,-0.18700097501277924,-0.3615556061267853
1772721080567867100,7.4758671875,0.19211697578430176,-0.2957349121570587,-0.2671769857406616
1772721080586463200,7.494463134765625,0.231212317943573,-0.30856308341026306,-0.1556941568851471
1772721080605059000,7.51305908203125,0.2837466895580292,-0.24228423833847046,-0.1401171088218689
1772721080623655200,7.5316552734375,0.3543015718460083,-0.12896881997585297,-0.2271653413772583
1772721080642251000,7.5502509765625,0.4251618981361389,0.017333287745714188,-0.36888596415519714
1772721080660847000,7.56884716796875,0.4663952589035034,0.11537708342075348,-0.5090794563293457
1772721080679443000,7.58744287109375,0.4269944727420807,0.17799071967601776,-0.55672687292099
1772721080698038800,7.606038818359375,0.34605491161346436,0.23602287471294403,-0.5054142475128174
1772721080716635000,7.624634765625,0.2516762912273407,0.2885572612285614,-0.44646579027175903
1772721080735231000,7.64323095703125,0.1805105358362198,0.40492698550224304,-0.43088874220848083
1772721080753826800,7.661826904296875,0.10323614627122879,0.49777844548225403,-0.4831176698207855
1772721080772422700,7.680422607421875,0.037262752652168274,0.5038870573043823,-0.5249619483947754
1772721080791018800,7.699018798828125,-0.035735588520765305,0.46173742413520813,-0.4589885175228119
1772721080809614600,7.717614501953125,-0.14110976457595825,0.37774351239204407,-0.30749404430389404
1772721080828210400,7.73621044921875,-0.27427828311920166,0.25465425848960876,-0.1196531355381012
1772721080846806500,7.754806640625,-0.4428769648075104,0.10529781877994537,0.08468113094568253
1772721080865402400,7.77340234375,-0.61117023229599,-0.12102758139371872,0.30489787459373474
1772721080883998500,7.79199853515625,-0.7211259007453918,-0.28901541233062744,0.4710530936717987
1772721080902594300,7.81059423828125,-0.8206968307495117,-0.3415497839450836,0.5510764122009277
1772721080921190100,7.829190185546875,-0.9291253089904785,-0.22823435068130493,0.5471057891845703
1772721080939786200,7.8477861328125,-1.0146464109420776,-0.03550651669502258,0.45333802700042725
1772721080958382000,7.866382080078125,-1.064737319946289,0.013668099418282509,0.3372737169265747
1772721080976978000,7.88497802734375,-1.0360267162322998,-0.11094831675291061,0.3155880272388458
1772721080995574000,7.903573974609375,-0.9434806704521179,-0.2242637276649475,0.3482692837715149
1772721081014170000,7.922170166015625,-0.8478803038597107,-0.2963457703590393,0.40569058060646057
1772721081032766000,7.940765869140625,-0.8023709058761597,-0.24381139874458313,0.4264599680900574
1772721081051361800,7.95936181640625,-0.7953459620475769,-0.07490729540586472,0.3543779253959656
1772721081069958000,7.9779580078125,-0.8112284541130066,0.14133884012699127,0.1891390085220337
1772721081088553700,7.9965537109375,-0.7067705392837524,0.2882518172264099,-0.08727730810642242
1772721081107149800,8.01514990234375,-0.47983428835868835,0.3975966274738312,-0.30749404430389404
1772721081125745700,8.03374560546875,-0.2614501118659973,0.49166980385780334,-0.36338818073272705
1772721081144341500,8.052341552734376,-0.08674279600381851,0.49228066205978394,-0.2589302957057953
1772721081162937600,8.0709375,0.07941242307424545,0.432721346616745,-0.057955797761678696
1772721081181533400,8.089533447265625,0.2052505612373352,0.25007277727127075,0.13049599528312683
1772721081200129300,8.10812939453125,0.2822195291519165,-0.08498656004667282,0.24717116355895996
1772721081218725400,8.126725341796876,0.3344484567642212,-0.3745364546775818,0.2819904685020447
1772721081237321200,8.1453212890625,0.3335321843624115,-0.6222421526908875,0.22365286946296692
1772721081255917300,8.163917236328125,0.26542073488235474,-0.8433752059936523,0.14882193505764008
1772721081274513200,8.18251318359375,0.08277218043804169,-1.0379356145858765,0.06971494108438492
1772721081293109000,8.20110888671875,-0.38240134716033936,-1.1069633960723877,0.02909243479371071
1772721081311705000,8.219705078125,-1.0164790153503418,-0.7496074438095093,-0.07414371520280838
1772721081330301000,8.238301025390625,-1.561675786972046,-0.28351762890815735,-0.19967642426490784
1772721081348896800,8.256896728515626,-1.9327762126922607,0.09827287495136261,-0.212504580616951
1772721081367492900,8.275492919921875,-2.076024055480957,0.36858054995536804,-0.10529781877994537
1772721081386088700,8.294088623046875,-2.016770124435425,0.3850739002227783,0.08773545175790787
1772721081404684500,8.3126845703125,-1.8255693912506104,0.24701844155788422,0.2606101930141449
1772721081423280600,8.33128076171875,-1.5412118434906006,0.060093823820352554,0.34521496295928955
1772721081441876500,8.34987646484375,-1.2431098222732544,-0.1378263682126999,0.33941173553466797
1772721081460472300,8.368472412109375,-0.9923498630523682,-0.3436878025531769,0.26274821162223816
1772721081479068400,8.387068359375,-0.8148936033248901,-0.5367210507392883,0.20166173577308655
1772721081497664300,8.405664306640626,-0.7452550530433655,-0.6314051151275635,0.21815508604049683
1772721081516260400,8.42426025390625,-0.7357866168022156,-0.544967770576477,0.21815508604049683
1772721081534856200,8.442856201171875,-0.684473991394043,-0.358348548412323,0.18119776248931885
1772721081553452000,8.4614521484375,-0.6404917240142822,-0.1839466542005539,0.1631772518157959
1772721081572048100,8.480048095703125,-0.6539307236671448,0.020998476073145866,0.18486295640468597
1772721081590644000,8.49864404296875,-0.6621774435043335,0.21586434543132782,0.14088068902492523
1772721081609239800,8.51723974609375,-0.6090322136878967,0.33712100982666016,0.060551971197128296
1772721081627836000,8.5358359375,-0.5293143391609192,0.39393141865730286,0.01107192412018776
1772721081646431700,8.554431640625,-0.4367683231830597,0.34658941626548767,-0.029245151206851006
1772721081665027800,8.57302783203125,-0.379347026348114,0.17188207805156708,-0.033826638013124466
1772721081683623700,8.591623779296874,-0.3704894781112671,0.0023671009112149477,0.008323032408952713
1772721081702219500,8.610219482421876,-0.40255987644195557,-0.1582903414964676,0.05169443041086197
1772721081720815400,8.6288154296875,-0.481361448764801,-0.26732969284057617,0.0657443255186081
1772721081739411500,8.647411376953125,-0.5717694163322449,-0.353767067193985,0.0651334598660469
1772721081758007300,8.66600732421875,-0.6236929297447205,-0.36201372742652893,0.06177370250225067
1772721081776603100,8.68460302734375,-0.6316341757774353,-0.3360520005226135,0.04192059487104416
1772721081795199200,8.70319921875,-0.6126973628997803,-0.29481860995292664,0.02848157100379467
1772721081813795000,8.721795166015625,-0.5962040424346924,-0.28260132670402527,0.008933897130191326
1772721081832391200,8.74039111328125,-0.5858193039894104,-0.26763513684272766,0.004963276442140341
1772721081850987000,8.758987060546875,-0.5925388336181641,-0.17142392694950104,0.022983787581324577
1772721081869582800,8.777582763671875,-0.6688969135284424,0.027107125148177147,0.01626427471637726
1772721081888178700,8.7961787109375,-0.7434224486351013,0.1712712198495865,0.05199986323714256
1772721081906774800,8.81477490234375,-0.7806851863861084,0.2430478185415268,0.17692171037197113
1772721081925370600,8.83337060546875,-0.8045089244842529,0.3343721032142639,0.27374377846717834
1772721081943966500,8.851966552734375,-0.7748819589614868,0.4177551567554474,0.23648102581501007
1772721081962562600,8.8705625,-0.6514872908592224,0.39393141865730286,0.2700785994529724
1772721081981158400,8.889158447265626,-0.481361448764801,0.29558220505714417,0.4606684148311615
1772721081999754200,8.907754150390625,-0.3035998046398163,0.15935935080051422,0.5584067702293396
1772721082018350300,8.926350341796875,-0.19120067358016968,0.010613775812089443,0.5639045238494873
1772721082036946200,8.9449462890625,-0.1802051067352295,-0.2645808160305023,0.4805215001106262
1772721082055542000,8.9635419921875,-0.16279546916484833,-0.48357582092285156,0.446007639169693
1772721082074138000,8.98213818359375,-0.1594357043504715,-0.6350703239440918,0.474718302488327
1772721082092734000,9.00073388671875,-0.2162461280822754,-0.7520508766174316,0.526030957698822
1772721082111329800,9.019329833984376,-0.281914085149765,-0.812526524066925,0.5061778426170349
1772721082129925600,9.037925537109375,-0.3326158821582794,-0.6640864014625549,0.3928624093532562
1772721082148521700,9.056521728515625,-0.41233372688293457,-0.46341729164123535,0.1833357959985733
1772721082167117600,9.07511767578125,-0.5210676789283752,-0.3210858106613159,-0.04390590637922287
1772721082185713700,9.093713623046876,-0.6267472505569458,-0.22609633207321167,-0.06101011857390404
1772721082204309500,9.1123095703125,-0.6655371785163879,-0.11125374585390091,0.09995274990797043
1772721082222905300,9.1309052734375,-0.664926290512085,-0.08926261961460114,0.24686573445796967
1772721082241501200,9.149501220703126,-0.6743947267532349,-0.17203480005264282,0.2709949016571045
1772721082260097300,9.16809716796875,-0.6957749724388123,-0.21174100041389465,0.22548545897006989
1772721082278693000,9.186693115234375,-0.7079922556877136,-0.21784965693950653,0.07887791097164154
1772721082297289000,9.2052890625,-0.721431314945221,-0.11980585753917694,-0.12362375855445862
1772721082315884800,9.223884765625,-0.6789761781692505,-0.026648975908756256,-0.2723693251609802
1772721082334481000,9.24248095703125,-0.5904008150100708,-0.020540328696370125,-0.2830594778060913
1772721082353076700,9.26107666015625,-0.5225948095321655,-0.08681915700435638,-0.21616977453231812
1772721082371672600,9.279672607421874,-0.5082395076751709,-0.11461350321769714,-0.13278673589229584
1772721082390268700,9.2982685546875,-0.48960810899734497,-0.13904809951782227,-0.12179116904735565
1772721082408864500,9.316864501953125,-0.4364628791809082,-0.1274416595697403,-0.14683662354946136
1772721082427460400,9.33546044921875,-0.3750709891319275,-0.12530364096164703,-0.17524182796478271
1772721082446056200,9.35405615234375,-0.3484983444213867,-0.10331250727176666,-0.13889537751674652
1772721082464652300,9.37265234375,-0.36682429909706116,0.03871355578303337,-0.1547778695821762
1772721082483248000,9.391248046875,-0.48075059056282043,0.20822852849960327,-0.23113596439361572
1772721082501844000,9.409843994140624,-0.6676751971244812,0.2836703360080719,-0.23877176642417908
1772721082520439800,9.428439697265626,-0.9001092314720154,0.23999349772930145,-0.150196373462677
1772721082539036000,9.447035888671875,-1.1533126831054688,0.1550832986831665,-0.08788817375898361
1772721082557631700,9.4656318359375,-1.414151906967163,0.0784197673201561,-0.07200568914413452
1772721082576227800,9.484227783203124,-1.647196888923645,-0.04711294546723366,-0.028634287416934967
1772721082594823700,9.50282373046875,-1.746156930923462,-0.1934150606393814,0.0755181610584259
1772721082613419500,9.52141943359375,-1.7427972555160522,-0.30306529998779297,0.19219332933425903
1772721082632015400,9.540015380859375,-1.6493349075317383,-0.2960403561592102,0.22243113815784454
1772721082650611500,9.558611572265624,-1.508530616760254,-0.18089233338832855,0.1781434416770935
1772721082669207300,9.577207275390625,-1.3836086988449097,-0.13996438682079315,0.10270164161920547
1772721082687803100,9.59580322265625,-1.3490948677062988,-0.20838125050067902,0.11278090626001358
1772721082706399000,9.61439892578125,-1.3558143377304077,-0.23312127590179443,0.12041672319173813
1772721082724994800,9.632994873046876,-1.4703515768051147,-0.2135736048221588,0.1011744812130928
1772721082743591000,9.6515908203125,-1.6383392810821533,-0.19066616892814636,0.09506583213806152
1772721082762186800,9.670186767578125,-1.8438953161239624,-0.2496146261692047,0.11064288020133972
1772721082780782800,9.688782958984374,-2.048535108566284,-0.3421606421470642,0.0962875634431839
1772721082799378400,9.70737841796875,-2.2262966632843018,-0.41790786385536194,0.09201150387525558
1772721082817974500,9.725974609375,-2.3008222579956055,-0.3696495592594147,0.13324488699436188
1772721082836570400,9.7445703125,-2.3182318210601807,-0.1320231556892395,0.16500984132289886
1772721082855166200,9.763166259765624,-2.3142611980438232,-0.025732679292559624,0.2096029818058014
1772721082873762300,9.78176220703125,-2.202167510986328,-0.014431680552661419,0.2395353466272354
1772721082892358100,9.800358154296875,-2.017686367034912,-0.13660463690757751,0.2041051983833313
1772721082910954000,9.8189541015625,-1.9233077764511108,-0.2966512143611908,0.12041672319173813
1772721082929549800,9.8375498046875,-1.9520183801651,-0.4866301417350769,0.13538290560245514
1772721082948146000,9.85614599609375,-2.0460915565490723,-0.6335431337356567,0.16592614352703094
1772721082966741800,9.87474169921875,-2.1926991939544678,-0.7022654414176941,0.1787542998790741
1772721082985337600,9.893337646484374,-2.276998519897461,-0.7392227649688721,0.1983019858598709
1772721083003933400,9.911933349609376,-2.240957498550415,-0.766406238079071,0.18028147518634796
1772721083022529300,9.930529296875,-2.0998477935791016,-0.8015309572219849,0.116751529276371
1772721083041125400,9.94912548828125,-1.9275838136672974,-0.7431933879852295,0.0910952091217041
1772721083059721200,9.96772119140625,-1.7928881645202637,-0.6118574142456055,0.08407026529312134
1772721083078317000,9.986317138671875,-1.6914845705032349,-0.38156139850616455,-0.012446369975805283
1772721083096913200,10.0049130859375,-1.6184862852096558,-0.1372154951095581,-0.12576179206371307
1772721083115509000,10.023509033203124,-1.5610649585723877,-0.019624030217528343,-0.20945025980472565
1772721083134104800,10.042104736328126,-1.5152500867843628,0.050319984555244446,-0.28122687339782715
1772721083152700700,10.06070068359375,-1.4679080247879028,0.06895136088132858,-0.284586638212204
1772721083171296500,10.079296630859375,-1.4688243865966797,0.06895136088132858,-0.18440480530261993
1772721083189892600,10.097892578125,-1.5402956008911133,0.02588539570569992,-0.02741255611181259
1772721083208488400,10.116488525390626,-1.6160427331924438,-0.10972658544778824,0.1011744812130928
1772721083227084300,10.135084228515625,-1.7040072679519653,-0.2554178237915039,0.17936517298221588
1772721083245680000,10.15368017578125,-1.8310672044754028,-0.42615455389022827,0.20227259397506714
1772721083264276200,10.172276123046874,-1.9636248350143433,-0.5174788236618042,0.18241949379444122
1772721083282872000,10.1908720703125,-2.0601415634155273,-0.5550470352172852,0.1320231556892395
1772721083301468000,10.209468017578125,-2.1358888149261475,-0.5568795800209045,0.09964732080698013
1772721083320063700,10.228063720703124,-2.1890339851379395,-0.4964039921760559,0.057497646659612656
1772721083338659600,10.24665966796875,-2.2446227073669434,-0.3388008773326874,0.00954476185142994
1772721083357255700,10.265255615234375,-2.3484697341918945,-0.12988512217998505,-0.02496909722685814
1772721083375851500,10.2838515625,-2.424827814102173,0.04176788032054901,-0.05306887626647949
1772721083394447400,10.302447265625,-2.3573272228240967,0.1404225379228592,-0.08391755074262619
1772721083413043200,10.321043212890626,-2.168264627456665,0.18929173052310944,-0.07414371520280838
1772721083431639300,10.339639404296875,-1.9303326606750488,0.13645191490650177,-0.022525638341903687
1772721083450235100,10.358235107421875,-1.73088538646698,0.05367974191904068,0.09445496648550034
1772721083468831000,10.3768310546875,-1.581528902053833,-0.00679587060585618,0.19036073982715607
1772721083487426800,10.3954267578125,-1.4486658573150635,-0.031230462715029716,0.16012293100357056
1772721083506022700,10.414022705078125,-1.3503166437149048,-0.014126247726380825,0.10728313028812408
1772721083524618800,10.43261865234375,-1.2889246940612793,0.050319984555244446,0.09445496648550034
1772721083543214600,10.451214599609376,-1.2232567071914673,0.1190422773361206,0.11278090626001358
1772721083561810400,10.469810546875,-1.1279618740081787,0.13645191490650177,0.09750928729772568
1772721083580406300,10.48840625,-1.0158681869506836,0.12851068377494812,0.06330086290836334
1772721083599002000,10.507002197265624,-0.9117156863212585,0.10865757614374161,0.005574141163378954
1772721083617598200,10.52559814453125,-0.8179479241371155,0.11995857208967209,-0.09491311758756638
1772721083636194000,10.544194091796875,-0.7174606919288635,0.17799071967601776,-0.18868085741996765
1772721083654790000,10.562789794921875,-0.6472112536430359,0.129426971077919,-0.24549128115177155
1772721083673385700,10.5813857421875,-0.5995637774467468,0.13797907531261444,-0.22105668485164642
1772721083691981600,10.599981689453125,-0.5519163012504578,0.05978839099407196,-0.1963166743516922
1772721083710577400,10.618577392578125,-0.5424479246139526,-0.08284853398799896,-0.19020801782608032
1772721083729173500,10.637173583984374,-0.5439751148223877,-0.09689842909574509,-0.11751510947942734
1772721083747769300,10.655769287109376,-0.5073232054710388,-0.18028147518634796,-0.07567087560892105
1772721083766365200,10.674365234375,-0.49632763862609863,-0.21265730261802673,-0.09949459880590439
1772721083784961000,10.6929609375,-0.5186241865158081,-0.261526495218277,-0.11079560220241547
1772721083803557000,10.71155712890625,-0.5531380772590637,-0.3638463318347931,-0.07628174126148224
1772721083822152700,10.730152587890625,-0.5522217750549316,-0.48998990654945374,-0.014584396965801716
1772721083840748800,10.748748779296875,-0.5748237371444702,-0.5938369035720825,0.06971494108438492
1772721083859344600,10.7673447265625,-0.639270007610321,-0.6705004572868347,0.11003202199935913
1772721083877940500,10.7859404296875,-0.6899717450141907,-0.6958513259887695,0.13935352861881256
1772721083896536300,10.804536376953125,-0.7333431839942932,-0.5828413367271423,0.16439898312091827
1772721083915132400,10.82313232421875,-0.776103675365448,-0.2920697331428528,0.1677587330341339
1772721083933728300,10.841728271484374,-0.794124186038971,0.013668099418282509,0.18241949379444122
1772721083952324000,10.860323974609376,-0.7486147880554199,0.24610215425491333,0.2099084109067917
1772721083970920000,10.878919921875,-0.6673697829246521,0.4534907341003418,0.22395829856395721
1772721083989515800,10.897515869140625,-0.5821541547775269,0.5946004986763,0.2514472007751465
1772721084008111600,10.916111572265624,-0.4667007029056549,0.6358338594436646,0.34063348174095154
1772721084026707700,10.934707763671875,-0.383928507566452,0.6095666885375977,0.4814378023147583
1772721084045303600,10.953303466796875,-0.3546070158481598,0.5912407636642456,0.5626828074455261
1772721084063899400,10.9718994140625,-0.31001389026641846,0.46570804715156555,0.506483256816864
1772721084082495200,10.9904951171875,-0.21868959069252014,0.226859912276268,0.3720930218696594
1772721084101091000,11.009091064453125,-0.1026252806186676,-0.17569997906684875,0.36690065264701843
1772721084119687000,11.02768701171875,0.010384701192378998,-0.49365508556365967,0.5498546361923218
1772721084138282800,11.04628271484375,0.030543239787220955,-0.6775254011154175,0.727921724319458
1772721084156878800,11.06487890625,-0.05192350596189499,-0.7086794972419739,0.849483847618103
1772721084175474700,11.083474609375,-0.22785256803035736,-0.7065414786338806,0.9282854199409485
1772721084194070500,11.102070556640625,-0.41447174549102783,-0.6170498132705688,0.8464295268058777
1772721084212666400,11.120666259765626,-0.5714640021324158,-0.3882809281349182,0.5202277302742004
1772721084231262200,11.13926220703125,-0.6493492722511292,-0.15676318109035492,0.02695440873503685
1772721084249858000,11.157858154296875,-0.6130027770996094,-0.02542724646627903,-0.40004006028175354
1772721084268454000,11.176453857421874,-0.46456265449523926,-0.04558578506112099,-0.576274573802948
1772721084287050000,11.195050048828126,-0.28069236874580383,-0.09476039558649063,-0.5078576803207397
1772721084305645800,11.213645751953125,-0.10537417232990265,-0.0553596206009388,-0.367053359746933
1772721084324241700,11.23224169921875,0.04459312930703163,0.04940368980169296,-0.3132972717285156
1772721084342837500,11.25083740234375,0.1747073233127594,0.14103341102600098,-0.36399903893470764
1772721084361433300,11.269433349609375,0.29565855860710144,0.16332997381687164,-0.437302827835083
1772721084380029200,11.288029296875,0.3863719701766968,0.1703549176454544,-0.43027788400650024
1772721084398625000,11.306625,0.44501498341560364,0.17982332408428192,-0.344451367855072
1772721084417221000,11.32522119140625,0.43890634179115295,0.21433718502521515,-0.2427423894405365
1772721084435817000,11.34381689453125,0.35582873225212097,0.2833648920059204,-0.19051344692707062
1772721084454412800,11.362412841796875,0.2507599890232086,0.3756054937839508,-0.21800236403942108
1772721084473008600,11.381008544921874,0.1438586562871933,0.49777844548225403,-0.3551415205001831
1772721084491604500,11.3996044921875,0.013744457624852657,0.6382773518562317,-0.5081631541252136
1772721084510200300,11.418200439453125,-0.07055488228797913,0.7479275465011597,-0.6257545948028564
1772721084528796200,11.436796142578125,-0.09529490768909454,0.8111520409584045,-0.6755400896072388
1772721084547392000,11.45539208984375,-0.1496618688106537,0.7745001912117004,-0.6434696912765503
1772721084565988000,11.473988037109375,-0.2458730787038803,0.6825650334358215,-0.4876991808414459
1772721084584584000,11.492583984375,-0.3439168632030487,0.5405389666557312,-0.2995528280735016
1772721084603179800,11.5111796875,-0.44990190863609314,0.3710239827632904,-0.16668972373008728
1772721084621775600,11.529775634765626,-0.5574141144752502,0.19234605133533478,-0.09185878932476044
1772721084640371500,11.548371337890625,-0.6340776681900024,0.015500693581998348,-0.03779725730419159
1772721084658967300,11.56696728515625,-0.6734784245491028,-0.10942115634679794,0.04222602769732475
1772721084677563100,11.585563232421874,-0.7092140316963196,-0.1885281354188919,0.15065452456474304
1772721084696159000,11.604158935546875,-0.7159335017204285,-0.21082471311092377,0.2193768173456192
1772721084714754800,11.6227548828125,-0.711046576499939,-0.20777037739753723,0.24228423833847046
1772721084733351000,11.641350830078125,-0.739757239818573,-0.14332415163516998,0.23251040279865265
1772721084751946800,11.65994677734375,-0.7605266571044922,-0.09323323518037796,0.173256516456604
1772721084770542600,11.67854248046875,-0.7449495792388916,-0.10697769373655319,0.10789398849010468
1772721084789138400,11.697138427734375,-0.6722567081451416,-0.12041672319173813,0.024205517023801804
1772721084807734300,11.715734375,-0.5540543794631958,-0.09964732080698013,0.008628465235233307
1772721084826330000,11.734330078125,-0.4575377106666565,-0.1378263682126999,0.06299543380737305
1772721084844926000,11.752926025390625,-0.37751442193984985,-0.2096029818058014,0.10942115634679794
1772721084863521800,11.771521728515625,-0.3182605504989624,-0.3843103051185608,0.12774710357189178
1772721084882117600,11.79011767578125,-0.3087921440601349,-0.644844114780426,0.16012293100357056
1772721084900713700,11.808713623046875,-0.3283398151397705,-0.8891900181770325,0.18241949379444122
1772721084919309600,11.8273095703125,-0.37690356373786926,-0.9111811518669128,0.21265730261802673
1772721084937905400,11.845905517578124,-0.43921178579330444,-0.9285908341407776,0.3180314898490906
1772721084956501200,11.864501220703126,-0.4929678738117218,-1.0018945932388306,0.45272716879844666
1772721084975097000,11.88309716796875,-0.5534434914588928,-1.0244965553283691,0.49365508556365967
1772721084993693000,11.90169287109375,-0.6313287615776062,-0.5180897116661072,0.48449212312698364
1772721085012288800,11.920288818359374,-0.657290518283844,-0.09476039558649063,-0.046654798090457916
1772721085030884600,11.938884521484376,-0.6423243284225464,-0.24442227184772491,-0.49716755747795105
1772721085049480400,11.95748046875,-0.5308414697647095,0.03871355578303337,-0.6520217657089233
1772721085068076300,11.976076171875,-0.401949018239975,0.13889537751674652,-0.7861065864562988
1772721085086672100,11.994672119140626,-0.26969680190086365,0.3924042582511902,-0.7525090575218201
1772721085105268200,12.013268310546875,-0.1383608728647232,0.4162279963493347,-0.5710822343826294
1772721085123864000,12.031864013671875,0.016187917441129684,0.27664539217948914,-0.26626068353652954
1772721085142460000,12.0504599609375,0.18325942754745483,0.14347685873508453,0.11888955533504486
1772721085161055700,12.0690556640625,0.2419024556875229,-0.03245219215750694,0.5700132250785828
1772721085179651600,12.087651611328125,0.19364413619041443,-0.2648862302303314,0.8754456043243408
1772721085198247400,12.106247314453125,0.2009745091199875,-0.399887353181839,0.9469167590141296
1772721085216843300,12.12484326171875,0.2409861534833908,-0.43776097893714905,0.829936146736145
1772721085235439000,12.143439208984375,0.3326158821582794,-0.3898080885410309,0.6045270562171936
1772721085254035000,12.162034912109375,0.44898560643196106,-0.19097159802913666,0.21723878383636475
1772721085272630800,12.180630859375,0.3530798554420471,0.19876012206077576,-0.16974404454231262
1772721085291226600,12.1992265625,0.11728604137897491,0.34842199087142944,-0.3701077103614807
1772721085309822500,12.217822509765625,-0.047036588191986084,0.24946190416812897,-0.4544070363044739
1772721085328418600,12.23641845703125,-0.12370011955499649,0.0985783040523529,-0.4516581594944
1772721085347014400,12.255014404296874,-0.2009745091199875,-0.10178534686565399,-0.36308276653289795
1772721085365610200,12.2736103515625,-0.21441353857517242,-0.19158247113227844,-0.08269581943750381
1772721085384206000,12.2922060546875,-0.18295399844646454,-0.23281583189964294,0.2774089574813843
1772721085402801700,12.3108017578125,-0.09498947113752365,-0.32963791489601135,0.46922051906585693
1772721085421397800,12.329397705078126,-0.007024944759905338,-0.3895026445388794,0.40171995759010315
1772721085439993600,12.34799365234375,-0.021380268037319183,-0.3525453209877014,0.13324488699436188
1772721085458589400,12.36658935546875,-0.0360410213470459,-0.3430769443511963,-0.16455170512199402
1772721085477185300,12.385185302734374,0.053145237267017365,-0.24930918216705322,-0.21830779314041138
1772721085495781000,12.403781005859376,0.1389717310667038,-0.25847217440605164,-0.11232276260852814
1772721085514377000,12.422376953125,0.22266021370887756,-0.23251040279865265,0.10758855938911438
1772721085532972800,12.440972900390625,0.21380266547203064,-0.2697731554508209,0.18272492289543152
1772721085551568600,12.459568603515624,0.23304490745067596,-0.37148213386535645,0.11980585753917694
1772721085570164500,12.47816455078125,0.2559523284435272,-0.48510298132896423,-0.050319984555244446
1772721085588760300,12.49676025390625,0.25320345163345337,-0.51564621925354,-0.19906556606292725
1772721085607356200,12.515356201171874,0.19639302790164948,-0.4664716124534607,-0.2329685539007187
1772721085625952000,12.533951904296876,0.08124501258134842,-0.3525453209877014,-0.17768529057502747
1772721085644547800,12.5525478515625,-0.047036588191986084,-0.28962627053260803,-0.09277509152889252
1772721085663143700,12.571143798828125,-0.09957095980644226,-0.19036073982715607,-0.008781181648373604
1772721085681739500,12.589739501953124,-0.057726722210645676,-0.07735075056552887,0.1329394429922104
1772721085700335600,12.608335693359376,0.04001164436340332,-0.05810851231217384,0.2862665057182312
1772721085718931500,12.626931396484375,0.1182023361325264,-0.14912736415863037,0.36690065264701843
1772721085737527300,12.64552734375,0.15668681263923645,-0.1628718227148056,0.3375791609287262
1772721085756123100,12.664123046875,0.16584978997707367,-0.1576794683933258,0.2902371287345886
1772721085774719000,12.682718994140625,0.16035200655460358,-0.16745330393314362,0.24381139874458313
1772721085793314800,12.701314697265625,0.11606431007385254,0.08972076326608658,0.256334125995636
1772721085811910700,12.71991064453125,-0.029016077518463135,0.6578249931335449,0.3568213880062103
1772721085830506500,12.738506591796876,-0.19272783398628235,0.16332997381687164,0.2086866796016693
1772721085849102300,12.757102294921875,-0.10476330667734146,0.2537379562854767,0.018096869811415672
1772721085867698200,12.7756982421875,-0.026572618633508682,0.3505600392818451,0.04436405375599861
1772721085886294000,12.7942939453125,0.16829325258731842,0.4263072609901428,0.015958841890096664
1772721085904889900,12.812889892578125,0.1805105358362198,0.274812787771225,0.10422880202531815
