time,seconds_elapsed,z,y,x
1772796799346510000,0.065510009765625,8.492384679743648,5.329768205317855,-1.9659813621632753
1772796799356503300,0.07550341796875,8.517122230637073,5.086963073039055,-1.6680585921660065
1772796799366495200,0.0854951171875,8.61753958415389,4.817988018976152,-1.296697514861822
1772796799376487200,0.095487060546875,8.843780535122752,4.431830646817386,-1.0548615929413587
1772796799386479000,0.10547900390625,8.933831977447866,4.143114242713153,-0.977096654606983
1772796799396471300,0.11547119140625,8.62804051990211,3.9938346586108207,-0.6994348015457391
1772796799406464000,0.125464111328125,7.5319994328975675,3.887567702282965,-0.13629158077873288
1772796799416456200,0.135456298828125,5.845589483743906,3.7722260436177253,0.37636918778978284
1772796799426448100,0.1454482421875,3.732445237371325,3.4634193299040197,0.2938615849729627
1772796799436440300,0.1554404296875,0.8499836749315262,2.284313298460841,0.0001460574071854353
1772796799446432000,0.165431884765625,-1.7652479235470293,-0.04059679880440235,-0.34953415316045283
1772796799456425200,0.17542529296875,-3.2592794438451524,-2.6611747267469763,0.10965754861421882
1772796799466417200,0.185417236328125,-3.8421050510078665,-4.846346390715241,1.4988298604905606
1772796799476409000,0.1954091796875,-4.499407514744997,-6.289663622820377,2.544584237064421
1772796799486401000,0.205401123046875,-6.277372296524048,-6.433065547060966,2.040564163330197
1772796799496394200,0.215394287109375,-10.478132380259037,-5.5995513608932495,0.8399261721018701
1772796799506386200,0.22538623046875,-15.550842471539973,-5.502989513760805,0.02351677692681551
1772796799516378000,0.235378173828125,-17.849353222179413,-6.388845297062397,-0.1036274746697396
1772796799526370300,0.245370361328125,-15.67821212939024,-6.647562868744134,0.6828004776090383
1772796799536362200,0.2553623046875,-10.914134272038936,-7.3653908205926415,2.5862439889252182
1772796799546355200,0.265355224609375,-9.910178179013728,-8.364261573177576,5.014149181240796
1772796799556347100,0.27534716796875,-16.927075879931447,-6.9917539073109625,6.357527783256769
1772796799566339300,0.28533935546875,-29.29545618984699,-3.394001218023896,7.275438162466883
1772796799576331300,0.295331298828125,-36.02529986691475,-0.62785425093472,7.522376449027657
1772796799586324200,0.30532421875,-34.394596022891996,-0.7530259603492915,6.916472164094448
1772796799596316200,0.315316162109375,-26.710312271118163,-1.4361466098234057,4.797396774107217
1772796799606308000,0.32530810546875,-16.38279364617467,-2.0059207199722526,1.392583070167899
1772796799616300000,0.335300048828125,-7.132855153393745,-2.2441253727182744,-1.152188360031694
1772796799626292200,0.345292236328125,-0.8666998319327831,-2.2109379733875394,-3.0620588356554506
1772796799636285200,0.35528515625,2.1718021870464086,-1.7315309473842382,-3.616973814846575
1772796799646277000,0.365277099609375,2.4038579617738725,-0.38880496405810117,-3.065417790694535
1772796799656269000,0.37526904296875,1.8653800303816794,1.137407408876717,-2.202925493454188
1772796799666261200,0.38526123046875,1.5590671793103217,2.3373288493335247,-1.6140699584774671
1772796799676253200,0.395253173828125,2.260426226916909,3.2056907692596313,-0.9284097075231372
1772796799686246100,0.40524609375,4.2588983844488855,3.6039924604594704,-0.7043577910311519
1772796799696238300,0.41523828125,7.421916425412893,3.4270448249697685,-1.178353751771152
1772796799706230300,0.425230224609375,11.027455530792475,2.7692212599679826,-1.5598350949428974
1772796799716222200,0.43522216796875,14.33529179253578,2.193063001739979,-1.6219401073306798
1772796799726215200,0.445215087890625,16.870146955007314,1.6676353983178733,-2.1218979000620544
1772796799736207400,0.455207275390625,17.81003827987909,1.4695157954618334,-2.419596359784156
1772796799746199000,0.465198974609375,16.93215186802149,1.762854014147818,-2.219489820894599
1772796799756191200,0.475191162109375,14.94183379085064,2.5696906212702393,-2.106520005927235
1772796799766183200,0.48518310546875,12.18046353664398,3.24207959498018,-2.2568233801193536
1772796799776176000,0.495176025390625,9.638322893339394,3.7147719257757066,-2.0783498502366244
1772796799786168000,0.50516796875,8.00518393112421,4.419544288957119,-2.1623282562583683
1772796799796160300,0.51516015625,7.360605924403667,5.023088859021663,-2.3233866870902475
1772796799806152200,0.525152099609375,7.5083251273214815,5.311438183379173,-2.3148633350253105
1772796799816144100,0.53514404296875,8.059016643598675,5.393636574116349,-2.2229181879080833
1772796799826137000,0.54513720703125,8.479662560814619,5.424135172754526,-2.273870084249228
1772796799836129300,0.55512939453125,8.082838248690962,5.352873771095275,-2.4322823844864963
1772796799846121000,0.565120849609375,7.448937118807435,5.056903450340032,-2.0808770306266844
1772796799856113200,0.575113037109375,7.30897569040954,4.722247132837772,-1.0226384355328977
1772796799866106400,0.5851064453125,7.46996354022324,4.488486307758093,-0.07819163931384682
1772796799876098000,0.59509814453125,7.8083122825026505,4.175322860139608,0.179565562903136
1772796799886090200,0.60509033203125,8.41815390688479,3.846132699088752,0.14188859706819057
1772796799896082200,0.615082275390625,9.078243955513834,3.543404720766842,0.18663930068165063
1772796799906074400,0.625074462890625,9.194266874441505,3.262656226801872,0.3099184743478894
1772796799916067000,0.635067138671875,8.12387285439074,3.00136354393512,0.386252064704895
1772796799926059300,0.645059326171875,6.1613458704650395,2.744384632614255,0.37922757289558645
1772796799936051200,0.65505126953125,3.797047181141376,2.1573627428054807,0.3702827805481851
1772796799946043100,0.665043212890625,1.4430974518746136,0.6278863996386528,0.05956994095221162
1772796799956036000,0.6750361328125,-1.076412257426977,-1.561233709694445,-0.45990255345776676
1772796799966028300,0.6850283203125,-4.076067536139488,-3.586716039226949,-0.5124195071585476
1772796799976020200,0.695020263671875,-7.970377990680933,-4.716844397011399,1.137810144458711
1772796799986012200,0.70501220703125,-12.737606421017645,-5.073704947537183,3.3262527929216623
1772796799996004000,0.715004150390625,-17.58976471288204,-5.085458513695001,3.9234059083834287
1772796800005997000,0.7249970703125,-20.461193424654006,-4.4763598166346545,2.204906145877391
1772796800015989000,0.734989013671875,-19.035343460178375,-4.324859633873403,-0.34067499326989054
1772796800025981200,0.744981201171875,-14.643535903930664,-4.302265817010403,-1.7350369096785783
1772796800035973000,0.75497314453125,-10.99699141894579,-5.998389935448765,-1.1924620643615722
1772796800045966000,0.764966064453125,-9.261286985269189,-9.006716596394776,0.33672917825356125
1772796800055958300,0.774958251953125,-10.498146409761905,-9.728139942386745,1.6811967445500193
1772796800065950200,0.7849501953125,-16.15699400923252,-8.569634508162736,4.072693383531272
1772796800075942400,0.7949423828125,-22.909346455228327,-7.06460520851016,5.349227523547411
1772796800085934000,0.80493408203125,-24.575694444084167,-6.569909720221162,5.924805059278011
1772796800095927300,0.81492724609375,-21.436914772319792,-6.226184545600414,5.435731502524018
1772796800105919200,0.824919189453125,-17.562939834320545,-4.778203121076524,3.8254862169012425
1772796800115911200,0.8349111328125,-14.181085565686224,-3.4626945227608084,3.37847690115571
1772796800125903000,0.844903076171875,-9.882155030578375,-2.3934429507434367,2.7539310441166163
1772796800135895300,0.854895263671875,-5.439090749824047,-1.3319409699395297,1.5122238873317837
1772796800145888000,0.864887939453125,-1.3999801946818828,-0.29934271979779004,0.5614978647127747
1772796800155879700,0.874879638671875,2.0974813978165385,0.5624310539096593,-0.11209551635086536
1772796800165871900,0.884871826171875,3.9318881977856157,1.0759914016664027,-0.6734793992951512
1772796800175863800,0.89486376953125,4.920525141125917,1.7327745177045464,-1.092723998345807
1772796800185856800,0.904856689453125,5.783517935234308,2.906668075196445,-1.516745748670399
1772796800195848700,0.9148486328125,6.68308017232716,3.899405439592898,-1.8799764187499879
1772796800205841000,0.9248408203125,8.381558160415292,4.150530364188552,-1.485311330486834
1772796800215832800,0.934832763671875,10.431541309475898,3.815862356248498,-0.4945337218560278
1772796800225824800,0.94482470703125,12.321625573003292,3.2508740190714596,0.04799589607976377
1772796800235818000,0.95481787109375,14.17768364828825,2.802402229557931,-0.2839790733840316
1772796800245810000,0.964809814453125,15.584770460104941,2.707567060087621,-0.6746083302598446
1772796800255801900,0.9748017578125,15.944445483529567,2.9659812649086117,-1.0035890132784844
1772796800265793800,0.984793701171875,15.230725551521777,3.3154356308311224,-1.4610864052906631
1772796800275786000,0.994785888671875,13.643998796391486,3.6411885109096764,-1.6122349981352686
1772796800285778700,1.00477880859375,11.879674417430161,4.097181635838747,-1.686248913373053
1772796800295771000,1.01477099609375,10.393837309503555,4.46267908180654,-1.6799897068478167
1772796800305762800,1.0247626953125,9.424787694686652,4.530003728538752,-1.365872465635836
1772796800315755000,1.034755126953125,8.756329630684853,4.153490383037925,-0.9104989339098334
1772796800325747700,1.044747802734375,8.649773628282546,3.7656849514111874,-0.48570904875695703
1772796800335740000,1.054739990234375,9.613571313920616,3.606494798669219,-0.24429661294557153
1772796800345731800,1.06473193359375,10.903196698439121,3.4839828099831935,-0.03534932660497725
1772796800355723800,1.074723876953125,11.748126597112417,3.3916265978470443,0.1292247111324221
1772796800365715700,1.0847158203125,11.637587662553786,3.4392771145552397,0.003590791033580899
1772796800375709000,1.094708984375,10.74321773340702,3.252077841903269,-0.2927850417826324
1772796800385700600,1.10470068359375,9.66438438631296,3.151464673553407,-0.42091633165515957
1772796800395692800,1.11469287109375,8.758449691578745,3.195352330596745,-0.3658984279841184
1772796800405684700,1.124684814453125,8.235412490424514,3.135944156077504,-0.24419662316981702
1772796800415677000,1.134677001953125,7.37552000041902,3.1287837629288435,-0.04941884155496955
1772796800425670000,1.144669921875,5.690045286288857,3.0534961744934317,-0.23876524577084926
1772796800435661800,1.154661865234375,3.633219723987579,2.6024749927580353,-1.0406021083772181
1772796800445654000,1.164654052734375,1.346640234160423,1.46160034616217,-1.4950582329973578
1772796800455645700,1.174645751953125,-0.7106821717470884,-0.6771029966197908,-1.3601090798035262
1772796800465639000,1.184638916015625,-1.8893822527378796,-3.209216313037276,-0.5466934596169739
1772796800475630800,1.194630859375,-3.0681331871330735,-4.87866986669302,0.8792813733473419
1772796800485622800,1.204622802734375,-4.354652422329783,-4.861615271517634,1.982008075595647
1772796800495614700,1.21461474609375,-6.543880960473418,-5.206791813990473,2.169029799723625
1772796800505607000,1.22460693359375,-9.714352240052818,-6.2203364040941,1.2727481917366386
1772796800515599600,1.234599609375,-12.816986831724643,-5.286722844317555,-1.2078097094886004
1772796800525591800,1.244591796875,-15.519102932929991,-5.031233587032556,-2.3771704458564518
1772796800535583700,1.254583740234375,-15.684660574877261,-5.848502740842104,-0.727532330391556
1772796800545576000,1.264575927734375,-12.842979351115225,-5.333092381304502,1.4803423099026083
1772796800555568600,1.274568603515625,-13.591112424856423,-4.045913805416226,3.9538773267537355
1772796800565560800,1.284560791015625,-21.48071182847023,-1.7767703112974762,5.940142329141497
1772796800575552800,1.294552734375,-35.57191429413557,1.195973141222447,5.347570403990149
1772796800585544700,1.304544677734375,-46.222934220838546,3.172502493146062,4.000878147381544
1772796800595536600,1.31453662109375,-47.555531901121135,3.2881074789226052,5.675129456707835
1772796800605529900,1.32452978515625,-39.81187007770538,0.11733283248245716,5.0977480864256615
1772796800615521800,1.334521728515625,-25.54650113170147,-1.5639537823081016,1.8959068322010337
1772796800625513700,1.344513671875,-11.751859353899954,-2.0792836239553987,-1.01806937405169
1772796800635506000,1.354505859375,-0.725138567122817,-2.6851187891751525,-2.1791092951893805
1772796800645497900,1.364497802734375,6.928408101081848,-2.255520480827242,-1.1599391202889382
1772796800655490800,1.37449072265625,10.52894837526083,-1.408093504641205,-1.1033555016711354
1772796800665482800,1.384482666015625,10.80563765696287,-0.7079816806167364,-1.852581046824157
1772796800675475000,1.394474853515625,8.33668675303161,0.525835745831579,-2.2156192630715665
1772796800685467000,1.404466796875,6.411975412759184,1.1690145532786846,-1.9585439056389033
1772796800695459800,1.4144599609375,6.781660958066582,1.55573671971336,-1.6971650057934224
1772796800705451800,1.42445166015625,8.839417079216242,1.797031155168265,-1.320674310515821
1772796800715444000,1.43444384765625,11.499135469675064,1.6185525107190013,-0.342226058636792
1772796800725435600,1.444435546875,13.913079941177367,1.8213135096400974,0.8175539621002972
1772796800735427800,1.454427734375,15.4347517480731,2.092501271316409,0.8792881684143096
1772796800745420800,1.4644208984375,15.890028833687305,2.0659759602233767,0.10589169327467679
1772796800755412700,1.474412841796875,15.665967564845085,2.2256968588411805,-0.8413157998293638
1772796800765404700,1.48440478515625,15.6432226490736,2.537538117945194,-1.871697835226357
1772796800775396900,1.49439697265625,16.02959863241911,2.883465186524391,-2.7714903739437458
1772796800785388800,1.504388916015625,16.188104602289197,3.48010129237473,-3.425445573079586
1772796800795381800,1.5143818359375,16.361279733502865,3.8294475217476487,-3.6756200650826094
1772796800805374000,1.5243740234375,16.23978218255639,3.881500657328963,-3.4829704180702565
1772796800815366000,1.534365966796875,15.625725570827722,3.751614048221707,-2.704486337468028
1772796800825357800,1.54435791015625,14.806484240162371,3.741088854815066,-1.6238275285124777
1772796800835349800,1.554349853515625,13.959258339506388,4.080573615387082,-0.6071214787032455
1772796800845343000,1.564343017578125,12.400562916117906,4.501036577251553,0.08525675539448857
1772796800855334700,1.574334716796875,10.18589832342267,4.420390676653385,-0.03452288571819663
1772796800865326800,1.584326904296875,8.123304699113964,3.9728739959076043,-0.10247289780713617
1772796800875318800,1.59431884765625,6.558734830734133,3.4742198331207037,0.1419920574426651
1772796800885311700,1.604311767578125,5.399831921625137,2.894852257457375,0.36501010084226726
1772796800895303700,1.6143037109375,4.474123435884714,2.517038350751996,0.6669988051041961
1772796800905296000,1.6242958984375,3.980174382048845,2.3571711755312976,0.6347977864623069
1772796800915287800,1.634287841796875,3.588398000964522,2.224442036474496,0.27734306943565606
1772796800925279700,1.64427978515625,3.145177848368883,2.1200319600597024,-0.006501344718039035
1772796800935272700,1.654272705078125,2.5294617789953944,2.2136687135256827,-0.07464841374903917
1772796800945265000,1.664264892578125,1.796378974869847,1.9031046347506344,-0.027622312549501656
1772796800955256600,1.674256591796875,0.9008891017824411,0.3799209619872272,-0.686469521510601
1772796800965248800,1.684248779296875,-0.12272329334914683,-1.8497937541931866,-1.8981119410298763
1772796800975240700,1.69424072265625,-0.4305640846401453,-3.8396763625562187,-2.136337344302982
1772796800985233700,1.704233642578125,-0.45697745979130266,-4.89121166061908,-0.2921557309031486
1772796800995225900,1.714225830078125,-2.0065701237916946,-5.100798706167936,2.5901827896788716
1772796801005217800,1.7242177734375,-6.561470977699757,-4.516376185202598,4.374301417912543
1772796801015210000,1.7342099609375,-13.546428064477443,-3.8599493352562186,4.343538323119282
1772796801025202700,1.74420263671875,-19.390148247218132,-3.1730040129274126,2.834892586535215
1772796801035195000,1.75419482421875,-19.954553231549262,-2.709745280909538,1.1606452227316797
1772796801045186800,1.764186767578125,-16.490763022506236,-2.3081552156887946,0.6693961485695094
1772796801055179000,1.774178955078125,-15.795595815277098,-2.336907116790116,0.42441783697009083
1772796801065170700,1.784170654296875,-21.073512837326525,-1.538160000360012,0.44562779825925825
1772796801075164000,1.794163818359375,-30.564357350766656,1.5008903001517055,1.6299559482648969
1772796801085155800,1.80415576171875,-39.78069869437218,3.211857475195825,3.2023277225673197
1772796801095147800,1.814147705078125,-40.20865756494999,1.3930366591542958,4.51029189685285
1772796801105139700,1.8241396484375,-33.994383237373825,-0.07995433813743293,4.9540942332506175
1772796801115132000,1.8341318359375,-26.40497206447124,-0.7458060920983552,3.8723198642686008
1772796801125124600,1.84412451171875,-17.603225082957742,-0.8922565171893686,2.8169921881854534
1772796801135116800,1.85411669921875,-8.83018981666565,-0.46818442491702733,2.1004240271396935
1772796801145108700,1.864108642578125,-1.4056184928297997,-0.029277240149676798,2.113547858737409
1772796801155101000,1.874100830078125,4.324893828403949,0.32710999377593397,1.6260604021310805
1772796801165092900,1.8840927734375,8.225413658979535,0.6716559832602739,0.6900859584420919
1772796801175085800,1.8940859375,10.368810420274734,1.0304048317506909,-0.28358415578231216
1772796801185078000,1.904078125,10.710068327999114,1.4203651033237576,-0.8942411151353269
1772796801195069700,1.914069580078125,10.704769052547215,1.833149785645306,-1.075287929572165
1772796801205062000,1.924061767578125,10.735090541052818,1.522186186158657,-1.0066370757374912
1772796801215054800,1.934054931640625,11.276576422089338,0.9290301775090396,-0.7858606007196008
1772796801225046800,1.944046875,12.28982758220434,0.6736245068542659,-0.5110376974113285
1772796801235038700,1.954038818359375,13.741200110471247,0.36591874011978504,-0.7028518434476106
1772796801245031000,1.964031005859375,15.102324797058104,0.12398293802142142,-1.330935592289269
1772796801255022800,1.97402294921875,15.996856054246425,0.15350626188665628,-2.186519863706827
1772796801265015800,1.984015869140625,15.869648893481491,0.4481145005084574,-2.6074133259430528
1772796801275008000,1.994008056640625,14.28879892143011,0.9937092781685292,-2.31267225472182
1772796801285000000,2.004,12.013644496458769,1.5850737272262572,-1.8854367299824952
1772796801294991600,2.01399169921875,10.100091679060458,2.0160890627652406,-1.9119000817552207
1772796801304983800,2.02398388671875,8.84770092343688,2.3114330683156847,-2.009872087946534
1772796801314977000,2.03397705078125,8.756768606624007,2.4211373056158423,-1.8905407751232384
1772796801324968700,2.04396875,9.59442997559905,2.3972582712478934,-1.8888330944225191
1772796801334961000,2.0539609375,10.601897876137494,2.2997834009237588,-1.9165835633963346
1772796801344952800,2.063952880859375,11.481270142638683,2.326297313839942,-1.6856731593117118
1772796801354945000,2.073945068359375,11.925123332440853,2.436618221733719,-1.4837357517331837
1772796801364937700,2.083937744140625,11.79135199085474,2.3638883549571035,-1.0953699097447096
1772796801374930000,2.093929931640625,11.114884807920456,2.2332632024422288,-0.7473046600930392
1772796801384921900,2.103921875,9.736163089844585,2.156810369619727,-0.877717996488139
1772796801394913800,2.113913818359375,8.159466145819426,1.9654805730342864,-1.081132856208086
1772796801404906800,2.12390673828125,6.856880157440901,1.7405409139223396,-0.5782533308111131
1772796801414899000,2.13389892578125,5.992296879270673,1.6244339699730277,0.21358824401423335
1772796801424891000,2.143890869140625,5.3409658911585804,1.7648817205831409,0.8342877278234809
1772796801434882800,2.1538828125,4.4157676930278535,1.7884439440868793,1.2954130280092357
1772796801444874800,2.163874755859375,3.3898855993986126,1.8497528376609087,1.4959329700052737
1772796801454867700,2.17386767578125,2.6977859630465506,1.7015953894563018,0.9795185479916632
1772796801464860000,2.18385986328125,2.0187381159693003,0.8159316215954721,-0.1942440765969455
1772796801474851800,2.193851806640625,1.0855886665731669,-0.7115120466999709,-0.9410380837541072
1772796801484844000,2.203843994140625,0.21068857704997063,-2.839329692199826,-0.6261028772227466
1772796801494836000,2.2138359375,-0.7887386403739451,-4.075663046991825,0.5870184557426721
1772796801504829000,2.223828857421875,-2.623364051529765,-3.7963188668668266,1.5746142925322055
1772796801514820900,2.23382080078125,-5.5842485778212545,-2.09698484647125,1.740196192137897
1772796801524813000,2.24381298828125,-10.370537097936868,-0.4300168260209262,1.8124261465683578
1772796801534804700,2.2538046875,-15.77890187010765,-0.43293753577321764,2.832929177507758
1772796801544798000,2.2637978515625,-18.829872325515748,-1.2274475991554556,4.828673955902457
1772796801554790000,2.273789794921875,-17.14164568232894,-0.871264509499818,6.06016922301352
1772796801564781800,2.28378173828125,-13.01959030199647,-0.16620660737529397,5.067468098974228
1772796801574773800,2.293773681640625,-13.55206753166914,-0.31762692983336743,2.5073598373025656
1772796801584766000,2.303765869140625,-21.79285119373798,0.38395913146212696,0.4075869675479829
1772796801594758700,2.313758544921875,-33.52681482546329,2.0167958958603442,0.12628726944103835
1772796801604750800,2.323750732421875,-40.74856874401569,2.720675840246677,1.6822392393402754
1772796801614742800,2.33374267578125,-38.724734181690216,1.7311989389508962,3.2406860947951674
1772796801624735000,2.34373486328125,-30.88496293108463,0.3850025395678356,2.699202551846206
1772796801634726700,2.3537265625,-21.42113969556093,-0.8836772702187299,0.39646782683618365
1772796801644719900,2.363719970703125,-11.031115806865692,-2.387079553191364,-1.0429460411548614
1772796801654712000,2.373712158203125,-2.382687163451314,-3.313296572975814,-1.7291851149104533
1772796801664703700,2.383703857421875,3.5321529666513203,-2.9568855197831985,-1.837784459708631
1772796801674696000,2.393696044921875,5.7634869545966385,-1.431380710595846,-1.4301701657623052
1772796801684689000,2.40368896484375,5.218825950655341,-0.1829031828932464,-1.110270834017545
1772796801694680800,2.413680908203125,4.412419551643729,0.7363751236692071,-0.4885535514678806
1772796801704672800,2.4236728515625,4.687313766622543,1.5252483502082526,-0.029521862560510634
1772796801714665000,2.4336650390625,5.856593108317256,2.209909945514053,0.13495521760843693
1772796801724657000,2.443656982421875,7.776136106041073,2.5253362234979866,0.032588995046168565
1772796801734649900,2.45364990234375,9.859944367814064,2.2617791028305887,-0.03328143428973854
1772796801744641800,2.463641845703125,11.517491795098781,1.6641538398124276,-0.23664339477866886
1772796801754634000,2.473634033203125,12.892033597141504,0.9479410680755972,-0.7165053980078547
1772796801764625700,2.483625732421875,14.16535491259098,0.3618631811186671,-1.3360691557854414
1772796801774617900,2.493617919921875,15.369577557373045,0.3511915649786591,-1.5695716221898792
1772796801784610800,2.50361083984375,15.820261469978092,0.8165342636637389,-1.4780369555696844
1772796801794602800,2.513602783203125,15.27710385633707,1.2152014271751046,-1.3684475768208504
1772796801804594700,2.5235947265625,14.613348855459689,1.8491874588631092,-1.7310324963428079
1772796801814587000,2.5335869140625,13.901375474858284,2.412524521701783,-2.303065929725766
1772796801824578800,2.543578857421875,13.11192254873514,2.4163933259591457,-2.783468981029093
1772796801834571800,2.55357177734375,12.926809142446517,2.1083445910058916,-3.16938202303797
1772796801844564000,2.56356396484375,13.372564366477727,2.045126356679201,-3.041762774340808
1772796801854556000,2.573555908203125,13.760884469628333,2.0887425033047795,-2.419393676818907
1772796801864547800,2.5835478515625,13.74100721824765,2.1626703476943074,-1.2922145242288707
1772796801874539800,2.593539794921875,12.916460766911506,2.3297893937394023,-0.5020355488535017
1772796801884533000,2.603532958984375,11.421261956399679,2.599171567298472,-0.30930954866930843
1772796801894525000,2.61352490234375,9.931979676455258,2.7409663486033677,-0.46220264709368347
1772796801904516900,2.623516845703125,8.885648084515333,2.82055046518892,-0.7423213187225163
1772796801914508800,2.6335087890625,7.875185093814134,2.6627745631590485,-0.7761667435705661
1772796801924502000,2.643501953125,6.9312968082606785,2.241765803980082,-0.7226502574384213
1772796801934493700,2.65349365234375,5.9846963411390774,2.0397737436048686,-0.5499750385709107
1772796801944486000,2.66348583984375,4.943998371171951,1.885000968913734,-0.28662352347820996
1772796801954477800,2.673477783203125,4.017961968651414,1.9132707855865358,0.02173603098988533
1772796801964470000,2.683469970703125,3.115468354281783,2.0669626331731674,-0.14528832250908016
1772796801974462700,2.693462646484375,2.224646473005414,1.7122464011996983,-0.5099890651412308
1772796801984455000,2.703454833984375,1.9808815557837485,0.4379708537653088,-0.9783766844801605
1772796801994446800,2.71344677734375,2.311598195749521,-1.2380758145451545,-1.5200791308768093
1772796802004438800,2.723438720703125,2.3742449137985706,-2.4819495017141104,-1.7352550824739037
1772796802014430700,2.7334306640625,2.0811901882290837,-2.417876696384698,-1.3020851992495357
1772796802024424000,2.743423828125,0.7483166136145591,-1.7723089479744434,0.6071900138948112
1772796802034415900,2.753415771484375,-2.299871517598629,-2.0466063661038874,3.364806395460665
1772796802044407800,2.76340771484375,-7.123461302104592,-2.107594211030006,4.227917262990773
1772796802054400000,2.77339990234375,-13.666301813614368,-0.35460400377064943,3.2297362462356687
1772796802064392700,2.783392822265625,-19.0911337364614,0.7955462014969438,1.574760715265572
1772796802074385000,2.793385009765625,-18.522224426448343,0.8299460453573614,1.1158077906828372
1772796802084376800,2.803376953125,-15.595782852506638,1.3001470707938074,0.6564345217961818
1772796802094369000,2.813369140625,-15.508544129514693,1.3534648194834589,-0.6078061730317771
1772796802104360700,2.823360595703125,-20.366489188086984,0.7765006517000496,-0.6616061522804201
1772796802114354000,2.83335400390625,-27.139615542042254,1.2651578827381134,1.123304064722359
1772796802124345900,2.843345947265625,-32.93581175706387,1.494637231106311,3.467523550352454
1772796802134337800,2.853337890625,-34.81517822722196,0.6112650447813793,4.654232750275731
1772796802144329700,2.863329833984375,-31.527838810062406,-1.1053437528789043,4.2684196615099905
1772796802154322000,2.873322021484375,-25.673405510127544,-2.516515788182616,3.437400214767456
1772796802164314600,2.883314697265625,-20.135607717835903,-2.9945459728747603,3.089749391135573
1772796802174306800,2.893306884765625,-15.597330666470526,-2.8977395033314823,3.7649946310594675
1772796802184298800,2.903298828125,-10.864120241069793,-2.2161241438537833,4.445552005916833
1772796802194291000,2.913291015625,-6.587098170909285,-1.2849842807143925,4.023325833772122
1772796802204283000,2.923282958984375,-3.2718770596116777,-0.5453311948204412,2.9073645330280065
1772796802214275800,2.93327587890625,-1.2135042678683996,0.3704144075712189,1.8471721735179423
1772796802224267800,2.943267822265625,-0.3540712120682001,1.5401380224347114,0.3732408997014165
1772796802234260000,2.953260009765625,0.5363169539660215,2.438853579570353,-0.40425913829952476
1772796802244251600,2.963251708984375,1.8814035289436577,2.704825360164046,-0.6149620361357927
1772796802254243800,2.973243896484375,3.5132360847353934,2.536452953056991,-0.9095296504862606
1772796802264236800,2.98323681640625,5.8871238556593655,2.5299670981690285,-1.210196020103246
1772796802274228700,2.993228759765625,8.721277022004127,2.367167084366828,-1.6565763902954755
1772796802284220700,3.003220703125,11.591938841056823,1.933514093800634,-2.1490705691479146
1772796802294212900,3.013212890625,13.871106593322754,1.4653459624312817,-2.791430461427569
1772796802304205800,3.023205810546875,15.327000982928276,0.9805312321655452,-3.2919472032159565
1772796802314197800,3.03319775390625,16.089874529683588,0.6008097382731735,-3.5140544153809548
1772796802324190000,3.04318994140625,16.083430760371684,0.5503891723297536,-3.7475399306505914
1772796802334182000,3.053181884765625,15.298801308882236,0.6520632479093968,-3.687251173904538
1772796802344173800,3.063173828125,14.452791213756798,1.0608638290308414,-3.2995606008291243
1772796802354166800,3.073166748046875,13.84356392188072,1.8909338660940527,-2.543862060269713
1772796802364159000,3.083158935546875,13.726729686570167,2.4561820232510567,-1.7636540784843264
1772796802374150700,3.093150634765625,14.169088838422297,2.735053325167298,-1.5479165474817156
1772796802384142800,3.103142822265625,14.848351205033063,2.897029601496458,-1.8548172814436257
1772796802394134800,3.113134765625,15.350987423193454,2.8768174190729856,-2.215346291349083
1772796802404127700,3.123127685546875,15.166279675096273,2.7851521118104454,-2.767077525937557
1772796802414119700,3.13311962890625,14.488438865721225,2.817076943859458,-3.131705203333497
1772796802424111900,3.14311181640625,13.716757743132113,2.6747546315491197,-2.883333084577322
1772796802434103800,3.153103759765625,12.641093673723935,2.5284078860282895,-2.6735505164563653
1772796802444096800,3.1630966796875,11.079069982695579,2.3485727124035356,-1.934882751805335
1772796802454089000,3.1730888671875,8.978349749088286,2.050344091327488,-0.8209304527960717
1772796802464081000,3.183080810546875,7.0420414945244785,1.5435112982600927,-0.38574689166173337
1772796802474072600,3.193072509765625,6.065155779254436,1.3361039348378776,-0.20017361277639864
1772796802484064800,3.203064697265625,5.536586078414321,1.014652843606472,-0.11928674302920698
1772796802494058000,3.21305810546875,5.230859502798318,0.7994251618221402,-0.45120165286883707
1772796802504049700,3.223049560546875,5.06789187734425,0.847010065948218,-0.9178661016769707
1772796802514041900,3.233041748046875,4.8221992069303985,0.9322199134610593,-1.1755224738679826
1772796802524033800,3.24303369140625,4.274136285591125,0.9615385085344313,-1.4144788217641413
1772796802534026000,3.25302587890625,3.233521317732334,0.7906934277035296,-1.5902335942074655
1772796802544018700,3.263018798828125,1.8698574680566786,0.2615212309256196,-1.5795061562269925
1772796802554011000,3.273010986328125,0.3457978892415762,-0.6938472106717527,-1.032612863188982
1772796802564002800,3.2830029296875,-1.3513093950152397,-1.57797207852751,-0.6220428612422197
1772796802573994800,3.292994873046875,-2.869137970486283,-1.7597826438784598,0.36222792277783156
1772796802583986700,3.302986572265625,-5.213872712162137,-2.212111985602975,2.0140030502714215
1772796802593980000,3.31297998046875,-9.131474025920033,-3.2756805435478684,2.9939181963652373
1772796802603971800,3.322971923828125,-13.385738320827484,-3.0310131245285272,2.759666372898221
1772796802613963800,3.3329638671875,-15.92118268136382,-1.5501970596343277,1.2711889795958995
1772796802623955700,3.342955810546875,-15.535552547949552,-1.1863251690417527,0.49482956299744546
1772796802633949000,3.352948974609375,-14.904778610175848,-1.2640437840163707,1.3194424306333064
1772796802643940900,3.36294091796875,-16.019461853808163,-1.7147086996600032,1.9708774636417625
1772796802653932800,3.372932861328125,-20.03883427377939,-1.8043270112648606,1.5848773278713226
1772796802663924700,3.3829248046875,-26.28557762328386,0.055555736874789,1.0949013423848897
1772796802673917000,3.3929169921875,-31.943705091786384,2.025974935355037,1.721861201763153
1772796802683910000,3.402909912109375,-36.84603874266148,2.6578373990178106,2.863774397626519
1772796802693901800,3.41290185546875,-35.716985612893104,1.470932092000544,3.9963735294386744
1772796802703894000,3.42289404296875,-28.038561108541487,-1.0430778508409857,4.327070587921142
1772796802713885700,3.4328857421875,-21.467966913187503,-1.7061990838594734,2.8043504410162567
1772796802723878000,3.4428779296875,-15.252309606820344,-2.115728417646885,1.668715887030959
1772796802733870800,3.452870849609375,-8.760179876372218,-2.297666993291676,1.1161522202063352
1772796802743862800,3.46286279296875,-3.0083985571384426,-1.791541471710801,0.6309831235449761
1772796802753854700,3.472854736328125,0.8890572096914052,-0.9770463126592337,0.06931289793998002
1772796802763847000,3.482846923828125,4.157178716161847,-0.03990625925697386,-0.1607590094938874
1772796802773838800,3.4928388671875,6.318006504729389,0.4004528778843581,-0.532853150312975
1772796802783831800,3.502831787109375,7.8149366690784685,0.6101965022344141,-0.8017454945284873
1772796802793823700,3.51282373046875,8.612516203033923,1.131604421686381,-0.4308958008125424
1772796802803816000,3.52281591796875,8.60004425947368,1.591570103508234,-0.3926213805411011
1772796802813807600,3.5328076171875,8.845077004674076,2.066646406830847,-0.6002165946856141
1772796802823800800,3.54280078125,9.68846493460238,2.320265924721211,-0.5363016833316534
1772796802833793000,3.55279296875,10.418243436485529,2.2091323852702973,-0.8818770158637315
1772796802843784700,3.56278466796875,11.483626934897899,1.300979722225666,-1.2789511380299925
1772796802853776600,3.572776611328125,13.153710018628836,0.5842259754799306,-1.3283416302733122
1772796802863768800,3.582768798828125,14.565868142360449,0.22774477966055273,-1.2936350585512817
1772796802873761800,3.59276171875,14.928343025636671,0.22786519116982817,-1.0107781210649758
1772796802883753700,3.602753662109375,14.500734868192671,0.4532148923873901,-0.9818792857736348
1772796802893746000,3.612745849609375,14.103468072998522,0.9115252082176506,-1.109038150417432
1772796802903737900,3.62273779296875,13.74835933457613,1.5028276979550719,-0.6740127755194902
1772796802913729800,3.632729736328125,13.12070674369335,1.9796771484300493,-0.1296170714508742
1772796802923722800,3.64272265625,12.335948697388172,2.2420814458005127,0.2989396188896149
1772796802933715000,3.65271484375,11.70955049048066,2.403902969959378,0.42384266743063925
1772796802943706600,3.66270654296875,11.32655655078888,2.534723937307298,0.019219518124312163
1772796802953698800,3.67269873046875,11.32163136934638,2.5409163622066377,-0.41395394529663027
1772796802963691800,3.68269189453125,11.131721376430988,2.495510994076729,-0.48178361894153054
1772796802973683700,3.69268359375,10.52786350263357,2.3165319988898934,-0.6472411615151912
1772796802983675600,3.702675537109375,9.830580326163767,2.113789120147377,-0.32840792463198304
1772796802993667800,3.712667724609375,8.95501271264255,1.783826075027883,0.26825353485532105
1772796803003659800,3.72265966796875,8.011307966962455,1.2850202288106083,0.20129969419687985
1772796803013652700,3.73265283203125,7.602502125144005,0.9226928642462938,-0.17362353256829083
1772796803023645000,3.74264501953125,7.4898758629173035,0.6435140307508409,-0.5813657637432217
1772796803033636900,3.752636962890625,7.274851887011527,0.40517910268865526,-1.0749942803878336
1772796803043628800,3.76262890625,6.7007660511434075,0.36383323908261955,-1.2895914822489023
1772796803053620700,3.772620849609375,5.703194690719246,0.3558049770582467,-1.0141935555316508
1772796803063614000,3.782614013671875,4.44470094204545,0.2775323814626783,-0.5960507071778178
1772796803073606000,3.79260595703125,3.3255314929097888,-0.028631343461573124,-0.5514285983800887
1772796803083597800,3.802597900390625,2.7328017468482253,-0.9134392982106655,-0.8321092878058552
1772796803093589800,3.81258984375,2.3240023347705603,-2.046832576075196,-0.8861832616902887
1772796803103582000,3.82258203125,1.0875924076110124,-2.144067938555032,0.5164351725406945
1772796803113574700,3.83257470703125,-1.9493050987809895,-1.8638801472127438,2.8521631625488397
1772796803123566800,3.84256689453125,-7.196548750147223,-1.5804051508933306,4.440892781934142
1772796803133558800,3.852558837890625,-13.262518768393992,-1.0265620387174188,4.019924208635092
1772796803143551000,3.862551025390625,-18.554340397155283,0.09930873468779026,2.5913983029484746
1772796803153543200,3.872543212890625,-20.449203711652753,0.5884634669192135,0.20484445413164792
1772796803163536400,3.882536376953125,-18.551403759181497,-0.9820277543336152,-1.9379098445415495
1772796803173528300,3.8925283203125,-17.37405509279966,-2.2431546279899774,-2.3176034275136885
1772796803183520300,3.902520263671875,-17.841139520585536,-3.20277429729104,-1.8422712497338651
1772796803193512200,3.91251220703125,-21.00892316851616,-2.8872394443660974,-0.8789013610538094
1772796803203505200,3.922505126953125,-25.31085697709322,-1.066984138542041,0.6192614138301462
1772796803213497300,3.932497314453125,-29.204729040217398,0.47975171125512567,2.9768396357923743
1772796803223489300,3.9424892578125,-31.996501446950433,0.706040775682032,4.709273377235234
1772796803233481500,3.9524814453125,-31.911769153821467,-0.15669249070733784,5.196712903046608
1772796803243473400,3.962473388671875,-28.023286382520197,-0.8523340374499558,5.384959346663951
1772796803253466400,3.97246630859375,-21.011373484277723,-1.3913406688913703,4.295255061465501
1772796803263458300,3.982458251953125,-11.490603788173198,-2.111164470732212,2.6292761981829997
1772796803273450500,3.992450439453125,-4.081317711752653,-1.9254148123666643,1.0805240766599773
1772796803283442200,4.002442138671875,0.5859715039730071,-0.8362240296483039,-0.09325820247717201
1772796803293434400,4.012434326171875,3.0155905144691464,0.10233546209782361,-0.43874892546571787
1772796803303427300,4.02242724609375,3.6790251973509784,0.633810090599209,-0.3226294142957777
1772796803313419300,4.032419189453125,3.497152380418777,1.0956481421642006,-0.48998394959717984
1772796803323411200,4.0424111328125,4.043026267281174,1.209226006027311,-0.7582689025040715
1772796803333403400,4.0524033203125,5.7052773422122,1.5881509427145122,-0.7752486788775771
1772796803343396400,4.062396240234375,8.037586317557096,1.853910834123194,-0.8507872463993728
1772796803353388300,4.07238818359375,10.629119060540198,1.98122379335016,-0.6092921007405966
1772796803363380200,4.082380126953125,13.080718432176113,2.0961261838153002,-0.6300106983162462
1772796803373372400,4.092372314453125,14.863659833323954,1.778858661878854,-1.1647357799809426
1772796803383364000,4.102364013671875,15.960543216371535,1.2808872206591069,-1.7199264343082903
1772796803393357300,4.112357421875,16.2236517164886,1.0670851877637206,-2.058475667595863
1772796803403349500,4.122349609375,15.461284365689753,1.1021519711002707,-2.2369708247885107
1772796803413341200,4.132341064453125,14.491030635780096,1.1267865000106394,-2.21382726508826
1772796803423333400,4.14233349609375,13.833556907129287,1.311373398207128,-2.1714166948601603
1772796803433325300,4.1523251953125,13.26255851588249,1.68326112973392,-2.0854807250298557
1772796803443318300,4.162318359375,12.714824095845222,2.158706120238453,-1.4135896178394556
1772796803453310200,4.172310302734375,12.699999451678991,2.558325469908118,-0.5954161356013268
1772796803463302400,4.182302490234375,12.664999449968338,2.933969631358981,-0.02127908100262284
1772796803473294300,4.19229443359375,12.483595419591664,3.011712211731076,0.28811471188403665
1772796803483286300,4.202286376953125,12.196215232527255,2.9261563272595406,0.1343474609736353
1772796803493279200,4.212279296875,11.992450901782512,2.865812917716801,-0.37429976110458374
1772796803503271400,4.222271484375,11.554983029103278,2.80258197003901,-0.7479561097390949
1772796803513263000,4.23226318359375,11.080028598594664,2.687297886779904,-0.8901701393693685
1772796803523255300,4.24225537109375,10.226986705136298,2.6641765389114616,-0.8781960623286664
1772796803533248500,4.25224853515625,9.022166094461083,2.616849555069208,-0.7921264561813324
1772796803543240200,4.262240234375,7.560885920163988,2.484348379549384,-0.8019414554920047
1772796803553232100,4.272232177734375,6.376629958611726,2.06455688720569,-1.059587525484711
1772796803563224300,4.282224365234375,5.650400673642754,1.6737519815020263,-1.2776564220443367
1772796803573216300,4.29221630859375,5.6693146329492325,1.405503195887059,-1.3076958787381647
1772796803583209200,4.302209228515625,5.955565523722767,1.3351669462487101,-1.2320698521286249
1772796803593201400,4.312201416015625,5.793620811575651,0.83001143874377,-1.2406686075173317
1772796803603193300,4.322193359375,5.266391419428587,0.37255963943898673,-1.2776628517851232
1772796803613185300,4.332185302734375,4.739554825991392,0.36862259225100275,-0.9986858975373208
1772796803623177200,4.34217724609375,3.328483912974596,-0.2719675138771534,-1.0419302882410586
1772796803633170400,4.35217041015625,0.9447761743038893,-1.8100465579554437,-0.4206985972512513
1772796803643162400,4.362162353515625,-1.9668910243541,-3.4528199022173878,1.0233979486633091
1772796803653154300,4.372154296875,-4.983398069146276,-4.279003014844656,2.396917494986206
1772796803663146200,4.382146240234375,-8.048017695200443,-3.8107302540570496,3.4011262475982305
1772796803673138400,4.392138427734375,-11.561562407493591,-2.8341186795532702,3.65819955920428
1772796803683131100,4.402131103515625,-15.764643043130635,-2.453033203831315,2.601002582117915
1772796803693123300,4.412123291015625,-19.765521190512178,-2.3844791614346206,1.548408130390942
1772796803703115300,4.422115234375,-22.107281884813307,-0.9228528040483593,1.4516472535550593
1772796803713107500,4.432107421875,-23.972559039342404,0.4569290906049311,0.9404353686206042
1772796803723100400,4.442100341796875,-27.810945946609973,1.8024258538186548,-0.41609219943433995
1772796803733092400,4.45209228515625,-34.04390860804319,3.8354949852183458,-1.8882897813260555
1772796803743084300,4.462084228515625,-39.331009638023374,4.881538407866657,-0.8281432337190955
1772796803753076200,4.472076171875,-40.1442900144577,3.6659704854667186,1.9846888391122222
1772796803763068200,4.482068115234375,-33.20298969857693,1.1503803607616574,3.143980163016915
1772796803773061400,4.492061279296875,-24.415811340641973,-1.1324426260761915,2.3788348719373342
1772796803783053300,4.50205322265625,-16.94360148279667,-1.5879671105802058,1.8065699678860603
1772796803793045200,4.512045166015625,-10.237517451500892,-1.8945827439904213,1.2068493400238454
1772796803803037400,4.522037353515625,-3.955798065683245,-2.072545109480619,0.54495019614622
1772796803813029400,4.532029296875,1.5111100808709859,-1.9364906253933905,-0.14610212310999632
1772796803823022300,4.542022216796875,5.2686301382660865,-1.3523450216732917,-0.5086414499245584
1772796803833014300,4.55201416015625,7.0325938672214745,-0.535571615491435,-0.8228766184277833
1772796803843006500,4.56200634765625,7.419023626580834,0.43610177195779976,-1.033237717089057
1772796803852998100,4.571998046875,7.597863943949341,1.395850547531247,-1.270208736386895
1772796803862991400,4.581991455078125,8.521856273421644,2.12992513917312,-1.387480778592825
1772796803872983300,4.5919833984375,10.08643958580494,2.5764804275408384,-0.9079122053522616
1772796803882975200,4.601975341796875,12.2985580011487,2.425254093284905,-0.14813991254791617
1772796803892967200,4.61196728515625,14.291364972525834,1.8611543755106628,0.10281162824220955
1772796803902959400,4.62195947265625,15.819607974505423,1.2644412589013576,-0.2793970062907785
1772796803912952300,4.631952392578125,16.642860294377805,0.7286417529381811,-0.9805431417990476
1772796803922944300,4.6419443359375,16.834651278734206,0.5340848109997809,-1.673574432978034
1772796803932936200,4.651936279296875,16.600788746845723,0.6774170310050248,-2.082140913082659
1772796803942928400,4.661928466796875,16.108906562411786,1.0411766933947801,-1.79802893403396
1772796803952920300,4.67192041015625,15.266797566378116,1.389279498577863,-0.8485886403765529
1772796803962913300,4.681913330078125,14.252516478693485,1.788693681064248,-0.057838952441141005
1772796803972905500,4.691905517578125,13.237807520985603,2.332296115863323,-0.2792592783205211
1772796803982897400,4.7018974609375,12.32108547477722,2.773615987795591,-1.0983744253229348
1772796803992889300,4.711889404296875,11.694025589090584,3.13399360653162,-2.3094264046683906
1772796804002882300,4.72188232421875,11.477746644687652,3.316101985785365,-3.112495475950837
1772796804012874200,4.731874267578125,11.586743610501289,3.166690591996908,-3.0491397328495977
1772796804022866200,4.7418662109375,11.630260096144676,2.721073315131664,-2.489477266870439
1772796804032858400,4.7518583984375,10.938416480380296,2.2517171430215237,-1.4789669298961758
1772796804042850300,4.761850341796875,9.709237088996172,1.9195926820844411,-0.7342652919083833
1772796804052843300,4.77184326171875,8.563037594115734,1.7652233736276626,-0.42060412390083074
1772796804062835200,4.781835205078125,7.700017327478528,1.7948717851772904,-0.33898528661727906
1772796804072827400,4.791827392578125,7.041248882842064,1.8762405932225286,-0.5134979500450194
1772796804082819300,4.8018193359375,6.5434852391541,1.7959142799675463,-0.6202126501403749
1772796804092811300,4.811811279296875,5.917801317995786,1.6161033640012143,-0.26318171148374675
1772796804102804500,4.821804443359375,5.622687906330824,1.511715937809646,-0.10339125476107
1772796804112796400,4.83179638671875,5.862901268550753,1.3551362598270178,-0.36306305842772124
1772796804122788000,4.8417880859375,6.114344465315342,1.059548800909519,-0.24760383779741824
1772796804132780300,4.8517802734375,5.356813448631764,0.32506197520494456,-0.16236549484245477
1772796804142772200,4.861772216796875,3.7068408405154942,-0.6684586485236883,-0.19765169308334588
1772796804152765400,4.871765380859375,1.6368015763759611,-1.3632950163632631,0.02945741902217269
1772796804162757600,4.881757568359375,-0.20359774200618266,-1.2949706910692154,1.1223230908609927
1772796804172749600,4.89174951171875,-2.425770518374443,-1.0170232259996235,2.869041524374485
1772796804182741800,4.90174169921875,-6.544671818590164,-1.2779407919436692,3.64062210919857
1772796804192733400,4.9117333984375,-12.203189747714996,-2.2546941130056974,3.0956799502283334
1772796804202726700,4.9217265625,-17.793468253350255,-3.168742263829708,1.858845952437818
1772796804212718600,4.931718505859375,-20.480117905354497,-3.0439877569139,0.5951866376943886
1772796804222710500,4.94171044921875,-20.586746388471127,-2.791328754618764,-0.13851159491576254
1772796804232702500,4.951702392578125,-21.377225735032557,-2.435881724152714,0.7722617720212787
1772796804242695700,4.96169580078125,-23.153515277075766,-2.0860056256867945,2.02227301209718
1772796804252687400,4.971687255859375,-26.726929059398174,-1.6401929723799227,2.150390857966244
1772796804262679600,4.981679443359375,-32.476162447714806,0.04509370836485177,2.4362319988951087
1772796804272671500,4.99167138671875,-37.531418715369696,1.150842571445927,4.5834167542964215
1772796804282663700,5.00166357421875,-39.37808936910629,0.934718233082816,7.257995444756746
1772796804292656600,5.01165673828125,-36.59591247371435,-0.4330871003117412,7.640632826095819
1772796804302648600,5.021648681640625,-26.643515447652337,-2.212048272716999,5.318094718658924
1772796804312640800,5.031640869140625,-15.340713866460323,-2.7373674473285674,2.4311887440308926
1772796804322632400,5.041632568359375,-8.791317941957711,-2.5612229449152943,0.593770341155678
1772796804332624600,5.051624755859375,-3.9228748702466487,-1.556759779150784,0.5550272073939442
1772796804342617600,5.06161767578125,-0.5110422274559736,0.4143261396098882,0.9141977153625339
1772796804352609500,5.071609619140625,1.2269137845396996,2.375243277186155,1.1288662288941442
1772796804362601500,5.0816015625,2.5790064388871192,3.190404060539603,0.8934725419156253
1772796804372593700,5.09159375,4.448931711483001,3.2929940819203853,0.6857675837863236
1772796804382586400,5.10158642578125,7.339639124220609,3.334021088835597,0.5919218637447804
1772796804392578600,5.11157861328125,10.69765775923729,3.5007045199424027,0.2659122324261814
1772796804402570500,5.121570556640625,13.783224896252154,3.5273332914099096,0.21366123618520794
1772796804412562700,5.131562744140625,16.350653125548362,3.0346839219957586,-0.3145274294480681
1772796804422554400,5.141554443359375,18.220185599434373,2.0154154012873766,-1.078476058088988
1772796804432547600,5.151547607421875,19.524345120739937,0.8298097786918281,-1.3855530254006385
1772796804442539500,5.16153955078125,20.275462763249873,0.03871054666638374,-1.5108283413201569
1772796804452531500,5.171531494140625,19.83130094588995,-0.08671762172728777,-1.8186115572050212
1772796804462523400,5.1815234375,18.445765456146002,0.3699345516324043,-1.7905021917909383
1772796804472515600,5.191515625,16.73089162905216,1.1216720796063542,-1.784262420618534
1772796804482508500,5.201508544921875,15.026498279440402,1.9851780839338897,-1.7584847130224108
1772796804492500500,5.21150048828125,13.647341092556713,2.7461457970678804,-1.7508990801990032
1772796804502492700,5.22149267578125,12.662606417351961,3.195219936388731,-1.6409892373241484
1772796804512484600,5.231484619140625,12.019103930908441,3.2393688747167584,-1.3849465839400887
1772796804522476800,5.241476806640625,11.42553247332573,3.20909765509367,-1.15973044597432
1772796804532469500,5.251469482421875,10.87928741506338,3.21646438446939,-1.2486422167450189
1772796804542461700,5.261461669921875,10.098515808045864,3.1975141848057507,-1.5475973985299467
1772796804552453600,5.27145361328125,8.865172867241501,3.1956793705940245,-1.7552984842017292
1772796804562445600,5.281445556640625,7.441935715612769,3.0900492508649826,-1.3963152424335479
1772796804572437500,5.2914375,6.165761933341622,2.8604218723282218,-0.801110119234398
1772796804582430700,5.3014306640625,5.322687307146191,2.8759818450316783,-0.4336608085464686
1772796804592422400,5.31142236328125,5.139449631601572,2.8783520812943575,-0.075214304003492
1772796804602414600,5.32141455078125,5.605788793978094,2.891984008544683,0.018594883419945835
1772796804612406500,5.331406494140625,6.133390526568889,2.7125252670168876,-0.08377499240413308
1772796804622399500,5.3413994140625,6.407796665769815,2.52649503814429,-0.2505162911780178
1772796804632391400,5.351391357421875,6.39387510792315,2.735722602730989,-0.566109084835276
1772796804642383600,5.361383544921875,6.273965118429064,2.8746874213069677,-0.8856935784772038
1772796804652375600,5.37137548828125,6.064634970250725,2.342534455152601,-1.0323137341119348
1772796804662367500,5.381367431640625,5.827076506453752,0.5191418011508881,-0.8429181204594671
1772796804672360700,5.391360595703125,5.415225890111923,-1.3886971686452627,-0.8596109696503728
1772796804682352600,5.4013525390625,4.606694754031301,-2.334856614001095,-0.9038053545553236
1772796804692344600,5.411344482421875,3.1554350384891032,-2.133933644162118,0.7011958929341287
1772796804702336500,5.42133642578125,0.26434534843564034,-2.4640759913712738,2.8338749339252707
1772796804712328700,5.43132861328125,-3.7422044148415323,-3.5122289535194633,3.9845392992600797
1772796804722321400,5.4413212890625,-7.9766183463752265,-4.520092575377226,3.8225598080605265
1772796804732313600,5.451313720703125,-11.93683948919773,-4.584247944423556,2.7348680317282676
1772796804742305500,5.461305419921875,-14.777379726231098,-2.8237510147958993,0.9007068770833313
1772796804752297700,5.471297607421875,-16.95907494626045,-1.0832560589071363,0.25864534669574346
1772796804762290400,5.48129052734375,-20.963367870521544,0.35433885002844034,1.006997433482483
1772796804772282600,5.49128271484375,-26.391651979649065,2.389804886502027,0.207088177937828
1772796804782274600,5.501274658203125,-32.80809138607979,4.077330395682156,-1.2096109136916697
1772796804792266500,5.5112666015625,-38.65716812741756,5.463138564887642,-1.6197852673843502
1772796804802258400,5.521258544921875,-42.15787907710075,5.123578693252802,-0.4726893351208418
1772796804812251600,5.531251708984375,-39.9488773324728,2.0983282239042222,1.1603609258975833
1772796804822243300,5.541243408203125,-30.712285812520978,-0.4768044422894716,1.3445223652236162
1772796804832235500,5.551235595703125,-21.027814915990827,-1.8845453341007232,0.414365229511261
1772796804842227500,5.5612275390625,-12.824679139792918,-2.6211563123524186,0.13923625592850147
1772796804852219600,5.5712197265625,-6.5568818963438265,-2.2685613103166222,-0.11870002918243408
1772796804862212600,5.581212646484375,-2.3254133706122637,-1.0799103286758065,-0.875302752039954
1772796804872204500,5.59120458984375,0.6929664823144673,0.2771975234851241,-1.674586824890971
1772796804882196700,5.60119677734375,3.0373698000788685,1.5320533540479837,-2.1111483963802455
1772796804892188700,5.611188720703125,4.7591684579998255,2.401705606045574,-2.2458847836062312
1772796804902180600,5.6211806640625,5.92797725957334,2.8149714960128067,-1.9275025784261524
1772796804912173600,5.631173583984375,6.926825800326466,2.660872821190953,-1.4177502446502446
1772796804922165800,5.641165771484375,8.320522969216109,2.223670613710582,-1.1875083874769508
1772796804932157400,5.651157470703125,10.179653291553258,1.9401060394115746,-0.7608689289346336
1772796804942149600,5.661149658203125,12.185827109503744,1.5040991791956126,-0.1956940562095493
1772796804952142600,5.671142578125,13.87791978046894,0.7487110197596252,-0.040535935462638735
1772796804962134500,5.681134521484375,15.173198076182603,0.06635404813438654,-0.47727322884500023
1772796804972126500,5.69112646484375,15.961796431303023,-0.262866069663316,-0.8311693766072392
1772796804982118700,5.70111865234375,16.03036201800704,-0.39286227662488815,-1.0249939856830983
1772796804992110600,5.711110595703125,15.57188525956869,-0.20071838717758655,-1.2648252897828816
1772796805002103600,5.721103515625,14.79483121176958,0.34038156328126784,-1.4467027828902006
1772796805012095500,5.731095458984375,14.086491219234466,0.9662161449566483,-1.2615619040727615
1772796805022087700,5.741087646484375,13.36726275293827,1.7368872137203812,-1.2194424257457255
1772796805032079400,5.751079345703125,12.481950574994087,2.56376853774488,-1.182349762604758
1772796805042071600,5.761071533203125,11.28304357227683,3.1759459115982054,-0.9160233233544975
1772796805052064800,5.771064697265625,10.001445426869392,3.5849861466944217,-0.6914229061342776
1772796805062056400,5.781056396484375,9.020226650831102,3.887720554757118,-0.6985307653781027
1772796805072048600,5.791048583984375,8.569584239280223,3.9970477754384275,-0.955924614175409
1772796805082040600,5.80104052734375,8.668640241315961,3.840899766871333,-1.2880192644961177
1772796805092032800,5.81103271484375,9.084038321006297,3.421392790557444,-1.4481697867028414
1772796805102025500,5.821025390625,9.32473332926333,2.8161405397921797,-1.4013324860736727
1772796805112017700,5.831017578125,9.245063580220938,2.338738862261921,-1.1202836209226399
1772796805122009600,5.841009521484375,8.94344853157699,2.1403651385143396,-0.8142170727625488
1772796805132001500,5.85100146484375,8.339715160942077,2.0749046782188114,-0.4949808080364018
1772796805141993500,5.860993408203125,7.413666483461856,1.9192193187274038,-0.14815416026897726
1772796805151987000,5.870987060546875,6.6974792845577,1.6099514172427356,0.12529263238050042
1772796805161979000,5.880978759765625,6.458035153144597,1.4202531673818826,0.30790443111173804
1772796805171970800,5.890970703125,6.433084251761436,1.1765503556109964,0.6011700229529291
1772796805181963000,5.900962890625,5.7331806636601685,0.5521703566581011,0.9936283218868076
1772796805191956000,5.9109560546875,4.398854552149772,0.13481369024589657,0.7471736541245132
1772796805201948000,5.920947998046875,2.4229309110343453,-0.5319314323581755,0.0959058674417436
1772796805211940000,5.930940185546875,-0.03593114508092403,-1.2143401341706515,0.275229657478258
1772796805221932000,5.94093212890625,-1.8809400030851362,-1.5477867836222052,1.9463000717461107
1772796805231923700,5.950923828125,-3.7439164794564244,-1.8764549666255712,4.638426693856716
1772796805241917000,5.9609169921875,-5.968239127334952,-2.5061457853376865,6.364971085000038
1772796805251909000,5.9709091796875,-9.258977539283036,-2.1531445405885576,6.662233199131489
1772796805261900800,5.98090087890625,-13.801981034648417,-0.1280704995959997,5.527614836451411
1772796805271893000,5.99089306640625,-17.961641046231986,0.3034105537585914,3.763765089264512
1772796805281885000,6.000885009765625,-19.348554838591813,-0.6499181987047195,3.2378140464901923
1772796805291878000,6.0108779296875,-18.346968397307396,-0.3718273796416819,3.3251158978462216
1772796805301869800,6.020869873046875,-20.56228765451908,-0.766679295713827,2.6857015574991703
1772796805311862000,6.030862060546875,-26.042603564178943,-0.9692929951187222,3.1470944956451654
1772796805321854000,6.04085400390625,-32.724855468988416,-0.22361476718373596,5.540409436094761
1772796805331847000,6.050846923828125,-37.03446288093328,0.019786065965890883,7.8100594184309236
1772796805341838800,6.0608388671875,-35.843506544959546,-0.8455198273904622,7.564756039595603
1772796805351831000,6.0708310546875,-29.550518161630627,-1.8300646791115402,6.119920219621062
1772796805361822700,6.08082275390625,-21.046115127313136,-2.428166765861213,3.7825840637639163
1772796805371815000,6.09081494140625,-11.96067629185915,-2.9939655426383016,1.1121531406328082
1772796805381808000,6.10080810546875,-6.085746731862425,-2.4805296980440614,-1.0733160449773071
1772796805391799800,6.1107998046875,-2.9581787744641304,-0.9364254753921181,-1.7610830589525401
1772796805401792000,6.1207919921875,-1.8956793070554732,0.7465529649429022,-1.066762970072031
1772796805411784000,6.130783935546875,-0.6969160967230796,1.876461834757775,-1.2654510204657912
1772796805421776000,6.14077587890625,2.0668483591437337,2.5656129965677854,-1.5149940826974808
1772796805431768800,6.150768798828125,5.860261567696929,2.9515748461544513,-2.1043967301629483
1772796805441761000,6.160760986328125,9.202853501001,3.211730926206708,-2.8276448073640466
1772796805451753000,6.1707529296875,11.48366200621128,3.536826803681254,-2.8043969105064868
1772796805461745000,6.180744873046875,13.100969777566194,3.4364322465181347,-2.5953990630224344
1772796805471736800,6.19073681640625,14.189454750102758,2.8928675133809447,-2.633334241402149
1772796805481730000,6.20072998046875,14.879865118193626,2.1448351235352456,-2.8973639480173587
1772796805491722000,6.210721923828125,15.301996305531263,1.4330302313685417,-2.9665450362712145
1772796805501714000,6.2207138671875,15.389005895942448,0.7740808772072195,-2.7320298856928944
1772796805511705900,6.230705810546875,15.20994462929964,0.6861191006377338,-2.6346494156539437
1772796805521699000,6.240698974609375,14.97627615867853,0.9690861474350094,-2.6764333784162995
1772796805531690800,6.250690673828125,14.652678995329142,1.6405366712510585,-2.41981687066704
1772796805541683000,6.260682861328125,13.706075021076202,2.445897360602021,-2.293314789431542
1772796805551675000,6.2706748046875,12.370364177209138,3.067007397973537,-2.2545111576542256
1772796805561667000,6.2806669921875,10.827950026535987,3.639740065667033,-1.9085795590303838
1772796805571660000,6.290659912109375,9.212136293131113,4.040201272988319,-1.4330731937274337
1772796805581652000,6.30065185546875,8.144190835276246,4.029311045661569,-1.2241592251345514
1772796805591644200,6.31064404296875,8.031626532369852,3.9190605726554986,-1.3116878709837794
1772796805601635800,6.3206357421875,8.287143262183665,3.5798221880599854,-1.3486537659399211
1772796805611627800,6.330627685546875,8.631710148325562,3.2219717497140166,-0.9956253409229219
1772796805621621000,6.34062109375,8.586255388095974,3.0959815635234116,-0.7448870775572956
1772796805631613000,6.350613037109375,8.003870510438084,2.8448814811080694,-0.574344340673834
1772796805641604900,6.36060498046875,7.2987728608250615,2.601927003486454,-0.5073958337776363
1772796805651597000,6.37059716796875,6.652273530653119,2.610366622790694,-0.45589857851341364
1772796805661589000,6.380589111328125,6.1461155681073665,2.829451272264123,-0.2832582848288119
1772796805671582000,6.39058203125,5.826639284080267,2.869134171094,-0.41595922070443625
1772796805681574000,6.400573974609375,5.481937373381853,2.631474877271056,-0.48561800947263833
1772796805691566000,6.410566162109375,4.903451256728172,2.63912305393666,-0.4519323052309453
1772796805701557800,6.420557861328125,3.799377085393667,2.5429925839588043,-0.3998810693457722
1772796805711550000,6.430550048828125,2.0531693778812885,1.7602917624443768,-0.4459945857450366
1772796805721543000,6.44054296875,0.2616524560898542,0.48540509737432,-0.5352826424822211
1772796805731534800,6.450534912109375,-1.5807681389868258,-0.9262713803201913,0.18778905523866413
1772796805741526800,6.46052685546875,-3.333992447263002,-2.2535417281001804,2.1030496994681656
1772796805751519000,6.47051904296875,-4.66275683299303,-2.4498165798723694,3.9022015000522132
1772796805761512000,6.480511962890625,-5.744373088803887,-2.2208599402040243,4.603741749444604
1772796805771503900,6.49050390625,-6.823650088012218,-2.120880393582582,4.7469396755456925
1772796805781496000,6.50049609375,-7.831911769276857,-1.7116618793100118,4.090643466241658
1772796805791488000,6.510488037109375,-8.732408072349429,-2.817255807557702,2.4583435851991173
1772796805801480000,6.52047998046875,-9.471499176979064,-4.116939644753932,1.7497684687338768
1772796805811473000,6.530472900390625,-10.158298368835448,-4.080618039050698,1.325247025258839
1772796805821465000,6.540465087890625,-12.324969038212298,-3.0125854874342677,0.3967116455294192
1772796805831457000,6.55045703125,-15.595789866769312,-1.734642795794457,-0.5171596874229609
1772796805841449000,6.560448974609375,-17.776800027143953,-0.024207097278535365,-0.24561405221968888
1772796805851441000,6.57044091796875,-20.894324144911764,1.9280650346145032,1.1351131604596971
1772796805861433900,6.580433837890625,-24.145713127768037,3.1100732172399757,2.9301263999342915
1772796805871425800,6.59042578125,-25.348334182572362,3.0317136740133166,4.281906919592618
1772796805881418000,6.60041796875,-23.123718689227104,1.8750240570396184,3.7460596289649604
1772796805891410000,6.610409912109375,-17.62671117248535,1.2402686484143137,1.7556008281491695
1772796805901403000,6.62040283203125,-11.661653597795963,1.0143934620179236,-0.11091522052511572
1772796805911394800,6.630394775390625,-6.388679292845725,0.47531011207848783,-1.782992254552245
1772796805921387000,6.640386962890625,-1.8843717310994863,0.3389114907287061,-2.927757917237282
1772796805931379000,6.65037890625,1.8656863198518752,0.38640389426574107,-3.378907693788409
1772796805941371000,6.660370849609375,4.763215687564015,0.4073492132693529,-3.4810552320986985
1772796805951364000,6.670364013671875,6.829400614362955,0.5832631217971443,-3.3633734400480986
1772796805961356000,6.68035595703125,8.390872516727446,0.873096108841151,-3.231326145775616
1772796805971348000,6.690347900390625,9.608453240254521,1.3163902034558355,-2.9441315444111824
1772796805981340000,6.70033984375,10.64409451135397,1.8840606193237006,-2.433118835310638
1772796805991331800,6.710331787109375,11.39371110165119,2.1969515336111187,-2.206002708942443
1772796806001324800,6.72032470703125,11.741177800887822,2.149438379547,-1.9912869222030043
1772796806011317000,6.73031689453125,12.175315067839621,1.9443514218963682,-1.866665686278045
1772796806021309000,6.740308837890625,12.835730110639332,1.8349542047187686,-2.0759623705781993
1772796806031301000,6.750301025390625,13.412533973294495,1.8607783818051218,-2.2311520555071533
1772796806041292800,6.760292724609375,13.629837000048159,2.06328423692137,-2.0047364786237476
1772796806051286000,6.7702861328125,13.257705815154313,2.30856043548882,-1.6255330172561109
1772796806061278000,6.78027783203125,12.50106210269928,2.628630886016786,-1.16140437053591
1772796806071270000,6.790269775390625,11.318405977559088,3.0548095951795577,-0.6543380609735846
1772796806081261800,6.80026171875,9.967201796483993,3.4399455153360963,-0.1574758961699903
1772796806091254000,6.81025390625,8.41250099568963,3.743139357604086,0.4023321157597005
1772796806101246700,6.820246826171875,6.76930007366538,3.9460198912516233,0.9339534592553973
1772796806111239000,6.830239013671875,5.340606410196423,4.1483039203107355,1.456767080786824
1772796806121230800,6.84023095703125,4.082098632997274,4.180799537985027,1.9890712919801472
1772796806131223000,6.85022314453125,3.2826310933381317,3.7076530336812135,2.1229962166927754
1772796806141216000,6.860216064453125,2.6507915721595285,2.5038310786545277,1.6423131794042884
1772796806151208000,6.8702080078125,2.1621616675198077,0.6887482800975442,0.7590903749547898
1772796806161198800,6.88019873046875,1.6295909143447875,-2.2341142663136124,0.0050821255698800085
1772796806171191000,6.89019091796875,1.6179653584808111,-6.3698220321625465,0.04947378661260009
1772796806181183000,6.900182861328125,1.6088503241330385,-6.150000300586223,1.2553460982978344
1772796806191176000,6.910176025390625,0.17558277687728405,-1.9377853413790462,2.401314999292791
1772796806201168000,6.92016796875,-4.54792926132977,1.618395858852565,3.1442887905746697
1772796806211160000,6.93016015625,-11.044811154741048,2.891706360647082,3.2169018991038203
1772796806221151700,6.94015185546875,-16.09761126141548,2.4801141029804943,2.908036148679256
1772796806231144000,6.95014404296875,-17.986686640161274,1.208809388050437,4.271887629881501
1772796806241137200,6.96013720703125,-16.606299619221687,-0.04509674057215452,5.995502981835603
1772796806251128800,6.97012890625,-14.701981078636646,-1.1161860494107008,6.109991530802845
