time,seconds_elapsed,z,y,x
1772796799346510000,0.065510009765625,-0.19377970695495605,0.13338246941566467,-0.10419167578220367
1772796799356503300,0.07550341796875,-0.15179303288459778,0.17392531037330627,-0.12598749995231628
1772796799366495200,0.0854951171875,-0.11084213852882385,0.11900588124990463,-0.2153429388999939
1772796799376487200,0.095487060546875,-0.09886424988508224,0.03468392789363861,-0.3501913249492645
1772796799386479000,0.10547900390625,-0.1273515373468399,-0.0789470300078392,-0.4973973035812378
1772796799396471300,0.11547119140625,-0.14893364906311035,-0.14836402237415314,-0.5769386887550354
1772796799406464000,0.125464111328125,-0.14862792193889618,-0.2447584718465805,-0.563754141330719
1772796799416456200,0.135456298828125,-0.16307862102985382,-0.37215515971183777,-0.4157886207103729
1772796799426448100,0.1454482421875,-0.17296241223812103,-0.47707757353782654,-0.03715236485004425
1772796799436440300,0.1554404296875,-0.2074132114648819,-0.4800843298435211,0.4286334812641144
1772796799446432000,0.165431884765625,-0.20749948918819427,-0.2990242838859558,0.7919176816940308
1772796799456425200,0.17542529296875,-0.17109569907188416,-0.04576145485043526,0.8409439921379089
1772796799466417200,0.185417236328125,-0.1461528092622757,0.20717333257198334,0.5849944949150085
1772796799476409000,0.1954091796875,-0.18256571888923645,0.38774242997169495,0.14923825860023499
1772796799486401000,0.205401123046875,-0.1877727210521698,0.5858709812164307,-0.14194856584072113
1772796799496394200,0.215394287109375,-0.140595942735672,0.6784464120864868,-0.04652616009116173
1772796799506386200,0.22538623046875,-0.0032599163241684437,0.5198522806167603,0.3439752757549286
1772796799516378000,0.235378173828125,0.2086220234632492,0.6529698371887207,0.30464836955070496
1772796799526370300,0.245370361328125,0.3473578095436096,1.5137649774551392,-1.0203810930252075
1772796799536362200,0.2553623046875,0.41335952281951904,2.1798789501190186,-3.2259020805358887
1772796799546355200,0.265355224609375,0.40287280082702637,1.906907081604004,-4.7650532722473145
1772796799556347100,0.27534716796875,0.5564982891082764,1.2074260711669922,-4.472559452056885
1772796799566339300,0.28533935546875,0.5909223556518555,0.28257203102111816,-2.711318254470825
1772796799576331300,0.295331298828125,0.5672757029533386,-0.5577117800712585,-0.46820101141929626
1772796799586324200,0.30532421875,0.45014482736587524,-0.8090766668319702,1.2224761247634888
1772796799596316200,0.315316162109375,0.2640346884727478,-0.5464457273483276,1.8387510776519775
1772796799606308000,0.32530810546875,0.145759716629982,-0.20522841811180115,1.593134880065918
1772796799616300000,0.335300048828125,0.05411583557724953,-0.18209418654441833,0.8750868439674377
1772796799626292200,0.345292236328125,0.012267189100384712,-0.3365905284881592,0.10762321949005127
1772796799636285200,0.35528515625,0.08596622198820114,-0.38362401723861694,-0.3327711224555969
1772796799646277000,0.365277099609375,0.20623643696308136,-0.2636012136936188,-0.25514450669288635
1772796799656269000,0.37526904296875,0.2973754107952118,-0.03708747774362564,0.19844338297843933
1772796799666261200,0.38526123046875,0.4170567989349365,0.168814018368721,0.8539197444915771
1772796799676253200,0.395253173828125,0.5328003764152527,0.39565229415893555,1.4977359771728516
1772796799686246100,0.40524609375,0.5285630226135254,0.641061007976532,1.9526180028915405
1772796799696238300,0.41523828125,0.43130865693092346,0.7939716577529907,2.1228816509246826
1772796799706230300,0.425230224609375,0.3353658616542816,0.7457892298698425,1.9171538352966309
1772796799716222200,0.43522216796875,0.18195365369319916,0.4480784833431244,1.3278002738952637
1772796799726215200,0.445215087890625,0.021105103194713593,-0.0022761779837310314,0.5574676394462585
1772796799736207400,0.455207275390625,-0.07377077639102936,-0.4727444648742676,-0.14072059094905853
1772796799746199000,0.465198974609375,-0.11892387270927429,-0.841884195804596,-0.6109560132026672
1772796799756191200,0.475191162109375,-0.12023767828941345,-1.0438621044158936,-0.7787401080131531
1772796799766183200,0.48518310546875,-0.045210838317871094,-0.9915400147438049,-0.6843752264976501
1772796799776176000,0.495176025390625,0.055992476642131805,-0.7060518264770508,-0.4115130603313446
1772796799786168000,0.50516796875,0.13546958565711975,-0.2444564700126648,-0.08839136362075806
1772796799796160300,0.51516015625,0.20954586565494537,0.3282986283302307,0.13048359751701355
1772796799806152200,0.525152099609375,0.27167075872421265,0.868111252784729,0.1534472405910492
1772796799816144100,0.53514404296875,0.3533511161804199,1.2242040634155273,0.06160683557391167
1772796799826137000,0.54513720703125,0.4156682789325714,1.3165241479873657,-0.015736684203147888
1772796799836129300,0.55512939453125,0.4493725597858429,1.1970694065093994,-0.015415111556649208
1772796799846121000,0.565120849609375,0.5219865441322327,0.9801461100578308,0.004340484272688627
1772796799856113200,0.575113037109375,0.6117838621139526,0.712624728679657,0.0705355703830719
1772796799866106400,0.5851064453125,0.658150315284729,0.492797315120697,0.16229958832263947
1772796799876098000,0.59509814453125,0.6337066292762756,0.3233455717563629,0.22222581505775452
1772796799886090200,0.60509033203125,0.5511121153831482,0.1737331748008728,0.1766788363456726
1772796799896082200,0.615082275390625,0.4554445445537567,0.026150096207857132,0.03483539819717407
1772796799906074400,0.625074462890625,0.3665391504764557,-0.10998217016458511,-0.08127816021442413
1772796799916067000,0.635067138671875,0.3019923269748688,-0.19098086655139923,-0.0989207923412323
1772796799926059300,0.645059326171875,0.2632893919944763,-0.22372975945472717,0.018637800589203835
1772796799936051200,0.65505126953125,0.20214104652404785,-0.21298786997795105,0.181557759642601
1772796799946043100,0.665043212890625,0.0898137167096138,-0.09596644341945648,0.22954872250556946
1772796799956036000,0.6750361328125,-0.06625460833311081,-0.0666409432888031,0.038547299802303314
1772796799966028300,0.6850283203125,-0.062437497079372406,-0.3765876293182373,-0.27228033542633057
1772796799976020200,0.695020263671875,0.1103164479136467,-0.9867227077484131,-0.2979506850242615
1772796799986012200,0.70501220703125,0.3664742112159729,-1.0076076984405518,0.26530468463897705
1772796799996004000,0.715004150390625,0.5179168581962585,-0.26390376687049866,1.102097988128662
1772796800005997000,0.7249970703125,0.46902918815612793,0.5584074258804321,1.537091851234436
1772796800015989000,0.734989013671875,0.23420540988445282,1.3144909143447876,1.2749360799789429
1772796800025981200,0.744981201171875,-0.11503487825393677,1.946207880973816,0.48868846893310547
1772796800035973000,0.75497314453125,-0.4990081191062927,2.2320783138275146,-0.7114507555961609
1772796800045966000,0.764966064453125,-0.8162910342216492,1.683091640472412,-2.108675956726074
1772796800055958300,0.774958251953125,-0.8170552253723145,0.3517962694168091,-2.8676140308380127
1772796800065950200,0.7849501953125,-0.6280022263526917,-1.0824062824249268,-2.5416228771209717
1772796800075942400,0.7949423828125,-0.36879751086235046,-1.9216557741165161,-1.868489146232605
1772796800085934000,0.80493408203125,-0.24076522886753082,-2.021636962890625,-1.4619216918945312
1772796800095927300,0.81492724609375,-0.22100624442100525,-1.6813174486160278,-1.155637502670288
1772796800105919200,0.824919189453125,-0.11003231257200241,-1.168467402458191,-0.6797900199890137
1772796800115911200,0.8349111328125,0.04405729100108147,-0.8006641864776611,-0.16138586401939392
1772796800125903000,0.844903076171875,0.10880033671855927,-0.443572074174881,0.20847421884536743
1772796800135895300,0.854895263671875,0.10678409785032272,-0.004545930307358503,0.3403734862804413
1772796800145888000,0.864887939453125,0.04532765969634056,0.28893229365348816,0.30236750841140747
1772796800155879700,0.874879638671875,-0.014413613826036453,0.32788515090942383,0.27770575881004333
1772796800165871900,0.884871826171875,-0.08777464181184769,-0.0948549285531044,0.2952016592025757
1772796800175863800,0.89486376953125,-0.16814790666103363,-0.7968862652778625,0.46891528367996216
1772796800185856800,0.904856689453125,-0.2378886342048645,-1.3078575134277344,0.7569227814674377
1772796800195848700,0.9148486328125,-0.2601320445537567,-1.4215233325958252,1.0028361082077026
1772796800205841000,0.9248408203125,-0.19594481587409973,-1.2352176904678345,1.1725670099258423
1772796800215832800,0.934832763671875,-0.09405570477247238,-0.9018231630325317,1.264811635017395
1772796800225824800,0.94482470703125,-0.052253395318984985,-0.5881155729293823,1.0891107320785522
1772796800235818000,0.95481787109375,-0.04763123765587807,-0.4086829721927643,0.6321351528167725
1772796800245810000,0.964809814453125,-0.0398702509701252,-0.324348121881485,0.08489418029785156
1772796800255801900,0.9748017578125,-0.04949202388525009,-0.217046856880188,-0.4031215012073517
1772796800265793800,0.984793701171875,-0.05797126144170761,-0.09178853034973145,-0.6920247077941895
1772796800275786000,0.994785888671875,-0.06484851241111755,0.078793004155159,-0.7928458452224731
1772796800285778700,1.00477880859375,-0.05517537519335747,0.30725571513175964,-0.7699573040008545
1772796800295771000,1.01477099609375,-0.023293545469641685,0.4785114824771881,-0.6672770380973816
1772796800305762800,1.0247626953125,0.03295348212122917,0.514129638671875,-0.4628482758998871
1772796800315755000,1.034755126953125,0.08437452465295792,0.3938242495059967,-0.2608811855316162
1772796800325747700,1.044747802734375,0.12389583140611649,0.19124984741210938,-0.20543710887432098
1772796800335740000,1.054739990234375,0.1677631437778473,0.019221287220716476,-0.3253185749053955
1772796800345731800,1.06473193359375,0.20782773196697235,-0.0528571642935276,-0.5688209533691406
1772796800355723800,1.074723876953125,0.2072208821773529,-0.07402588427066803,-0.8139723539352417
1772796800365715700,1.0847158203125,0.13528810441493988,-0.19407638907432556,-0.9699249267578125
1772796800375709000,1.094708984375,0.03193851560354233,-0.37425974011421204,-1.0018653869628906
1772796800385700600,1.10470068359375,-0.04657120630145073,-0.5093578696250916,-0.9783541560173035
1772796800395692800,1.11469287109375,-0.08330057561397552,-0.5699331164360046,-0.973350465297699
1772796800405684700,1.124684814453125,-0.04757853224873543,-0.5199138522148132,-0.9824105501174927
1772796800415677000,1.134677001953125,0.02980862185359001,-0.38402000069618225,-0.910628080368042
1772796800425670000,1.144669921875,0.019597265869379044,-0.340590238571167,-0.7250049710273743
1772796800435661800,1.154661865234375,-0.019430510699748993,-0.4397831857204437,-0.38371020555496216
1772796800445654000,1.164654052734375,-0.08136498183012009,-0.6395977735519409,-0.009564565494656563
1772796800455645700,1.174645751953125,-0.0705563947558403,-0.8254501819610596,0.23100903630256653
1772796800465639000,1.184638916015625,0.09639210999011993,-0.6599003672599792,0.2716677784919739
1772796800475630800,1.194630859375,0.3353066146373749,-0.032757584005594254,0.06495454162359238
1772796800485622800,1.204622802734375,0.4824659526348114,0.8359072208404541,-0.11318643391132355
1772796800495614700,1.21461474609375,0.430357962846756,1.2602702379226685,-0.1270720213651657
1772796800505607000,1.22460693359375,0.1371188759803772,1.0048400163650513,-0.039248958230018616
1772796800515599600,1.234599609375,-0.09386380016803741,0.1317170411348343,0.06614896655082703
1772796800525591800,1.244591796875,-0.04379291459918022,-0.3098965883255005,-0.1313324123620987
1772796800535583700,1.254583740234375,-0.013750571757555008,0.19163504242897034,-1.4817849397659302
1772796800545576000,1.264575927734375,0.15423549711704254,0.8003478646278381,-3.727447271347046
1772796800555568600,1.274568603515625,0.3470752239227295,0.7779157757759094,-5.5159478187561035
1772796800565560800,1.284560791015625,0.3455550968647003,0.4342752993106842,-5.425074577331543
1772796800575552800,1.294552734375,0.2963038980960846,-0.18261973559856415,-3.5067367553710938
1772796800585544700,1.304544677734375,0.532209575176239,-0.6420376896858215,-0.6885867714881897
1772796800595536600,1.31453662109375,0.6538244485855103,-0.5264754891395569,1.7833492755889893
1772796800605529900,1.32452978515625,0.6056539416313171,-0.22324055433273315,2.9908523559570312
1772796800615521800,1.334521728515625,0.4844456613063812,0.027404168620705605,3.254307746887207
1772796800625513700,1.344513671875,0.36636030673980713,0.184484601020813,2.785287618637085
1772796800635506000,1.354505859375,0.37273484468460083,0.26598477363586426,1.8435840606689453
1772796800645497900,1.364497802734375,0.396928608417511,0.3409160077571869,0.821108877658844
1772796800655490800,1.37449072265625,0.48521482944488525,0.3555542230606079,0.20296621322631836
1772796800665482800,1.384482666015625,0.5128025412559509,0.17957787215709686,0.26695266366004944
1772796800675475000,1.394474853515625,0.5359463095664978,-0.23229074478149414,0.7625161409378052
1772796800685467000,1.404466796875,0.4835321307182312,-0.6804077625274658,1.3312581777572632
1772796800695459800,1.4144599609375,0.357536643743515,-0.9453957676887512,1.6728471517562866
1772796800705451800,1.42445166015625,0.23167859017848969,-0.8954465985298157,1.7193816900253296
1772796800715444000,1.43444384765625,0.20640312135219574,-0.5607959628105164,1.5224230289459229
1772796800725435600,1.444435546875,0.23891738057136536,-0.033078327775001526,1.2322430610656738
1772796800735427800,1.454427734375,0.29063498973846436,0.4938744604587555,0.9534435868263245
1772796800745420800,1.4644208984375,0.329739511013031,0.8538752794265747,0.7681440114974976
1772796800755412700,1.474412841796875,0.35842064023017883,1.0128320455551147,0.5988519787788391
1772796800765404700,1.48440478515625,0.3366149663925171,1.0554172992706299,0.37038901448249817
1772796800775396900,1.49439697265625,0.2828900218009949,1.038002848625183,0.10459525138139725
1772796800785388800,1.504388916015625,0.22847527265548706,0.943412721157074,-0.19691719114780426
1772796800795381800,1.5143818359375,0.17154571413993835,0.8274625539779663,-0.5522287487983704
1772796800805374000,1.5243740234375,0.13802076876163483,0.8058773875236511,-0.9031825065612793
1772796800815366000,1.534365966796875,0.15171851217746735,0.8654652237892151,-1.2025296688079834
1772796800825357800,1.54435791015625,0.20372605323791504,0.9055854678153992,-1.4776570796966553
1772796800835349800,1.554349853515625,0.28469762206077576,0.8813202381134033,-1.652057409286499
1772796800845343000,1.564343017578125,0.319498747587204,0.7719524502754211,-1.69472336769104
1772796800855334700,1.574334716796875,0.293008029460907,0.5738564729690552,-1.5862197875976562
1772796800865326800,1.584326904296875,0.24176697432994843,0.297361820936203,-1.4033927917480469
1772796800875318800,1.59431884765625,0.18234676122665405,0.07946828007698059,-1.169174075126648
1772796800885311700,1.604311767578125,0.156630739569664,-0.003357894020155072,-0.9060096144676208
1772796800895303700,1.6143037109375,0.1617671549320221,0.08641622960567474,-0.662338137626648
1772796800905296000,1.6242958984375,0.18353557586669922,0.2537391781806946,-0.41626206040382385
1772796800915287800,1.634287841796875,0.22437210381031036,0.3517831563949585,-0.20299860835075378
1772796800925279700,1.64427978515625,0.30517107248306274,0.33231014013290405,-0.0021246280521154404
1772796800935272700,1.654272705078125,0.4083341062068939,0.17138397693634033,0.2348126322031021
1772796800945265000,1.664264892578125,0.45617008209228516,0.009311184287071228,0.5382452011108398
1772796800955256600,1.674256591796875,0.4249226152896881,-0.11385268718004227,0.8266008496284485
1772796800965248800,1.684248779296875,0.3612493872642517,-0.2697802186012268,0.8181493282318115
1772796800975240700,1.69424072265625,0.3459881544113159,-0.33053040504455566,0.30987125635147095
1772796800985233700,1.704233642578125,0.3543803095817566,-0.07630187273025513,-0.4515451490879059
1772796800995225900,1.714225830078125,0.3111725151538849,0.25134533643722534,-0.9148159027099609
1772796801005217800,1.7242177734375,0.22648318111896515,0.1127251386642456,-0.7108984589576721
1772796801015210000,1.7342099609375,0.12203194946050644,-0.27483516931533813,0.07098886370658875
1772796801025202700,1.74420263671875,-0.018381619825959206,-0.42145416140556335,0.46680358052253723
1772796801035195000,1.75419482421875,-0.17924655973911285,-0.11548374593257904,-0.3735058307647705
1772796801045186800,1.764186767578125,-0.43238988518714905,0.3154500722885132,-2.0763778686523438
1772796801055179000,1.774178955078125,-0.7205246686935425,0.5925570130348206,-3.447383403778076
1772796801065170700,1.784170654296875,-0.7627956867218018,0.6106332540512085,-3.553194046020508
1772796801075164000,1.794163818359375,-0.428462952375412,0.8284902572631836,-2.261230230331421
1772796801085155800,1.80415576171875,0.016720913350582123,0.9326112866401672,-0.9581010341644287
1772796801095147800,1.814147705078125,0.37118932604789734,1.2367053031921387,0.11220132559537888
1772796801105139700,1.8241396484375,0.547440230846405,1.4713349342346191,1.008039951324463
1772796801115132000,1.8341318359375,0.5274320244789124,1.3246017694473267,1.5091389417648315
1772796801125124600,1.84412451171875,0.3449295461177826,0.6015760898590088,1.6115083694458008
1772796801135116800,1.85411669921875,0.14374901354312897,-0.35474687814712524,1.497772216796875
1772796801145108700,1.864108642578125,-0.04569387808442116,-1.212275505065918,1.2431652545928955
1772796801155101000,1.874100830078125,-0.18173405528068542,-1.8580716848373413,0.922135591506958
1772796801165092900,1.8840927734375,-0.2634190618991852,-2.2012271881103516,0.6169977784156799
1772796801175085800,1.8940859375,-0.27670589089393616,-2.112722635269165,0.41656509041786194
1772796801185078000,1.904078125,-0.1780107468366623,-1.79592764377594,0.3827275037765503
1772796801195069700,1.914069580078125,-0.06370814889669418,-1.4423298835754395,0.5329921841621399
1772796801205062000,1.924061767578125,0.022342313081026077,-1.1115562915802002,0.7915878295898438
1772796801215054800,1.934054931640625,0.07117483019828796,-0.8012178540229797,1.010865569114685
1772796801225046800,1.944046875,0.06541840732097626,-0.45236507058143616,1.054062008857727
1772796801235038700,1.954038818359375,0.000816532876342535,-0.028797749429941177,0.9047224521636963
1772796801245031000,1.964031005859375,-0.13663321733474731,0.3072436451911926,0.5376211404800415
1772796801255022800,1.97402294921875,-0.29938578605651855,0.40132036805152893,0.05092329904437065
1772796801265015800,1.984015869140625,-0.4131919741630554,0.34491434693336487,-0.30267950892448425
1772796801275008000,1.994008056640625,-0.45073550939559937,0.22263050079345703,-0.42894041538238525
1772796801285000000,2.004,-0.4110810458660126,0.09374523162841797,-0.3662530779838562
1772796801294991600,2.01399169921875,-0.3347260653972626,0.009277218952775002,-0.1663532555103302
1772796801304983800,2.02398388671875,-0.2528479993343353,-0.04900100454688072,0.048393938690423965
1772796801314977000,2.03397705078125,-0.20015962421894073,-0.0864766389131546,0.16869793832302094
1772796801324968700,2.04396875,-0.19122099876403809,-0.0416196808218956,0.155262291431427
1772796801334961000,2.0539609375,-0.18118780851364136,0.03026658482849598,0.024603188037872314
1772796801344952800,2.063952880859375,-0.19811218976974487,0.05440866947174072,-0.1876281201839447
1772796801354945000,2.073945068359375,-0.22840271890163422,0.006374741438776255,-0.4132048785686493
1772796801364937700,2.083937744140625,-0.26125600934028625,-0.0611310638487339,-0.6175745725631714
1772796801374930000,2.093929931640625,-0.3116506338119507,-0.12127159535884857,-0.6912782788276672
1772796801384921900,2.103921875,-0.37829092144966125,-0.16525717079639435,-0.6236030459403992
1772796801394913800,2.113913818359375,-0.40326038002967834,-0.19233430922031403,-0.47940683364868164
1772796801404906800,2.12390673828125,-0.39637291431427,-0.21818427741527557,-0.3111347556114197
1772796801414899000,2.13389892578125,-0.3614232540130615,-0.24508355557918549,-0.15580257773399353
1772796801424891000,2.143890869140625,-0.2733951210975647,-0.20538833737373352,0.05576346814632416
1772796801434882800,2.1538828125,-0.14315760135650635,-0.11011768877506256,0.32615453004837036
1772796801444874800,2.163874755859375,-0.05127402022480965,-0.016704652458429337,0.5692803263664246
1772796801454867700,2.17386767578125,-0.05087259039282799,0.04795932397246361,0.7592895030975342
1772796801464860000,2.18385986328125,-0.07167160511016846,0.11134682595729828,0.8419881463050842
1772796801474851800,2.193851806640625,-0.018971167504787445,0.1077747493982315,0.6382331252098083
1772796801484844000,2.203843994140625,0.053231656551361084,0.06668510288000107,0.15242408215999603
1772796801494836000,2.2138359375,0.006779007147997618,0.131392240524292,-0.3973398506641388
1772796801504829000,2.223828857421875,-0.06498945504426956,0.36123421788215637,-0.7072388529777527
1772796801514820900,2.23382080078125,-0.10678908973932266,0.7070368528366089,-0.6607425212860107
1772796801524813000,2.24381298828125,-0.01070996280759573,0.8392127156257629,-0.2574060261249542
1772796801534804700,2.2538046875,0.22356607019901276,0.5536117553710938,0.2675049304962158
1772796801544798000,2.2637978515625,0.391003280878067,0.6354466676712036,0.1798722892999649
1772796801554790000,2.273789794921875,0.31324532628059387,1.0370397567749023,-1.1648374795913696
1772796801564781800,2.28378173828125,0.08871021866798401,0.8893206119537354,-3.0679006576538086
1772796801574773800,2.293773681640625,-0.1515839546918869,0.22476164996623993,-4.134817600250244
1772796801584766000,2.303765869140625,-0.27601802349090576,-0.3129846155643463,-3.596576690673828
1772796801594758700,2.313758544921875,-0.19787389039993286,-0.6975040435791016,-1.8247226476669312
1772796801604750800,2.323750732421875,0.010221254080533981,-0.8761720657348633,0.07892492413520813
1772796801614742800,2.33374267578125,0.23788434267044067,-0.7296074628829956,1.56564199924469
1772796801624735000,2.34373486328125,0.3218548595905304,-0.4095359444618225,2.3384921550750732
1772796801634726700,2.3537265625,0.3349549174308777,-0.25628751516342163,2.268543243408203
1772796801644719900,2.363719970703125,0.27080148458480835,-0.15948347747325897,1.7334184646606445
1772796801654712000,2.373712158203125,0.14466147124767303,-0.0358768031001091,0.986162006855011
1772796801664703700,2.383703857421875,-0.0020467431750148535,0.033124372363090515,0.4167696535587311
1772796801674696000,2.393696044921875,-0.1290130913257599,0.07677429914474487,0.2094241976737976
1772796801684689000,2.40368896484375,-0.18302199244499207,0.06443134695291519,0.32527226209640503
1772796801694680800,2.413680908203125,-0.11896517127752304,-0.022449450567364693,0.6282979846000671
1772796801704672800,2.4236728515625,-0.04309597983956337,-0.12936390936374664,1.012122631072998
1772796801714665000,2.4336650390625,-0.028392020612955093,-0.21870115399360657,1.3210759162902832
1772796801724657000,2.443656982421875,-0.04557447135448456,-0.2972300350666046,1.4296085834503174
1772796801734649900,2.45364990234375,-0.05145629122853279,-0.41649237275123596,1.389186143875122
1772796801744641800,2.463641845703125,-0.052677884697914124,-0.4170721471309662,1.2593642473220825
1772796801754634000,2.473634033203125,-0.06225254386663437,-0.19675827026367188,1.0322526693344116
1772796801764625700,2.483625732421875,-0.05263746902346611,0.16401642560958862,0.7151495218276978
1772796801774617900,2.493617919921875,-0.0489678755402565,0.532852053642273,0.4087340235710144
1772796801784610800,2.50361083984375,-0.06257476657629013,0.7308791279792786,0.19883859157562256
1772796801794602800,2.513602783203125,-0.11970823258161545,0.6558462977409363,0.05099720135331154
1772796801804594700,2.5235947265625,-0.17428946495056152,0.42340242862701416,-0.06027206405997276
1772796801814587000,2.5335869140625,-0.20658576488494873,0.20348651707172394,-0.10189907252788544
1772796801824578800,2.543578857421875,-0.23270444571971893,0.07039371132850647,-0.15305866301059723
1772796801834571800,2.55357177734375,-0.24717991054058075,0.02455092780292034,-0.28161537647247314
1772796801844564000,2.56356396484375,-0.24988621473312378,0.07591318339109421,-0.5212404727935791
1772796801854556000,2.573555908203125,-0.20658043026924133,0.2492627203464508,-0.8181331753730774
1772796801864547800,2.5835478515625,-0.1471509337425232,0.42536768317222595,-1.0389635562896729
1772796801874539800,2.593539794921875,-0.08567177504301071,0.46930891275405884,-1.1252671480178833
1772796801884533000,2.603532958984375,-0.05004586651921272,0.40092504024505615,-1.115146517753601
1772796801894525000,2.61352490234375,-0.05058113485574722,0.309376984834671,-1.0820131301879883
1772796801904516900,2.623516845703125,-0.06860754638910294,0.2304486483335495,-1.013672947883606
1772796801914508800,2.6335087890625,-0.11406070739030838,0.13039743900299072,-0.900302529335022
1772796801924502000,2.643501953125,-0.17061372101306915,0.032581403851509094,-0.727251410484314
1772796801934493700,2.65349365234375,-0.20728780329227448,-0.03357287868857384,-0.5023815631866455
1772796801944486000,2.66348583984375,-0.1880168914794922,-0.026560243219137192,-0.2386425882577896
1772796801954477800,2.673477783203125,-0.13957053422927856,0.022277869284152985,0.0655447393655777
1772796801964470000,2.683469970703125,-0.08515550196170807,0.03874712437391281,0.4203265309333801
1772796801974462700,2.693462646484375,-0.062287505716085434,-0.055547840893268585,0.6909239888191223
1772796801984455000,2.703454833984375,-0.0753852054476738,-0.30790790915489197,0.7445377111434937
1772796801994446800,2.71344677734375,-0.05894540250301361,-0.5262101888656616,0.5679156184196472
1772796802004438800,2.723438720703125,-0.08041101694107056,-0.5738325715065002,0.13627709448337555
1772796802014430700,2.7334306640625,-0.10456808656454086,-0.39303863048553467,-0.4484107196331024
1772796802024424000,2.743423828125,-0.08409690111875534,-0.19647818803787231,-1.007130742073059
1772796802034415900,2.753415771484375,-0.0778425931930542,-0.09308725595474243,-1.3067227602005005
1772796802044407800,2.76340771484375,-0.04212081432342529,-0.250881165266037,-0.8243165016174316
1772796802054400000,2.77339990234375,-0.06919393688440323,-0.40470609068870544,0.13605335354804993
1772796802064392700,2.783392822265625,-0.021507104858756065,-0.02427484095096588,0.38395822048187256
1772796802074385000,2.793385009765625,-0.04583975672721863,0.5495674014091492,-0.48881760239601135
1772796802084376800,2.803376953125,-0.2467411756515503,0.8277319073677063,-1.779388189315796
1772796802094369000,2.813369140625,-0.4251148998737335,0.5842573642730713,-2.7403135299682617
1772796802104360700,2.823360595703125,-0.4185557961463928,0.5161523818969727,-2.9975781440734863
1772796802114354000,2.83335400390625,-0.14825670421123505,0.8472146987915039,-2.4288182258605957
1772796802124345900,2.843345947265625,0.18770533800125122,1.0955421924591064,-1.2968060970306396
1772796802134337800,2.853337890625,0.36908549070358276,1.194510579109192,-0.28769055008888245
1772796802144329700,2.863329833984375,0.4347449243068695,1.2395334243774414,0.30193597078323364
1772796802154322000,2.873322021484375,0.455462783575058,1.1606091260910034,0.5330683588981628
1772796802164314600,2.883314697265625,0.4817045032978058,1.0087621212005615,0.6956887245178223
1772796802174306800,2.893306884765625,0.5208711624145508,0.7425904870033264,0.7477148771286011
1772796802184298800,2.903298828125,0.4988614320755005,0.3585629463195801,0.6575908660888672
1772796802194291000,2.913291015625,0.39426103234291077,-0.06167846918106079,0.4538107216358185
1772796802204283000,2.923282958984375,0.2730855941772461,-0.5244258642196655,0.4020971953868866
1772796802214275800,2.93327587890625,0.10787995904684067,-0.9613125324249268,0.6224092245101929
1772796802224267800,2.943267822265625,0.006450003944337368,-1.2034066915512085,0.9986978769302368
1772796802234260000,2.953260009765625,0.003385538700968027,-1.1537408828735352,1.3958255052566528
1772796802244251600,2.963251708984375,0.08125876635313034,-0.8972047567367554,1.7633670568466187
1772796802254243800,2.973243896484375,0.2057279497385025,-0.6017809510231018,2.074359178543091
1772796802264236800,2.98323681640625,0.30649930238723755,-0.34058400988578796,2.197892904281616
1772796802274228700,2.993228759765625,0.3515617251396179,-0.1927039921283722,2.1017353534698486
1772796802284220700,3.003220703125,0.32843536138534546,-0.0822664350271225,1.876373052597046
1772796802294212900,3.013212890625,0.2677929699420929,-0.007304277736693621,1.6053818464279175
1772796802304205800,3.023205810546875,0.19466125965118408,0.055333271622657776,1.2450952529907227
1772796802314197800,3.03319775390625,0.053773730993270874,0.06842949241399765,0.8635630011558533
1772796802324190000,3.04318994140625,-0.13513493537902832,0.0136000607162714,0.6074697375297546
1772796802334182000,3.053181884765625,-0.2929224371910095,-0.08144522458314896,0.5193688869476318
1772796802344173800,3.063173828125,-0.315121591091156,-0.1138639897108078,0.5671311616897583
1772796802354166800,3.073166748046875,-0.22642478346824646,-0.04016488790512085,0.5699975490570068
1772796802364159000,3.083158935546875,-0.11133681237697601,0.10323488712310791,0.4613099694252014
1772796802374150700,3.093150634765625,-0.01617182418704033,0.25179585814476013,0.2669038772583008
1772796802384142800,3.103142822265625,0.05390100181102753,0.4484197199344635,-0.022180400788784027
1772796802394134800,3.113134765625,0.03322024643421173,0.555853545665741,-0.35461387038230896
1772796802404127700,3.123127685546875,-0.05939757078886032,0.48427072167396545,-0.6879414916038513
1772796802414119700,3.13311962890625,-0.16350191831588745,0.27156463265419006,-1.0161620378494263
1772796802424111900,3.14311181640625,-0.32143935561180115,0.08819374442100525,-1.3259683847427368
1772796802434103800,3.153103759765625,-0.4186597764492035,-0.015816375613212585,-1.4789717197418213
1772796802444096800,3.1630966796875,-0.3844884932041168,0.03522283956408501,-1.3031597137451172
1772796802454089000,3.1730888671875,-0.3099757432937622,0.12697067856788635,-0.995327889919281
1772796802464081000,3.183080810546875,-0.2465062290430069,0.07077638059854507,-0.752046525478363
1772796802474072600,3.193072509765625,-0.18633031845092773,-0.18798190355300903,-0.5533307194709778
1772796802484064800,3.203064697265625,-0.15213613212108612,-0.5149952173233032,-0.38371774554252625
1772796802494058000,3.21305810546875,-0.12415775656700134,-0.7331449389457703,-0.23564715683460236
1772796802504049700,3.223049560546875,-0.10217868536710739,-0.8567818999290466,-0.09588047862052917
1772796802514041900,3.233041748046875,-0.13006462156772614,-0.9598798155784607,0.020841652527451515
1772796802524033800,3.24303369140625,-0.22175006568431854,-1.0383175611495972,0.10997366160154343
1772796802534026000,3.25302587890625,-0.3300040662288666,-1.1089279651641846,0.1887349784374237
1772796802544018700,3.263018798828125,-0.3490488529205322,-1.1997255086898804,0.310912549495697
1772796802554011000,3.273010986328125,-0.34362247586250305,-1.213738203048706,0.3952990472316742
1772796802564002800,3.2830029296875,-0.27134162187576294,-0.9913246035575867,0.33436620235443115
1772796802573994800,3.292994873046875,-0.16431130468845367,-0.6012058258056641,0.11764245480298996
1772796802583986700,3.302986572265625,-0.06947267055511475,-0.40448206663131714,-0.0009856565156951547
1772796802593980000,3.31297998046875,0.005291863344609737,-0.32908231019973755,0.10575345903635025
1772796802603971800,3.322971923828125,-0.0237262062728405,-0.28452789783477783,0.2778485119342804
1772796802613963800,3.3329638671875,-0.039802491664886475,-0.05989275500178337,0.09641699492931366
1772796802623955700,3.342955810546875,0.013877782970666885,0.4163861572742462,-0.5999953746795654
1772796802633949000,3.352948974609375,0.028049305081367493,0.8290233612060547,-1.6200059652328491
1772796802643940900,3.36294091796875,-0.09922156482934952,1.0232614278793335,-2.4574389457702637
1772796802653932800,3.372932861328125,-0.3155859112739563,0.8526358604431152,-2.8050851821899414
1772796802663924700,3.3829248046875,-0.5028820633888245,0.18056266009807587,-2.4469587802886963
1772796802673917000,3.3929169921875,-0.567391574382782,-0.29003340005874634,-1.068298101425171
1772796802683910000,3.402909912109375,-0.5064831972122192,-0.3483065366744995,0.071778804063797
1772796802693901800,3.41290185546875,-0.3180958330631256,-0.25547295808792114,0.4900577962398529
1772796802703894000,3.42289404296875,-0.1700533628463745,-0.09448140859603882,0.7694635987281799
1772796802713885700,3.4328857421875,-0.10056935250759125,-0.06325158476829529,1.0078178644180298
1772796802723878000,3.4428779296875,-0.08715314418077469,-0.1540941298007965,1.0910704135894775
1772796802733870800,3.452870849609375,-0.08591071516275406,-0.16841338574886322,1.075463891029358
1772796802743862800,3.46286279296875,-0.044306546449661255,-0.0014851163141429424,1.0287262201309204
1772796802753854700,3.472854736328125,0.041364457458257675,0.08231530338525772,0.899551272392273
1772796802763847000,3.482846923828125,0.0735066831111908,0.13460460305213928,0.7009361982345581
1772796802773838800,3.4928388671875,0.003125750692561269,0.029782036319375038,0.5150177478790283
1772796802783831800,3.502831787109375,-0.10607130825519562,-0.2721330523490906,0.38412177562713623
1772796802793823700,3.51282373046875,-0.21511906385421753,-0.6665083765983582,0.38181450963020325
1772796802803816000,3.52281591796875,-0.2780892252922058,-0.9774872660636902,0.509637176990509
1772796802813807600,3.5328076171875,-0.24696692824363708,-1.012248158454895,0.6778702735900879
1772796802823800800,3.54280078125,-0.19413727521896362,-0.7812051177024841,0.8663656115531921
1772796802833793000,3.55279296875,-0.176102414727211,-0.5018270015716553,1.0167468786239624
1772796802843784700,3.56278466796875,-0.20425549149513245,-0.2691974937915802,0.9874950647354126
1772796802853776600,3.572776611328125,-0.24599121510982513,-0.08723551034927368,0.7827844619750977
1772796802863768800,3.582768798828125,-0.25202086567878723,0.11260782927274704,0.5212149024009705
1772796802873761800,3.59276171875,-0.26926517486572266,0.2873280942440033,0.3163833022117615
1772796802883753700,3.602753662109375,-0.2908271849155426,0.2965729832649231,0.1182238832116127
1772796802893746000,3.612745849609375,-0.2763928472995758,0.14092694222927094,-0.10575994849205017
1772796802903737900,3.62273779296875,-0.21290096640586853,-0.00773497112095356,-0.28188014030456543
1772796802913729800,3.632729736328125,-0.10069654136896133,-0.0190777238458395,-0.37163424491882324
1772796802923722800,3.64272265625,0.02113695815205574,0.0900690034031868,-0.3931176960468292
1772796802933715000,3.65271484375,0.09242168068885803,0.21219906210899353,-0.3914065659046173
1772796802943706600,3.66270654296875,0.11571075767278671,0.36624857783317566,-0.463123083114624
1772796802953698800,3.67269873046875,0.10501047223806381,0.4614788293838501,-0.5527478456497192
1772796802963691800,3.68269189453125,0.0335962139070034,0.4136625826358795,-0.6375431418418884
1772796802973683700,3.69268359375,-0.03864370658993721,0.20965728163719177,-0.7184481620788574
1772796802983675600,3.702675537109375,-0.05710793659090996,-0.032329779118299484,-0.7107660174369812
1772796802993667800,3.712667724609375,-0.05943382531404495,-0.20795795321464539,-0.587942898273468
1772796803003659800,3.72265966796875,-0.03812400996685028,-0.2868940532207489,-0.45668691396713257
1772796803013652700,3.73265283203125,0.016331972554326057,-0.23244071006774902,-0.366660475730896
1772796803023645000,3.74264501953125,0.06561270356178284,-0.07024620473384857,-0.3136068284511566
1772796803033636900,3.752636962890625,0.06061270087957382,0.07380563765764236,-0.28310760855674744
1772796803043628800,3.76262890625,0.05946487933397293,0.06601536273956299,-0.18313893675804138
1772796803053620700,3.772620849609375,0.0762370377779007,-0.009484004229307175,0.013210941106081009
1772796803063614000,3.782614013671875,0.07958676666021347,-0.0702245831489563,0.23222529888153076
1772796803073606000,3.79260595703125,0.06625794619321823,-0.06669396907091141,0.337979793548584
1772796803083597800,3.802597900390625,0.060752663761377335,0.05291179195046425,0.20449018478393555
1772796803093589800,3.81258984375,0.10245460271835327,0.24463140964508057,-0.17397479712963104
1772796803103582000,3.82258203125,0.14843034744262695,0.27840322256088257,-0.5894843935966492
1772796803113574700,3.83257470703125,0.14037366211414337,-0.06893648952245712,-0.6403086185455322
1772796803123566800,3.84256689453125,0.11048980802297592,-0.5161108374595642,-0.19782918691635132
1772796803133558800,3.852558837890625,0.2035101056098938,-0.6251043081283569,0.6257338523864746
1772796803143551000,3.862551025390625,0.2681916356086731,-0.4802522659301758,1.171142339706421
1772796803153543200,3.872543212890625,0.2927657961845398,-0.1600525975227356,0.9149944186210632
1772796803163536400,3.882536376953125,0.3380613625049591,0.25412699580192566,0.02805229276418686
1772796803173528300,3.8925283203125,0.3044191002845764,0.5374500751495361,-1.1295329332351685
1772796803183520300,3.902520263671875,0.2213362157344818,0.8296318650245667,-2.0858914852142334
1772796803193512200,3.91251220703125,0.1688670665025711,1.0663318634033203,-2.5364091396331787
1772796803203505200,3.922505126953125,0.28348445892333984,1.380411148071289,-2.3695144653320312
1772796803213497300,3.932497314453125,0.46069788932800293,1.3977786302566528,-1.5613433122634888
1772796803223489300,3.9424892578125,0.46446335315704346,0.9822823405265808,-0.31777405738830566
1772796803233481500,3.9524814453125,0.4195396304130554,0.3611834645271301,1.115431308746338
1772796803243473400,3.962473388671875,0.3241124451160431,-0.10189656168222427,2.1133153438568115
1772796803253466400,3.97246630859375,0.15422888100147247,-0.41296160221099854,2.16361665725708
1772796803263458300,3.982458251953125,-0.0043192096054553986,-0.6283026337623596,1.7292062044143677
1772796803273450500,3.992450439453125,-0.10033949464559555,-0.82981276512146,1.1756455898284912
1772796803283442200,4.002442138671875,-0.0535658597946167,-0.834660530090332,0.7091985940933228
1772796803293434400,4.012434326171875,0.12530763447284698,-0.556627631187439,0.4725550413131714
1772796803303427300,4.02242724609375,0.29658243060112,-0.19965162873268127,0.5696991682052612
1772796803313419300,4.032419189453125,0.3761565387248993,-0.028568051755428314,0.9307879209518433
1772796803323411200,4.0424111328125,0.3547889292240143,-0.030190449208021164,1.343181848526001
1772796803333403400,4.0524033203125,0.250306099653244,-0.0825558453798294,1.6586271524429321
1772796803343396400,4.062396240234375,0.17275962233543396,-0.136272594332695,1.7786943912506104
1772796803353388300,4.07238818359375,0.10435659438371658,-0.16655069589614868,1.6401937007904053
1772796803363380200,4.082380126953125,0.053754933178424835,-0.11671656370162964,1.3096259832382202
1772796803373372400,4.092372314453125,0.031717438250780106,0.014435671269893646,0.8485208749771118
1772796803383364000,4.102364013671875,0.020890356972813606,0.20014241337776184,0.42436933517456055
1772796803393357300,4.112357421875,-0.03127421438694,0.36534446477890015,0.17851684987545013
1772796803403349500,4.122349609375,-0.08741524815559387,0.3642538785934448,0.06655676662921906
1772796803413341200,4.132341064453125,-0.15280726552009583,0.25479304790496826,-0.01680690236389637
1772796803423333400,4.14233349609375,-0.20951901376247406,0.12784096598625183,-0.04989268630743027
1772796803433325300,4.1523251953125,-0.18831545114517212,0.07962114363908768,0.034329142421483994
1772796803443318300,4.162318359375,-0.11682502180337906,0.15259629487991333,0.008157458156347275
1772796803453310200,4.172310302734375,-0.021442778408527374,0.21110384166240692,-0.14123083651065826
1772796803463302400,4.182302490234375,0.07373939454555511,0.2110455185174942,-0.30991414189338684
1772796803473294300,4.19229443359375,0.15437497198581696,0.21587322652339935,-0.4576178193092346
1772796803483286300,4.202286376953125,0.1959783434867859,0.1499844789505005,-0.6163853406906128
1772796803493279200,4.212279296875,0.2146458476781845,0.011095613241195679,-0.7658945918083191
1772796803503271400,4.222271484375,0.22304758429527283,-0.18001121282577515,-0.9141508936882019
1772796803513263000,4.23226318359375,0.19358159601688385,-0.37128177285194397,-1.0304018259048462
1772796803523255300,4.24225537109375,0.09843217581510544,-0.5666608810424805,-1.0333936214447021
1772796803533248500,4.25224853515625,-0.0030532206874340773,-0.6104879379272461,-0.8794021606445312
1772796803543240200,4.262240234375,-0.04567312076687813,-0.4819389879703522,-0.6245675086975098
1772796803553232100,4.272232177734375,-0.012276486493647099,-0.22193951904773712,-0.3345159590244293
1772796803563224300,4.282224365234375,0.07296011596918106,0.03724251314997673,-0.12124549597501755
1772796803573216300,4.29221630859375,0.16713541746139526,0.1783909946680069,-0.029530618339776993
1772796803583209200,4.302209228515625,0.21482624113559723,0.1860044300556183,0.01862705685198307
1772796803593201400,4.312201416015625,0.23386900126934052,0.05925671011209488,0.04552813619375229
1772796803603193300,4.322193359375,0.24651502072811127,-0.0894044041633606,0.014665559865534306
1772796803613185300,4.332185302734375,0.17472411692142487,-0.06518565863370895,-0.11371038854122162
1772796803623177200,4.34217724609375,0.10067147016525269,-0.08832159638404846,-0.2942862808704376
1772796803633170400,4.35217041015625,0.06082566827535629,-0.25832024216651917,-0.495662659406662
1772796803643162400,4.362162353515625,0.04401393234729767,-0.43976831436157227,-0.6544608473777771
1772796803653154300,4.372154296875,0.03394627198576927,-0.2697751522064209,-0.752963662147522
1772796803663146200,4.382146240234375,0.021465901285409927,0.28188830614089966,-0.8141627907752991
1772796803673138400,4.392138427734375,-0.034381017088890076,0.5222997665405273,-0.8090987801551819
1772796803683131100,4.402131103515625,-0.06912194937467575,0.3329594135284424,-0.8287252187728882
1772796803693123300,4.412123291015625,-0.11672885715961456,0.15253466367721558,-1.2399860620498657
1772796803703115300,4.422115234375,-0.2069399654865265,0.15062277019023895,-2.0492758750915527
1772796803713107500,4.432107421875,-0.24760571122169495,0.44752952456474304,-2.663889169692993
1772796803723100400,4.442100341796875,-0.32207462191581726,0.7729741930961609,-2.6090731620788574
1772796803733092400,4.45209228515625,-0.3172846734523773,0.8312405943870544,-1.7501450777053833
1772796803743084300,4.462084228515625,-0.0903945341706276,0.8339415788650513,-0.2793195843696594
1772796803753076200,4.472076171875,0.026607099920511246,0.8787755370140076,0.6458825469017029
1772796803763068200,4.482068115234375,0.050965435802936554,1.1127665042877197,1.1142076253890991
1772796803773061400,4.492061279296875,0.03923988342285156,1.1969845294952393,1.4382829666137695
1772796803783053300,4.50205322265625,0.05385584384202957,1.0054055452346802,1.672275424003601
1772796803793045200,4.512045166015625,0.06335483491420746,0.6746177077293396,1.641784906387329
1772796803803037400,4.522037353515625,0.03689367324113846,0.36778560280799866,1.3620216846466064
1772796803813029400,4.532029296875,0.017606861889362335,0.13689009845256805,0.9794012308120728
1772796803823022300,4.542022216796875,-0.06412369012832642,-0.1833835244178772,0.7093172669410706
1772796803833014300,4.55201416015625,-0.18962331116199493,-0.6992070078849792,0.7620390057563782
1772796803843006500,4.56200634765625,-0.3532511293888092,-1.206909418106079,1.0275237560272217
1772796803852998100,4.571998046875,-0.5139831900596619,-1.456687331199646,1.3221555948257446
1772796803862991400,4.581991455078125,-0.5876225233078003,-1.3527156114578247,1.5204784870147705
1772796803872983300,4.5919833984375,-0.5527779459953308,-1.11143958568573,1.5973105430603027
1772796803882975200,4.601975341796875,-0.4657798707485199,-0.7770576477050781,1.5247995853424072
1772796803892967200,4.61196728515625,-0.3717328906059265,-0.39097967743873596,1.2903521060943604
1772796803902959400,4.62195947265625,-0.29479870200157166,-0.04699302092194557,0.9548603892326355
1772796803912952300,4.631952392578125,-0.2743387520313263,0.149560809135437,0.6131794452667236
1772796803922944300,4.6419443359375,-0.3067323863506317,0.16826632618904114,0.2912179231643677
1772796803932936200,4.651936279296875,-0.3250425457954407,0.08028080314397812,-0.024626165628433228
1772796803942928400,4.661928466796875,-0.2838919162750244,0.01823447458446026,-0.3145890235900879
1772796803952920300,4.67192041015625,-0.20139901340007782,-0.010593261569738388,-0.5360420346260071
1772796803962913300,4.681913330078125,-0.1385153979063034,0.028475046157836914,-0.6450499892234802
1772796803972905500,4.691905517578125,-0.1010165810585022,0.08399384468793869,-0.658309280872345
1772796803982897400,4.7018974609375,-0.14057517051696777,0.13015814125537872,-0.6484749913215637
1772796803992889300,4.711889404296875,-0.23193684220314026,0.16681188344955444,-0.6721760630607605
1772796804002882300,4.72188232421875,-0.31423038244247437,0.1865006387233734,-0.7811145186424255
1772796804012874200,4.731874267578125,-0.36934009194374084,0.19577625393867493,-0.9684093594551086
1772796804022866200,4.7418662109375,-0.37733757495880127,0.1545390486717224,-1.1176354885101318
1772796804032858400,4.7518583984375,-0.3604726493358612,0.045919425785541534,-1.158074975013733
1772796804042850300,4.761850341796875,-0.3164742887020111,-0.038206636905670166,-1.1092594861984253
1772796804052843300,4.77184326171875,-0.25402018427848816,-0.038872119039297104,-0.9940349459648132
1772796804062835200,4.781835205078125,-0.20672295987606049,0.04282141476869583,-0.8589208126068115
1772796804072827400,4.791827392578125,-0.19766823947429657,0.09822104126214981,-0.7149887681007385
1772796804082819300,4.8018193359375,-0.1589149832725525,0.06521301716566086,-0.47887179255485535
1772796804092811300,4.811811279296875,-0.13071151077747345,-0.04740136116743088,-0.21772153675556183
1772796804102804500,4.821804443359375,-0.15185220539569855,-0.1961871087551117,-0.0437910258769989
1772796804112796400,4.83179638671875,-0.1580614149570465,-0.2938286066055298,0.009800096042454243
1772796804122788000,4.8417880859375,-0.15478919446468353,-0.3230101764202118,0.01502122264355421
1772796804132780300,4.8517802734375,-0.1461046189069748,-0.34162434935569763,0.03159114345908165
1772796804142772200,4.861772216796875,-0.12337373197078705,-0.4681609869003296,0.04266456887125969
1772796804152765400,4.871765380859375,-0.09369182586669922,-0.6843336224555969,-0.1040334403514862
1772796804162757600,4.881757568359375,-0.031338706612586975,-0.6624674797058105,-0.3931270241737366
1772796804172749600,4.89174951171875,-0.031831253319978714,-0.2123769223690033,-0.5727184414863586
1772796804182741800,4.90174169921875,-0.051815081387758255,0.20045219361782074,-0.4261932075023651
1772796804192733400,4.9117333984375,0.03255544230341911,0.21371892094612122,-0.015529296360909939
1772796804202726700,4.9217265625,0.054055407643318176,0.04086325317621231,0.2536020278930664
1772796804212718600,4.931718505859375,0.005277344491332769,-0.3380604386329651,0.09774533659219742
1772796804222710500,4.94171044921875,-0.04914674907922745,-0.36352798342704773,-0.41227927803993225
1772796804232702500,4.951702392578125,-0.1582581102848053,-0.022534415125846863,-1.2472010850906372
1772796804242695700,4.96169580078125,-0.2510775327682495,0.5323700904846191,-2.0136361122131348
1772796804252687400,4.971687255859375,-0.2805897891521454,1.036435604095459,-2.187774181365967
1772796804262679600,4.981679443359375,-0.15727905929088593,1.2573878765106201,-1.5998278856277466
1772796804272671500,4.99167138671875,0.1333315521478653,0.9102101922035217,-0.28570932149887085
1772796804282663700,5.00166357421875,0.3833584189414978,0.33711928129196167,1.3562467098236084
1772796804292656600,5.01165673828125,0.3778669834136963,-0.10954274237155914,1.9925758838653564
1772796804302648600,5.021648681640625,0.2949228584766388,-0.36898282170295715,1.8401610851287842
1772796804312640800,5.031640869140625,0.23124578595161438,-0.4791930913925171,1.622826099395752
1772796804322632400,5.041632568359375,0.2118678241968155,-0.5498656630516052,1.4073050022125244
1772796804332624600,5.051624755859375,0.2434084415435791,-0.6314421892166138,1.2377110719680786
1772796804342617600,5.06161767578125,0.3437027931213379,-0.7105785608291626,1.2452571392059326
1772796804352609500,5.071609619140625,0.43731454014778137,-0.7535349130630493,1.4926809072494507
1772796804362601500,5.0816015625,0.518904983997345,-0.652999758720398,1.8708829879760742
1772796804372593700,5.09159375,0.6030883193016052,-0.4350270628929138,2.1789262294769287
1772796804382586400,5.10158642578125,0.6580144166946411,-0.1772269308567047,2.323582172393799
1772796804392578600,5.11157861328125,0.703283965587616,0.07535938173532486,2.316602945327759
1772796804402570500,5.121570556640625,0.7049481272697449,0.29637378454208374,2.1339783668518066
1772796804412562700,5.131562744140625,0.6774628758430481,0.4427167475223541,1.7779526710510254
1772796804422554400,5.141554443359375,0.6424537301063538,0.40913906693458557,1.2625175714492798
1772796804432547600,5.151547607421875,0.5939077734947205,0.2389153242111206,0.6703557968139648
1772796804442539500,5.16153955078125,0.514064610004425,0.10385789722204208,0.1108001247048378
1772796804452531500,5.171531494140625,0.43698152899742126,-0.008770021609961987,-0.3280541002750397
1772796804462523400,5.1815234375,0.3551553785800934,-0.16210684180259705,-0.5933811068534851
1772796804472515600,5.191515625,0.2977018356323242,-0.3332391083240509,-0.696342945098877
1772796804482508500,5.201508544921875,0.2451648712158203,-0.45236897468566895,-0.7483957409858704
1772796804492500500,5.21150048828125,0.22412912547588348,-0.46206289529800415,-0.7948398590087891
1772796804502492700,5.22149267578125,0.24277231097221375,-0.3152071535587311,-0.8413847088813782
1772796804512484600,5.231484619140625,0.28963300585746765,0.002173852641135454,-0.9329601526260376
1772796804522476800,5.241476806640625,0.34155717492103577,0.26123711466789246,-1.0741209983825684
1772796804532469500,5.251469482421875,0.3474256694316864,0.36358579993247986,-1.199237585067749
1772796804542461700,5.261461669921875,0.2825297713279724,0.3054577708244324,-1.2575498819351196
1772796804552453600,5.27145361328125,0.2146141231060028,0.116643987596035,-1.2036197185516357
1772796804562445600,5.281445556640625,0.16896061599254608,-0.09473563730716705,-1.0286779403686523
1772796804572437500,5.2914375,0.15706667304039001,-0.19127815961837769,-0.7610001564025879
1772796804582430700,5.3014306640625,0.19733314216136932,-0.0955984964966774,-0.4657900631427765
1772796804592422400,5.31142236328125,0.26530584692955017,0.14343330264091492,-0.25309738516807556
1772796804602414600,5.32141455078125,0.33513179421424866,0.26637014746665955,-0.12678498029708862
1772796804612406500,5.331406494140625,0.38147878646850586,0.26627108454704285,-0.04316571727395058
1772796804622399500,5.3413994140625,0.3942824900150299,0.24850165843963623,0.06031433492898941
1772796804632391400,5.351391357421875,0.4006457030773163,0.19189323484897614,0.18590037524700165
1772796804642383600,5.361383544921875,0.377875953912735,0.08128150552511215,0.305255264043808
1772796804652375600,5.37137548828125,0.3454686403274536,-0.07447763532400131,0.3628436326980591
1772796804662367500,5.381367431640625,0.2535879909992218,-0.23097190260887146,0.3080032765865326
1772796804672360700,5.391360595703125,0.08963436633348465,-0.3491545021533966,0.08797044306993484
1772796804682352600,5.4013525390625,0.05492591857910156,-0.25927335023880005,-0.27492251992225647
1772796804692344600,5.411344482421875,0.15747179090976715,0.09228844940662384,-0.6213383674621582
1772796804702336500,5.42133642578125,0.30920061469078064,0.3136051297187805,-0.8489057421684265
1772796804712328700,5.43132861328125,0.3915095925331116,0.09698839485645294,-0.9787508249282837
1772796804722321400,5.4413212890625,0.32896044850349426,-0.4410274028778076,-0.9278860688209534
1772796804732313600,5.451313720703125,0.15957249701023102,-0.7652891874313354,-0.9498205780982971
1772796804742305500,5.461305419921875,0.1781056970357895,-0.698980450630188,-1.3313066959381104
1772796804752297700,5.471297607421875,0.3949330449104309,-0.45717746019363403,-1.923507571220398
1772796804762290400,5.48129052734375,0.5809585452079773,0.006254366133362055,-2.4514999389648438
1772796804772282600,5.49128271484375,0.6993482708930969,0.5646449327468872,-2.5526514053344727
1772796804782274600,5.501274658203125,0.7074618935585022,0.8684333562850952,-1.984711766242981
1772796804792266500,5.5112666015625,0.7411637306213379,0.7911943197250366,-0.6263704895973206
1772796804802258400,5.521258544921875,0.7682291865348816,0.6463330388069153,0.8340875506401062
1772796804812251600,5.531251708984375,0.6737205386161804,0.5079883337020874,1.6416455507278442
1772796804822243300,5.541243408203125,0.5205930471420288,0.41259765625,1.9088096618652344
1772796804832235500,5.551235595703125,0.3809831440448761,0.3146106004714966,1.793601393699646
1772796804842227500,5.5612275390625,0.28418654203414917,0.2511986196041107,1.4858838319778442
1772796804852219600,5.5712197265625,0.23001700639724731,0.2176840901374817,1.1905035972595215
1772796804862212600,5.581212646484375,0.2323531210422516,0.22382666170597076,0.9511412978172302
1772796804872204500,5.59120458984375,0.29308009147644043,0.23867274820804596,0.8011752367019653
1772796804882196700,5.60119677734375,0.31911513209342957,0.28494301438331604,0.7543123960494995
1772796804892188700,5.611188720703125,0.2805880010128021,0.17544850707054138,0.8445796966552734
1772796804902180600,5.6211806640625,0.2405051589012146,-0.052748437970876694,1.0361987352371216
1772796804912173600,5.631173583984375,0.16863179206848145,-0.21785591542720795,1.2238153219223022
1772796804922165800,5.641165771484375,0.11765249073505402,-0.34057092666625977,1.3118079900741577
1772796804932157400,5.651157470703125,0.14388006925582886,-0.3915455639362335,1.2855110168457031
1772796804942149600,5.661149658203125,0.20876425504684448,-0.35751330852508545,1.1431330442428589
1772796804952142600,5.671142578125,0.23029598593711853,-0.2451023906469345,0.9184621572494507
1772796804962134500,5.681134521484375,0.23450592160224915,-0.07417832314968109,0.6376528739929199
1772796804972126500,5.69112646484375,0.24163681268692017,0.12502114474773407,0.3556849956512451
1772796804982118700,5.70111865234375,0.21219636499881744,0.2847972512245178,0.10302235931158066
1772796804992110600,5.711110595703125,0.13763563334941864,0.31744328141212463,-0.09098521620035172
1772796805002103600,5.721103515625,0.07728148251771927,0.2961571514606476,-0.25727590918540955
1772796805012095500,5.731095458984375,0.02262243442237377,0.25504234433174133,-0.41972872614860535
1772796805022087700,5.741087646484375,-0.014913754537701607,0.18751630187034607,-0.573325514793396
1772796805032079400,5.751079345703125,-0.011294253170490265,0.13693995773792267,-0.6628537774085999
1772796805042071600,5.761071533203125,0.03135840222239494,0.10853307694196701,-0.6614276766777039
1772796805052064800,5.771064697265625,0.11002513766288757,0.12412551790475845,-0.5859379172325134
1772796805062056400,5.781056396484375,0.19754353165626526,0.2418161928653717,-0.49149635434150696
1772796805072048600,5.791048583984375,0.25507622957229614,0.35941752791404724,-0.4253111183643341
1772796805082040600,5.80104052734375,0.2645491063594818,0.3864169120788574,-0.42518460750579834
1772796805092032800,5.81103271484375,0.2421691119670868,0.3443193733692169,-0.45538273453712463
1772796805102025500,5.821025390625,0.20361478626728058,0.29696542024612427,-0.4575260579586029
1772796805112017700,5.831017578125,0.16905830800533295,0.25295037031173706,-0.471924751996994
1772796805122009600,5.841009521484375,0.1550961583852768,0.2244976907968521,-0.4631994366645813
1772796805132001500,5.85100146484375,0.18845362961292267,0.21855729818344116,-0.3597208857536316
1772796805141993500,5.860993408203125,0.2361026406288147,0.21587097644805908,-0.17354649305343628
1772796805151987000,5.870987060546875,0.2894887328147888,0.1780092716217041,-0.0178923849016428
1772796805161979000,5.880978759765625,0.3519238829612732,0.1554243415594101,0.06471487879753113
1772796805171970800,5.890970703125,0.40385037660598755,0.14464712142944336,0.12454995512962341
1772796805181963000,5.900962890625,0.35858622193336487,-0.020587120205163956,0.16459405422210693
1772796805191956000,5.9109560546875,0.25063708424568176,-0.22824235260486603,0.23767797648906708
1772796805201948000,5.920947998046875,0.17751571536064148,-0.24301756918430328,0.31910625100135803
1772796805211940000,5.930940185546875,0.22723864018917084,-0.16329574584960938,0.2733014225959778
1772796805221932000,5.94093212890625,0.44903573393821716,0.04525426775217056,0.08310886472463608
1772796805231923700,5.950923828125,0.7479434013366699,0.22300301492214203,-0.23632895946502686
1772796805241917000,5.9609169921875,0.9768298268318176,0.20882435142993927,-0.4894115626811981
1772796805251909000,5.9709091796875,1.0448880195617676,0.03756238520145416,-0.44388794898986816
1772796805261900800,5.98090087890625,1.0445079803466797,-0.12446166574954987,-0.21493570506572723
1772796805271893000,5.99089306640625,1.074256181716919,-0.04223009571433067,-0.3984496295452118
1772796805281885000,6.000885009765625,1.096024513244629,0.3985811173915863,-1.2354683876037598
1772796805291878000,6.0108779296875,1.0642088651657104,0.8066572546958923,-2.2532434463500977
1772796805301869800,6.020869873046875,1.0233285427093506,0.9096619486808777,-2.8034214973449707
1772796805311862000,6.030862060546875,1.181138515472412,0.9056346416473389,-2.4300472736358643
1772796805321854000,6.04085400390625,1.49322509765625,0.87656170129776,-1.3987538814544678
1772796805331847000,6.050846923828125,1.6870783567428589,0.6822931170463562,-0.24689827859401703
1772796805341838800,6.0608388671875,1.8052699565887451,0.4237028956413269,0.6963014602661133
1772796805351831000,6.0708310546875,1.779549241065979,0.169180229306221,1.1275876760482788
1772796805361822700,6.08082275390625,1.612252116203308,-0.053926900029182434,0.8364482522010803
1772796805371815000,6.09081494140625,1.4754509925842285,0.0055063460022211075,0.4693891406059265
1772796805381808000,6.10080810546875,1.490268588066101,0.34617605805397034,0.3052372336387634
1772796805391799800,6.1107998046875,1.6006380319595337,0.6316192150115967,0.5430799126625061
1772796805401792000,6.1207919921875,1.6129449605941772,0.6024176478385925,1.0481464862823486
1772796805411784000,6.130783935546875,1.5448551177978516,0.40352821350097656,1.4991858005523682
1772796805421776000,6.14077587890625,1.4356119632720947,0.19052912294864655,1.6891200542449951
1772796805431768800,6.150768798828125,1.3333135843276978,0.15721648931503296,1.6239515542984009
1772796805441761000,6.160760986328125,1.283524513244629,0.17417870461940765,1.4570016860961914
1772796805451753000,6.1707529296875,1.2402180433273315,0.09454742074012756,1.2467777729034424
1772796805461745000,6.180744873046875,1.2073771953582764,-0.02881046198308468,1.056758999824524
1772796805471736800,6.19073681640625,1.1635501384735107,-0.1818866729736328,0.8516293168067932
1772796805481730000,6.20072998046875,1.1037533283233643,-0.29354262351989746,0.6243338584899902
1772796805491722000,6.210721923828125,1.0928001403808594,-0.25639018416404724,0.41597607731819153
1772796805501714000,6.2207138671875,1.1128054857254028,-0.017084920778870583,0.20930039882659912
1772796805511705900,6.230705810546875,1.1190497875213623,0.275276243686676,-0.016410667449235916
1772796805521699000,6.240698974609375,1.1189011335372925,0.5120941400527954,-0.27738019824028015
1772796805531690800,6.250690673828125,1.048876404762268,0.6087738871574402,-0.5068274140357971
1772796805541683000,6.260682861328125,0.921614408493042,0.5440225601196289,-0.6777206063270569
1772796805551675000,6.2706748046875,0.8317710161209106,0.444379985332489,-0.7396840453147888
1772796805561667000,6.2806669921875,0.8210397958755493,0.44540902972221375,-0.6707859039306641
1772796805571660000,6.290659912109375,0.8760349154472351,0.4991530179977417,-0.5310697555541992
1772796805581652000,6.30065185546875,0.9526577591896057,0.549487829208374,-0.4282594621181488
1772796805591644200,6.31064404296875,1.028760313987732,0.5916122198104858,-0.3903891146183014
1772796805601635800,6.3206357421875,1.0945260524749756,0.5867940783500671,-0.4336271286010742
1772796805611627800,6.330627685546875,1.1402099132537842,0.5100387334823608,-0.5131455063819885
1772796805621621000,6.34062109375,1.1857428550720215,0.48498237133026123,-0.5233824253082275
1772796805631613000,6.350613037109375,1.2164974212646484,0.4984560012817383,-0.4615221917629242
1772796805641604900,6.36060498046875,1.2355352640151978,0.4919850528240204,-0.3452099561691284
1772796805651597000,6.37059716796875,1.2438985109329224,0.4717869162559509,-0.1754482537508011
1772796805661589000,6.380589111328125,1.2621331214904785,0.4646613597869873,-0.03196565806865692
1772796805671582000,6.39058203125,1.3009986877441406,0.4617806077003479,0.05377538874745369
1772796805681574000,6.400573974609375,1.3143129348754883,0.4557144343852997,0.10794647783041
1772796805691566000,6.410566162109375,1.3047839403152466,0.4305659234523773,0.15525831282138824
1772796805701557800,6.420557861328125,1.267379879951477,0.3549209535121918,0.23580747842788696
1772796805711550000,6.430550048828125,1.2170504331588745,0.2656419277191162,0.3226068615913391
1772796805721543000,6.44054296875,1.2282456159591675,0.26727762818336487,0.3747211992740631
1772796805731534800,6.450534912109375,1.3488634824752808,0.24622125923633575,0.3400479555130005
1772796805741526800,6.46052685546875,1.5126683712005615,0.1885339766740799,0.3093630373477936
1772796805751519000,6.47051904296875,1.6403473615646362,0.2540278732776642,0.320860892534256
1772796805761512000,6.480511962890625,1.7821269035339355,0.5044156312942505,0.3478887975215912
1772796805771503900,6.49050390625,1.881867527961731,0.8625491857528687,0.27085942029953003
1772796805781496000,6.50049609375,1.8921757936477661,1.1572895050048828,-0.0925251692533493
1772796805791488000,6.510488037109375,1.839674472808838,1.152039885520935,-0.8348680734634399
1772796805801480000,6.52047998046875,1.6741043329238892,0.7163742184638977,-1.881129264831543
1772796805811473000,6.530472900390625,1.4487929344177246,0.27101531624794006,-2.729677677154541
1772796805821465000,6.540465087890625,1.2121692895889282,0.17401741445064545,-3.2367522716522217
1772796805831457000,6.55045703125,0.9624250531196594,0.19659937918186188,-3.7006492614746094
1772796805841449000,6.560448974609375,0.777818500995636,0.252906858921051,-3.597898483276367
1772796805851441000,6.57044091796875,0.7913848757743835,0.2167748063802719,-2.76948618888855
1772796805861433900,6.580433837890625,0.9897562861442566,0.2445015013217926,-1.4900788068771362
1772796805871425800,6.59042578125,1.1852450370788574,0.1652669608592987,-0.27063989639282227
1772796805881418000,6.60041796875,1.2795401811599731,0.05302564054727554,0.5340600609779358
1772796805891410000,6.610409912109375,1.343992829322815,-0.042202092707157135,0.95586758852005
1772796805901403000,6.62040283203125,1.3147364854812622,-0.15117357671260834,1.128551959991455
1772796805911394800,6.630394775390625,1.2356716394424438,-0.2844220697879791,1.182874321937561
1772796805921387000,6.640386962890625,1.141283631324768,-0.39535579085350037,1.1573830842971802
1772796805931379000,6.65037890625,1.0334328413009644,-0.4236636161804199,1.0917317867279053
1772796805941371000,6.660370849609375,0.9268136620521545,-0.392238050699234,1.040318489074707
1772796805951364000,6.670364013671875,0.82807457447052,-0.31103143095970154,1.0275580883026123
1772796805961356000,6.68035595703125,0.7535622715950012,-0.22010020911693573,1.0226328372955322
1772796805971348000,6.690347900390625,0.7388237714767456,-0.17478519678115845,1.00486421585083
1772796805981340000,6.70033984375,0.75634765625,-0.08074498176574707,0.9738511443138123
1772796805991331800,6.710331787109375,0.7957313656806946,0.07232674956321716,0.9618761539459229
1772796806001324800,6.72032470703125,0.8319287896156311,0.23201388120651245,0.9613656401634216
1772796806011317000,6.73031689453125,0.8467045426368713,0.42739108204841614,0.8859891891479492
1772796806021309000,6.740308837890625,0.838582456111908,0.6003647446632385,0.7113324403762817
1772796806031301000,6.750301025390625,0.837531566619873,0.7130898237228394,0.47503000497817993
1772796806041292800,6.760292724609375,0.8487602472305298,0.7441625595092773,0.22032451629638672
1772796806051286000,6.7702861328125,0.8837280869483948,0.7590027451515198,-0.018993046134710312
1772796806061278000,6.78027783203125,0.9234738945960999,0.8029031157493591,-0.21443897485733032
1772796806071270000,6.790269775390625,0.964095950126648,0.7904112339019775,-0.3457639217376709
1772796806081261800,6.80026171875,1.0142922401428223,0.6577213406562805,-0.3682585656642914
1772796806091254000,6.81025390625,1.099567174911499,0.49461209774017334,-0.29320818185806274
1772796806101246700,6.820246826171875,1.1953942775726318,0.4235203266143799,-0.16423740983009338
1772796806111239000,6.830239013671875,1.29017972946167,0.41333508491516113,0.03395996242761612
1772796806121230800,6.84023095703125,1.3698524236679077,0.3740156590938568,0.2502155601978302
1772796806131223000,6.85022314453125,1.3964670896530151,0.32935070991516113,0.4457895755767822
1772796806141216000,6.860216064453125,1.3599971532821655,0.32726117968559265,0.6016806364059448
1772796806151208000,6.8702080078125,1.2270649671554565,0.2787169814109802,0.6492875218391418
1772796806161198800,6.88019873046875,1.165540099143982,0.2818682789802551,0.35782983899116516
1772796806171191000,6.89019091796875,1.2560977935791016,0.6292621493339539,-0.38293424248695374
1772796806181183000,6.900182861328125,1.4086942672729492,1.2800841331481934,-1.2277776002883911
1772796806191176000,6.910176025390625,1.6406300067901611,1.6621949672698975,-1.7830737829208374
1772796806201168000,6.92016796875,1.7876091003417969,1.2849639654159546,-1.8055742979049683
1772796806211160000,6.93016015625,1.7606459856033325,0.7881858348846436,-1.2881009578704834
1772796806221151700,6.94015185546875,1.7197123765945435,0.36868980526924133,-0.8929991126060486
1772796806231144000,6.95014404296875,1.6292266845703125,0.20978271961212158,-0.9398250579833984
1772796806241137200,6.96013720703125,1.4683949947357178,0.2026694118976593,-1.3788937330245972
1772796806251128800,6.97012890625,1.2644487619400024,0.17816700041294098,-1.9505114555358887
