time,seconds_elapsed,z,y,x
1772796361213211600,0.064211669921875,-0.365640069308877,-0.04383044696338474,-0.49214025084823365
1772796361223203800,0.074203857421875,-0.10882979255318641,-0.0546929825656116,-0.5459530895784497
1772796361233197000,0.084197021484375,0.19671499675512313,-0.03011982845366001,-0.6362611370131374
1772796361243188700,0.094188720703125,0.39268940427601334,-0.036279227866232396,-0.7100500113233924
1772796361253180700,0.1041806640625,0.43760289723575113,-0.031844460289180275,-0.542767518344894
1772796361263174000,0.114173828125,0.41221769608855247,-0.04846095630824566,-0.34790479839295146
1772796361273165800,0.124165771484375,0.38596623350083825,-0.05535955671556294,-0.17794753324724732
1772796361283158800,0.13415869140625,0.35673955449461936,0.0025091332767158744,-0.09658617785610259
1772796361293151000,0.14415087890625,0.2455664136856794,0.11638649154305457,-0.1578939023863524
1772796361303144000,0.15414404296875,0.07907061410546302,0.24454065083451568,-0.24892452847454696
1772796361313135900,0.164135986328125,-0.10784195055961608,0.381811451908946,-0.33667368520665913
1772796361323127800,0.1741279296875,-0.3016226474285126,0.4947124394237995,-0.2663549346923828
1772796361333120800,0.184120849609375,-0.5080570741653442,0.4856427785877138,-0.20401538289636373
1772796361343113000,0.194113037109375,-0.5268389315247536,0.4392013454083353,-0.1529858547417447
1772796361353105700,0.204105712890625,-0.4385626821786165,0.3975921546909958,-0.10698361669722944
1772796361363097900,0.214097900390625,-0.4491588949948549,0.31566498211063443,-0.07257555299773812
1772796361373089800,0.22408984375,-0.5806003323286771,0.1779931990198791,-0.09341112801656126
1772796361383082800,0.234082763671875,-0.5713344913333654,0.07573993531279266,-0.05830390307176858
1772796361393074700,0.24407470703125,-0.5207856228351593,-0.016314005941152572,-0.05437960576750338
1772796361403068000,0.25406787109375,-0.5393108750849962,-0.1553231020502746,-0.06932663420438766
1772796361413059800,0.264059814453125,-0.47084582614600656,-0.20608064486309885,-0.027285993267223238
1772796361423051800,0.2740517578125,-0.4435790490359068,-0.23309023234173654,0.09714233216783032
1772796361433045000,0.284044921875,-0.45283729124665256,-0.2406285188920796,0.14961835107002405
1772796361443036700,0.29403662109375,-0.48864860934019083,-0.32409093821570273,0.16771850977558642
1772796361453030000,0.30402978515625,-0.5682032075703144,-0.4242103316992521,0.22061551230251789
1772796361463021800,0.314021728515625,-0.6500321804732084,-0.48096010066419836,0.4097577357158065
1772796361473014800,0.324014892578125,-0.7782458879321813,-0.5019995276920497,0.5446768225649371
1772796361483007000,0.334007080078125,-0.904380451029539,-0.49333705941736694,0.5618850008668378
1772796361492999000,0.3439990234375,-0.8640636382102965,-0.4395820883542299,0.5731985316395759
1772796361502992000,0.353991943359375,-0.8762889135330915,-0.4553260393224656,0.5750761255471035
1772796361512983800,0.36398388671875,-0.9974036026418208,-0.5487077951140702,0.5803151587117463
1772796361522976800,0.373976806640625,-1.0997779354453086,-0.6765449974108487,0.6140510587707162
1772796361532968700,0.38396875,-1.1610334913969038,-0.7620943060111254,0.6213009568337351
1772796361542961000,0.3939609375,-1.223076398333907,-0.8349166733767837,0.6505338463850319
1772796361552953900,0.403953857421875,-1.2713128982365132,-0.8422164019308984,0.6765553726743906
1772796361562945800,0.41394580078125,-1.2474585599184036,-0.8551900844682008,0.6526078761801123
1772796361572939000,0.42393896484375,-1.1440139675348997,-0.8288726439721882,0.6162120361968875
1772796361582930700,0.4339306640625,-0.9726029233843088,-0.7941314393281936,0.5868971674505621
1772796361592923000,0.4439228515625,-0.8623755389928818,-0.7830889440491795,0.6230141174271703
1772796361602915800,0.453915771484375,-0.90353932403028,-0.7385813284765929,0.5926430906914174
1772796361612907800,0.46390771484375,-0.9390525359600782,-0.7300842068314551,0.5917507449615746
1772796361622901000,0.47390087890625,-0.9094991092175245,-0.7167624415088445,0.5762212404616177
1772796361632893000,0.483892822265625,-0.8509037123858928,-0.6305993849243968,0.5526581036424264
1772796361642886000,0.493885986328125,-0.7308627899885177,-0.5309425674512982,0.5400095248736441
1772796361652877800,0.5038779296875,-0.6491746868610382,-0.5073408887200057,0.4574570600017905
1772796361662870000,0.5138701171875,-0.5540531016647815,-0.49723406685590743,0.39071393948458133
1772796361672862700,0.52386279296875,-0.5396493132591247,-0.47674204457774755,0.2857540471673012
1772796361682855000,0.53385498046875,-0.6516220800131559,-0.484068734204024,0.06878576879333705
1772796361692847900,0.543847900390625,-0.7162099952578544,-0.4914228963591158,-0.13589465388301758
1772796361702839800,0.55383984375,-0.664291007450223,-0.3969070219710469,-0.27337745374031364
1772796361712832000,0.56383203125,-0.4910673609197139,-0.33396533956341445,-0.34323388397246596
1772796361722824700,0.57382470703125,-0.23899989477694034,-0.2896232167508453,-0.3796993185931816
1772796361732817000,0.58381689453125,0.010814239481091498,-0.2616077401652932,-0.3800331171248108
1772796361742809900,0.593809814453125,0.20841770950853825,-0.23029672916568814,-0.3187391288589686
1772796361752801800,0.6038017578125,0.3820318166613579,-0.20162972986884414,-0.279240171761252
1772796361762793700,0.613793701171875,0.5165396558284759,-0.1655884024117142,-0.21467856000158936
1772796361772787000,0.623786865234375,0.6141022044360638,-0.09912946913074701,-0.1334724317047745
1772796361782779000,0.63377880859375,0.6659095485627651,-0.07129855533186345,-0.07673621634114533
1772796361792771800,0.643771728515625,0.6762070706933736,-0.05050981512945145,-0.014666275266744196
1772796361802764000,0.653763916015625,0.6413847636371851,-0.045023784933798015,0.017939561316370964
1772796361812756700,0.6637568359375,0.5882908868312835,-0.026648206820338964,0.022964038414880632
1772796361822749000,0.6737490234375,0.4771913957804441,-0.04998476834204048,0.01724124032128602
1772796361832740900,0.683740966796875,0.34939328338503833,-0.06197232591882348,0.027376630692742765
1772796361842733800,0.69373388671875,0.2586871765434742,-0.015277100641466677,0.07747282352000474
1772796361852725800,0.703725830078125,0.17243395745754242,0.02244947648886591,0.10161014349795877
1772796361862718700,0.71371875,0.03356149334013462,0.06921221404448151,0.11725783101748674
1772796361872711000,0.7237109375,-0.10202712680101395,0.07882851244527846,0.1162266248062253
1772796361882702800,0.733702880859375,-0.1907774233996868,0.09342581412903964,0.15145919316373765
1772796361892695800,0.74369580078125,-0.23580022195279596,0.08258757271785289,0.2096482742168009
1772796361902687700,0.753687744140625,-0.2893663924455643,0.06823167857453227,0.1990342700155452
1772796361912681000,0.763680908203125,-0.342810397863388,0.0335613837422803,0.1814934987584129
1772796361922672600,0.773672607421875,-0.3956938467890024,-0.015361892848089337,0.16833328067306427
1772796361932664800,0.783664794921875,-0.47488078075051304,-0.0445443673864007,0.09331318406742066
1772796361942658000,0.793657958984375,-0.5037859727174043,-0.08580500039439648,0.0007097557045519352
1772796361952649700,0.803649658203125,-0.40715865913331506,-0.1373353542106226,-0.07265334920799359
1772796361962643000,0.813642822265625,-0.24875381155014037,-0.22876232267264276,-0.09723422996867448
1772796361972635000,0.823634765625,-0.12186346164941787,-0.2891762036357075,-0.15046408117916435
1772796361982627800,0.8336279296875,-0.08977730155885219,-0.3191001441910863,-0.15847372983461244
1772796361992619800,0.843619873046875,-0.07817278848290443,-0.3172952136609703,-0.10208557898998259
1772796362002612000,0.853612060546875,-0.08227204049527645,-0.29317860767748205,-0.06866550341453403
1772796362012605000,0.86360498046875,-0.07172726560533046,-0.2646531357431784,0.0028801220135763286
1772796362022596900,0.873596923828125,-0.0694599051952362,-0.26446703858654946,0.03494518451718613
1772796362032589800,0.88358984375,-0.04327566262483597,-0.2855440211458132,0.05547394034285098
1772796362042581800,0.893581787109375,-0.022500585621595383,-0.2957025001319125,0.032415355512313546
1772796362052574000,0.903573974609375,-0.030327333724498747,-0.30692955819759515,0.021972123034391552
1772796362062566700,0.913566650390625,-0.0236935947984457,-0.3180287520999089,0.018504300793353468
1772796362072558800,0.923558837890625,-0.006309913799166679,-0.3372210168911144,0.018484755842667074
1772796362082552000,0.933552001953125,0.0350263051956892,-0.3216088025437668,0.006071173139847815
1772796362092543700,0.943543701171875,0.0761000738620758,-0.30656982150711115,0.03137357310811058
1772796362102537000,0.953536865234375,0.10941489896476268,-0.25799429890848696,0.09402251964686438
1772796362112529000,0.96352880859375,0.11386252602338791,-0.19059757332075386,0.10924135076245292
1772796362122520800,0.973520751953125,0.13301847739219666,-0.12471775510199368,0.08597085848059505
1772796362132514000,0.98351416015625,0.15090309365093707,-0.08213570076450705,0.14423516019433735
1772796362142506200,0.99350634765625,0.18638824853003025,-0.03245334943514317,0.14472334557008
1772796362152499200,1.003499267578125,0.17030454421341418,0.03270677620694041,0.1365354360045865
1772796362162491100,1.0134912109375,0.06740238814353942,0.06501001311428845,0.09418784801010043
1772796362172483300,1.0234833984375,-0.08439151686728,0.057849948759190736,0.017426844287570565
1772796362182476000,1.03347607421875,-0.21523907996118066,0.05784443233385682,-0.029094211732968688
1772796362192468200,1.04346826171875,-0.2534545365869999,0.11916344544310122,-0.01593331779418513
1772796362202461000,1.0534609375,-0.24057985744476318,0.11606851163506507,-0.006724705145135522
1772796362212453000,1.063453125,-0.18763328015506267,0.07685633558947592,-0.030639285750500855
1772796362222445000,1.073445068359375,-0.14214695574343203,0.04146243919041007,-0.02619122030045837
1772796362232438000,1.08343798828125,-0.0746229870468378,0.014237711123749613,-0.033941359503194685
1772796362242430200,1.09343017578125,-0.05661912832260132,-0.037747108461707826,-0.07919416741989553
1772796362252423200,1.103423095703125,-0.09596621932685374,-0.1190322933441028,-0.14565697315838186
1772796362262415000,1.1134150390625,-0.10526011737287044,-0.16861834469214082,-0.21619565003365276
1772796362272408000,1.123407958984375,-0.06008242051899433,-0.1670093751255423,-0.2748450603411533
1772796362282400300,1.133400146484375,-0.05140110141336918,-0.1958560053056106,-0.2956802335011773
1772796362292392000,1.143391845703125,-0.039890696361660954,-0.22836283849366007,-0.3195373300319537
1772796362302385200,1.15338525390625,0.0023100305080413818,-0.24502467149179427,-0.3354886036079377
1772796362312377000,1.163377197265625,0.009339490753412246,-0.24776622528489678,-0.3549042653588578
1772796362322370000,1.1733701171875,-0.02510755324959755,-0.265518374270387,-0.4027834397237748
1772796362332362200,1.1833623046875,-0.024713000974059103,-0.27971557072065767,-0.41820900892522184
1772796362342354200,1.193354248046875,-0.009527122280001639,-0.28887550365608183,-0.4010776587191969
1772796362352347100,1.20334716796875,0.01416647251844406,-0.2902481802487746,-0.3670844228982925
1772796362362339000,1.213339111328125,0.0406990901350975,-0.290080239803344,-0.3117150023758411
1772796362372332000,1.22333203125,0.08030103268325328,-0.30477639875169843,-0.26971631915057076
1772796362382324200,1.23332421875,0.11652268514335155,-0.3183107108464464,-0.21581854208325965
1772796362392316200,1.243316162109375,0.09393909741342067,-0.3232340291254222,-0.22278039871882646
1772796362402309000,1.25330908203125,0.033173370805382726,-0.2900533152638003,-0.22812647245451806
1772796362412301000,1.263301025390625,0.05616612385809421,-0.2591897923033684,-0.1576849906097166
1772796362422294000,1.2732939453125,0.09221183522939681,-0.21846666370555756,-0.011678126301430164
1772796362432286000,1.283285888671875,0.1715752948015928,-0.206272002716735,0.1317121988329105
1772796362442279200,1.293279052734375,0.22797931906878946,-0.19001155359372496,0.20983214288372545
1772796362452271000,1.30327099609375,0.2391314122021198,-0.14785919591039418,0.25766415363866835
1772796362462263000,1.313262939453125,0.23056933556199072,-0.11315218579694628,0.2788864446864463
1772796362472256300,1.32325634765625,0.16963059047460555,-0.1141224190685898,0.2544937434416264
1772796362482248200,1.333248291015625,0.1597200218349695,-0.06945062591023743,0.25950656663496047
1772796362492241200,1.3432412109375,0.16872575058937073,-0.04848192603103816,0.23768694901484994
1772796362502233000,1.353233154296875,0.18905249930322168,-0.044295287996158,0.20555044697653502
1772796362512225000,1.36322509765625,0.2086240457355976,-0.06387728275731205,0.1968943719100207
1772796362522218200,1.37321826171875,0.18806173470020293,-0.018589184331521392,0.19782739671012387
1772796362532210200,1.383210205078125,0.17302198647856712,0.023892843697592616,0.2400982296739705
1772796362542203100,1.393203125,0.10779401976466178,0.0586436198875308,0.27262110068136824
1772796362552195000,1.403195068359375,0.019817045626044274,0.07985065856724977,0.24145366287091746
1772796362562188000,1.41318798828125,-0.1484580385863781,0.10090718286037445,0.20753248763922602
1772796362572180000,1.423179931640625,-0.26514088272750375,0.11307831684313714,0.169208273409307
1772796362582172200,1.433172119140625,-0.29385435151457784,0.13078118332680314,0.1684990474277176
1772796362592165000,1.4431650390625,-0.2945972788363695,0.13951594965271652,0.14022528523216024
1772796362602157000,1.453156982421875,-0.28844167881608007,0.09052665862143039,0.12477895637047476
1772796362612150300,1.463150390625,-0.243314250844717,0.059757061022147534,0.08452571943989023
1772796362622142000,1.473141845703125,-0.169350019967556,-0.014295907584391533,0.02910334488749504
1772796362632134100,1.483134033203125,-0.11442951225638388,-0.08895550031457096,-0.060230194959230716
1772796362642127000,1.493127197265625,-0.04693126252293586,-0.18966997361443935,-0.1288850399824325
1772796362652119000,1.503119140625,0.016848843470215796,-0.2651100857304409,-0.18046621980359775
1772796362662112000,1.513112060546875,0.01388064131438732,-0.35774836621098216,-0.2244442402778193
1772796362672104200,1.523104248046875,0.03273264130055904,-0.39157961640320715,-0.27969198891567065
1772796362682096000,1.53309619140625,-0.014926935496926306,-0.40396497765854,-0.32331447395049034
1772796362692089000,1.543089111328125,-0.04934884505867958,-0.3817390442598611,-0.34636151447370644
1772796362702081300,1.553081298828125,-0.025009353572130202,-0.37551293628662824,-0.3195654236152768
1772796362712074000,1.563073974609375,0.031818449065089224,-0.34569735147655006,-0.29950967386253174
1772796362722066200,1.573066162109375,0.08795826943814754,-0.31166005731821056,-0.2742244990237057
1772796362732059000,1.583058837890625,0.09884557415544987,-0.3234663765765726,-0.2790481380541809
1772796362742051000,1.593051025390625,0.11597966430783271,-0.3110038584318012,-0.30850659825596954
1772796362752043000,1.60304296875,0.1513204422801733,-0.25470680167041715,-0.32504842160362746
1772796362762036000,1.613035888671875,0.17972236090004443,-0.1959877784591168,-0.2782547043878585
1772796362772028200,1.623028076171875,0.20700842723250387,-0.1988466019563377,-0.20674117286475374
1772796362782021000,1.633021240234375,0.2062012025028467,-0.15859971256814895,-0.11572884961823
1772796362792013000,1.643012939453125,0.18219839562475681,-0.12991327791847287,-0.08299854640522972
1772796362802005000,1.6530048828125,0.1318710609227419,-0.11154979210160672,-0.05494404841696378
1772796362811998200,1.662998291015625,0.1152396595954895,-0.10170914689302443,-0.02771048858987633
1772796362821990000,1.672989990234375,0.10121756398379803,-0.10143836712762713,0.008741102451866026
1772796362831983000,1.682983154296875,0.10956278300285338,-0.10261135642975568,0.03331310806963592
1772796362841975300,1.692975341796875,0.11229600735902785,-0.11154007442519068,0.02603986338035902
1772796362851967000,1.702967041015625,0.08187515013217926,-0.12737491854727268,0.03495269653678406
1772796362861960200,1.712960205078125,0.041295886984467504,-0.13678835131973027,0.008669997418945422
1772796362871952100,1.7229521484375,-0.008003858235478402,-0.1548957434836775,0.017319676994002657
1772796362881945000,1.732945068359375,-0.11488368576467037,-0.16222572104558347,0.0014132883059384765
1772796362891937000,1.74293701171875,-0.21233868234455583,-0.16165785802975297,-0.04963800073098391
1772796362901930000,1.752929931640625,-0.22448387816846369,-0.16111768673844634,-0.03432297238205792
1772796362911922200,1.762922119140625,-0.17113398077487946,-0.1574624521665275,0.02328159363118466
1772796362921914000,1.7729140625,-0.12136194186806679,-0.17421762600392102,0.05053399058948271
1772796362931907000,1.782906982421875,-0.0844394476622343,-0.16284443746581673,0.07309027932053432
1772796362941899000,1.79289892578125,-0.0815028096884489,-0.1871096216071397,0.05112887404297944
1772796362951892200,1.802892333984375,-0.12907061654925345,-0.1817560586847365,0.023458607865637165
1772796362961884000,1.8128837890625,-0.13410627262890337,-0.19362083013206718,0.04219746633353643
1772796362971876000,1.8228759765625,-0.13220540744364262,-0.18487835542373357,0.037159207304846495
1772796362981869300,1.832869384765625,-0.08728080856800079,-0.18901253261901438,0.0406860068912385
1772796362991861000,1.842861083984375,-0.015110475370287894,-0.203852593550086,0.021813539505773222
1772796363001854200,1.852854248046875,0.052314709126949306,-0.20173706270083783,0.015362920327973551
1772796363011846100,1.86284619140625,0.08854629845917224,-0.20685404038839042,-0.006652715908692334
1772796363021838000,1.872838134765625,0.12063128950595856,-0.1888446287062019,0.00113488007322303
1772796363031831000,1.8828310546875,0.12418342902958393,-0.1588404625214636,0.06644361241424922
1772796363041823200,1.8928232421875,0.14648293912112711,-0.14248780507035552,0.06599620657346676
1772796363051816200,1.902816162109375,0.16600480119287966,-0.14744097049832344,0.04866096325921826
1772796363061808000,1.91280810546875,0.15371873559355734,-0.1356779789250344,0.007926583756675244
1772796363071801000,1.922801025390625,0.1512111366868019,-0.12527546204999088,-0.028143758590740614
1772796363081793000,1.93279296875,0.12423135982453823,-0.14250957851074636,-0.039564067356335
1772796363091785200,1.94278515625,0.08096212694048881,-0.1305796328727156,-0.020812326573976313
1772796363101778000,1.95277783203125,0.0005278232663869858,-0.11141301397942006,-0.020705226637423038
1772796363111770000,1.96277001953125,-0.08762567648291587,-0.11385631547830999,-0.02612674251279095
1772796363121763300,1.972763427734375,-0.1392073951601982,-0.0874590877443552,-0.02366478197920369
1772796363131754800,1.982754638671875,-0.10939560974240302,-0.10030972842387854,-0.01959661009168485
1772796363141746700,1.99274658203125,-0.030154899767041204,-0.10521379401311277,-0.023708376809046604
1772796363151740000,2.002739990234375,0.04123568122982978,-0.12806187789812684,0.017780885314563056
1772796363161731800,2.01273193359375,0.0685492200911045,-0.10129998157024384,0.030170869087730534
1772796363171724800,2.022724853515625,0.03467676110565662,-0.10498773017227649,0.05147354559507221
1772796363181717000,2.032717041015625,-0.0074549921810626975,-0.09345350585356355,0.05946242545712739
1772796363191709000,2.042708984375,-0.02750000134408474,-0.1043916639752686,0.010598655935074202
1772796363201702000,2.052701904296875,-0.012074468675255775,-0.1281513097472489,-0.039457277947035616
1772796363211693800,2.06269384765625,0.022833178576827047,-0.1277807959344238,-0.04417113189352676
1772796363221686800,2.072686767578125,0.08066168268918991,-0.12208353414088487,-0.032843953904637596
1772796363231679000,2.082678955078125,0.07192483400404452,-0.10728818913437425,-0.02301446712759789
1772796363241671700,2.092671630859375,0.025614333727955817,-0.12458616461157798,-0.0026819302770658394
1772796363251664000,2.102663818359375,-0.0029278701454401013,-0.13117343404740095,-0.025486010623571927
1772796363261655800,2.11265576171875,-0.015026888740062713,-0.1531190161347389,-0.05681302519319579
1772796363271648800,2.122648681640625,0.04892623573243618,-0.17154701855517923,-0.09987979430770501
1772796363281640700,2.132640625,0.05705927330553531,-0.2190305081333965,-0.11871111683202906
1772796363291634000,2.142634033203125,0.041534956437349314,-0.2505789080854505,-0.1017262532914523
1772796363301625900,2.1526259765625,0.01733399663865566,-0.24880926806442438,-0.07460982617116532
1772796363311617800,2.16261767578125,0.0398147085160017,-0.23333142068646848,-0.08708635457498021
1772796363321611000,2.172611083984375,0.037028877189755435,-0.23763430551216005,-0.10986157415318303
1772796363331602700,2.182602783203125,0.04503215090334415,-0.22854067927859723,-0.10372638673326
1772796363341596000,2.192595947265625,0.018002689680457113,-0.20511983700692651,-0.09380448384885676
1772796363351587800,2.202587890625,-0.03064823624193668,-0.16920849260501564,-0.0853721436687745
1772796363361579800,2.212579833984375,-0.06995733332335949,-0.13545629899837075,-0.08273176696151495
1772796363371573000,2.222572998046875,-0.03298924641013145,-0.11100742885321378,-0.044338866842980496
1772796363381565000,2.23256494140625,0.011620879688858984,-0.12144596688970923,-0.04663536201601382
1772796363391558000,2.242557861328125,0.06363982073962689,-0.10130100448355078,-0.014541240097989794
1772796363401549800,2.2525498046875,0.10048515805602073,-0.10581555929854512,-0.008406061811221298
1772796363411542800,2.262542724609375,0.08620236568152904,-0.09936894044242799,-0.031700361943640745
1772796363421534700,2.27253466796875,0.028075170883536338,-0.07166990939490497,-0.013474932890594937
1772796363431527000,2.28252685546875,-0.013489596170186996,-0.08606924082115291,0.0035603958953171967
1772796363441519900,2.292519775390625,-0.04102291526198387,-0.07676613655537366,0.008412409353617112
1772796363451511800,2.30251171875,-0.024871406406164167,-0.08274988714009524,-0.009875179949135053
1772796363461505000,2.312505126953125,-0.031759996876120564,-0.10374014126397668,0.0058278293706476685
1772796363471496700,2.32249658203125,-0.016506898164749144,-0.12870529036819933,-0.01737099961421918
1772796363481489000,2.332489013671875,-0.029982465809583664,-0.15985409654341637,-0.01669920586645603
1772796363491481900,2.34248193359375,-0.01964110453724861,-0.1703000141687691,-0.02851507840445265
1772796363501473800,2.352473876953125,-0.012578326544165611,-0.16538783833831547,-0.06728145604445598
1772796363511466800,2.362466796875,-0.008970072919130325,-0.1760238717082888,-0.08844229009542613
1772796363521459000,2.372458984375,-0.025439561682939527,-0.19538842432647943,-0.056223991525173184
1772796363531450600,2.38245068359375,-0.009316109877824783,-0.18003990241661666,-0.047504733295645564
1772796363541443800,2.39244384765625,0.0019920506000518797,-0.1908779611647129,-0.05438310376568697
1772796363551436000,2.40243603515625,0.04532499637007713,-0.15383732047192752,-0.0648479726866819
1772796363561428700,2.4124287109375,0.03329144422709942,-0.13042663426809012,-0.11395639658560976
1772796363571421000,2.4224208984375,0.010922376030683517,-0.13802505350783467,-0.08574991833944805
1772796363581413600,2.43241357421875,0.004092237749695778,-0.1402617995839566,-0.06564967642442789
1772796363591405800,2.44240576171875,0.016695114213228224,-0.13908033471442757,-0.07707870963588356
1772796363601397800,2.452397705078125,0.08691139073371887,-0.12356310517415403,-0.08686032726676203
1772796363611390700,2.462390625,0.16892331898808477,-0.13930954036042092,-0.09151890279548242
1772796363621383000,2.4723828125,0.21092589293718336,-0.16515790203996003,-0.09133155439668335
1772796363631376000,2.4823759765625,0.2081096664726734,-0.17884492047838865,-0.11989603403396903
1772796363641367800,2.492367919921875,0.14829144984781742,-0.1681375023726374,-0.08816991202798671
1772796363651359700,2.50235986328125,0.06015899288654327,-0.14815613303035496,-0.07298663628296927
1772796363661353000,2.51235302734375,0.014974866291880606,-0.12854659267514942,-0.03415147913951659
1772796363671344600,2.5223447265625,-0.002955342674255371,-0.08847681341953575,-0.020954874566534998
1772796363681337900,2.532337890625,-0.04185176730155945,-0.07152450957484544,0.015397749612759798
1772796363691330000,2.542330078125,-0.0637175621509552,-0.07334982530586422,-0.01686575350582134
1772796363701321700,2.55232177734375,-0.0632943683028221,-0.10201865123361349,-0.03559119536972139
1772796363711315000,2.56231494140625,-0.015585691666603087,-0.11364815262034535,-0.05936748631582595
1772796363721307000,2.572306884765625,0.025992519390583037,-0.14404402153640986,-0.05490343784536235
1772796363731299800,2.5822998046875,0.06654197192192077,-0.13983692523539065,-0.0343075168013107
1772796363741291800,2.592291748046875,0.07899579530358314,-0.13917868052236734,0.016819825154996942
1772796363751284700,2.60228466796875,0.05059270763993263,-0.12124335698969661,0.004114721007439948
1772796363761277000,2.61227685546875,-0.0008826280534267425,-0.14285473868660628,-0.016466374358115717
1772796363771268900,2.622268798828125,-0.04117255286574364,-0.13606909713447093,-0.02536361265318701
1772796363781261800,2.63226171875,-0.06038111120462417,-0.12648586075305937,-0.0020286708393585286
1772796363791253800,2.642253662109375,-0.03948211556077003,-0.12939093454480172,0.017678981001290957
1772796363801247000,2.6522470703125,-0.010799626433849335,-0.1654176489546895,0.017407873583975015
1772796363811238700,2.66223876953125,-0.0012608137160539626,-0.17107669762969016,0.011777513288985937
1772796363821230800,2.67223095703125,-0.005651742151379585,-0.17728870401233435,0.004883117557683727
1772796363831224000,2.68222412109375,-0.050955695733428,-0.19527780355885624,-0.02054532336797565
1772796363841215700,2.6922158203125,-0.10051964484751225,-0.17463453624173997,-0.01601071899550734
1772796363851209000,2.702208984375,-0.14404898997247217,-0.16908355105109513,-0.0126185946224723
1772796363861201000,2.712200927734375,-0.15638123280107974,-0.16576441656574606,-0.007091255168896168
1772796363871192800,2.72219287109375,-0.1278968965947628,-0.16336057029440998,-0.0034918652703287076
1772796363881185800,2.732185791015625,-0.0865180075019598,-0.13991978121325374,0.03498707601370988
1772796363891178000,2.742177978515625,-0.025643559822440147,-0.12414258556254207,0.004809962131571956
1772796363901171000,2.7521708984375,0.006215221253037452,-0.13295074591822922,-0.01738469934600871
1772796363911163000,2.762162841796875,0.04524608591496944,-0.1429885941993445,0.010689576488384044
1772796363921155800,2.77215576171875,0.12740063751041888,-0.17084091611243785,0.059404996181465684
1772796363931147800,2.782147705078125,0.20454057581424712,-0.13647928537055848,0.05325781692964956
1772796363941140000,2.792139892578125,0.28540158046782016,-0.13625044505074618,0.08103679961189628
1772796363951132700,2.802132568359375,0.36132688228487964,-0.14418452598564327,0.0829297463521827
1772796363961124900,2.812124755859375,0.4171954845011234,-0.15438655185252428,0.11731665766579098
1772796363971118000,2.8221181640625,0.4043476933658123,-0.16383344850316642,0.1367709983261302
1772796363981109800,2.83210986328125,0.36834932826757427,-0.1552691068407148,0.09892617424414493
1772796363991101700,2.842101806640625,0.27353344801962376,-0.1290649905260652,0.0850693430636078
1772796364001095000,2.852094970703125,0.1785176612854004,-0.10785722119398415,0.08356409873296507
1772796364011086800,2.8620869140625,0.1119803655385971,-0.10645086152739822,0.07557168890668545
1772796364021079800,2.872079833984375,0.06753682817816734,-0.06992865521814674,0.09931209568865597
1772796364031072000,2.882072021484375,0.04941840316355228,-0.04264901862647384,0.11213270655609667
1772796364041063700,2.892063720703125,0.0037801030606031414,-0.04017155912965536,0.13880318000717087
1772796364051057000,2.902056884765625,-0.043346389773488044,-0.06197086461409926,0.16379861465180293
1772796364061048800,2.912048828125,-0.116516255402565,-0.0654809916269034,0.1566962170343846
1772796364071041800,2.922041748046875,-0.20047522607147691,-0.07003222519047558,0.08505272985552437
1772796364081034000,2.932033935546875,-0.3087210812568664,-0.07889255412481724,0.008264765060832723
1772796364091026700,2.942026611328125,-0.4164548952668905,-0.0647862508283928,-0.044674240843765436
1772796364101019000,2.952018798828125,-0.49213820502161976,-0.08135773866195231,-0.07234178990763612
1772796364111010800,2.9620107421875,-0.47770402147769925,-0.0842605474313721,-0.05800043574632145
1772796364121003800,2.972003662109375,-0.3924176015973091,-0.08231883877906948,-0.029406894411332905
1772796364130995700,2.98199560546875,-0.27440847728848455,-0.10057093664333223,-0.07087864028620533
1772796364140988700,2.99198876953125,-0.1273643971532583,-0.12454711124282329,-0.08527273841490969
1772796364150980600,3.001980712890625,-0.009940963777899742,-0.1608123471163213,-0.09091535654491745
1772796364160972500,3.01197265625,0.04827040217220783,-0.2205421548053622,-0.1414146411472
1772796364170965800,3.0219658203125,0.0842430483072996,-0.2715982421733439,-0.1503327190176118
1772796364180957400,3.03195751953125,0.0797077429652214,-0.24465474220085887,-0.19242365623675287
1772796364190950700,3.04195068359375,0.07728197712302208,-0.24316359032765028,-0.18710114603973924
1772796364200942800,3.05194287109375,0.07093114679157733,-0.23772629464454947,-0.2001258463782258
1772796364210934500,3.0619345703125,0.02592354580760002,-0.20959939357377588,-0.18668953303154556
1772796364220927700,3.071927734375,0.05213584542870521,-0.18695918028578162,-0.14725497380639427
1772796364230919700,3.081919677734375,0.06477203963994979,-0.1853800213355571,-0.14931970605016684
1772796364240912600,3.09191259765625,0.10889818161427973,-0.1577547496439889,-0.16409293968956917
1772796364250904600,3.101904541015625,0.08749123644828796,-0.1321352282842621,-0.19419225507816298
1772796364260897500,3.1118974609375,0.05219254405200481,-0.09370759021248667,-0.21815129587976262
1772796364270889700,3.1218896484375,0.067673606300354,-0.07943535576462746,-0.17070132497865706
1772796364280881700,3.131881591796875,0.0815899034500122,-0.0685350819678977,-0.1491137168829795
1772796364290874600,3.14187451171875,0.0959112742692232,-0.054755234146863216,-0.16528704484496265
1772796364300866600,3.151866455078125,0.07829495355784892,-0.053573513549007475,-0.20474318571425973
1772796364310859800,3.16185986328125,0.040651159340143204,-0.037546179062128066,-0.2273553967504762
1772796364320851500,3.1718515625,-0.015286416459083556,-0.019150544541329143,-0.1496428644567728
1772796364330843600,3.18184375,-0.0924082345843315,-0.01440747820008546,-0.11462006639242171
1772796364340836900,3.1918369140625,-0.13039923480451107,-0.007531674146465957,-0.10078322768714279
1772796364350828500,3.20182861328125,-0.10723813944756984,-0.029046500133723018,-0.12325184726789593
1772796364360821800,3.21182177734375,-0.10927402918934821,-0.034947687001526354,-0.10909954027212224
1772796364370813700,3.221813720703125,-0.07662965069413184,-0.034460889865271745,-0.09379161523412913
1772796364380805600,3.2318056640625,-0.06751169373691082,-0.048420441634766755,-0.07620862597019877
1772796364390798600,3.241798583984375,-0.06547697303891181,-0.06455112689826636,-0.0857956480441615
1772796364400790800,3.251790771484375,-0.06290449220240116,-0.07428663123194128,-0.08281278717531822
1772796364410783700,3.26178369140625,-0.05858662900328636,-0.08455503686591982,-0.07555986603815108
1772796364420775700,3.271775634765625,-0.04832300914227962,-0.0855520485466346,-0.09041310611120425
1772796364430768600,3.2817685546875,-0.047522214153409,-0.05662665404193103,-0.08415568968425505
1772796364440760600,3.291760498046875,-0.006635492491722106,-0.05617153068557381,-0.09700701535036786
1772796364450752800,3.301752685546875,-0.026193010398745536,-0.06440813823100179,-0.055094371007313014
1772796364460745500,3.311745361328125,0.010103460863232612,-0.08971369827073067,-0.05846629055924713
1772796364470737700,3.321737548828125,0.05034779296815395,-0.08082151289340109,-0.05576831104638986
1772796364480730600,3.331730712890625,0.08047346664071083,-0.08011062467768788,-0.0537776715187123
1772796364490722600,3.34172265625,0.07275660865306854,-0.06684457159768789,-0.02092353643006645
1772796364500714500,3.351714599609375,0.061439680346846576,-0.07472016381099819,0.010258943685889244
1772796364510707700,3.361707763671875,0.1039981346130371,-0.06794727214258164,-0.0070662714246893295
1772796364520699600,3.37169970703125,0.1341577105551958,-0.06314367125313729,-0.01861066551096737
1772796364530692600,3.381692626953125,0.15119652363955974,-0.0922731734951958,-0.05503519273255952
1772796364540684800,3.391684814453125,0.16468027459084986,-0.10187537030540406,-0.08272268860591575
1772796364550677500,3.401677490234375,0.1579956822603941,-0.10433511148244141,-0.1005214349457994
1772796364560669700,3.411669677734375,0.1499953311562538,-0.09913257440328598,-0.12427076025316491
1772796364570661600,3.42166162109375,0.15370879872143267,-0.10712722641900181,-0.1558069217781536
1772796364580654600,3.431654541015625,0.12815934692323208,-0.14394571226108818,-0.21339964437326414
1772796364590646800,3.441646728515625,0.11851064409017562,-0.1833204219246283,-0.22763076135944574
1772796364600639500,3.451639404296875,0.09050210870206356,-0.20783903283774852,-0.22086353224683553
1772796364610631700,3.461631591796875,0.036758828076720235,-0.19912158297281712,-0.23214924343088642
1772796364620623600,3.47162353515625,-0.02841711618900299,-0.17735391473565248,-0.26282560978876424
1772796364630616600,3.481616455078125,-0.13336509887278078,-0.14854027350973337,-0.27408857941804454
1772796364640608500,3.4916083984375,-0.21506664600372313,-0.14469835725929586,-0.2672742049617693
1772796364650601700,3.501601806640625,-0.2004407392799854,-0.1554823477325961,-0.24284168316321447
1772796364660593700,3.51159375,-0.14524550628066063,-0.15230353503338992,-0.24450207238979635
1772796364670585600,3.521585693359375,-0.04074935901761055,-0.15384137559253722,-0.23746556134913116
1772796364680578800,3.531578857421875,0.050797290301322934,-0.14727036317177117,-0.20134194416971876
1772796364690570500,3.541570556640625,0.07803250322937964,-0.16041618740558625,-0.16351700296513735
1772796364700563700,3.551563720703125,0.0009328969359397888,-0.18235873728562146,-0.14992734395395962
1772796364710555600,3.5615556640625,-0.06172025085389614,-0.15275054814852773,-0.1476898672254756
1772796364720547600,3.571547607421875,-0.11262041700780391,-0.13290223060138523,-0.16442777940081432
1772796364730540800,3.581540771484375,-0.1189952127367258,-0.10010587641485034,-0.1724472370642237
1772796364740532700,3.59153271484375,-0.1275479370266199,-0.09372205712925642,-0.13682609864738768
1772796364750525700,3.601525634765625,-0.1273386781901121,-0.08533504479508847,-0.12646408731266856
1772796364760517600,3.611517578125,-0.08468962303102016,-0.10250873630549757,-0.12413758059386164
1772796364770510600,3.621510498046875,-0.0643622897952795,-0.10566135511752217,-0.11861646081851794
1772796364780502500,3.63150244140625,-0.03176934922635555,-0.10610884315669536,-0.11588044171705841
1772796364790494700,3.64149462890625,0.003232406049966812,-0.13228062810432165,-0.14060179952750912
1772796364800487700,3.65148779296875,0.017594693401455877,-0.1338511653566733,-0.15264295045505277
1772796364810479600,3.661479736328125,0.0018617022186517714,-0.1507284677363932,-0.1438204601799138
1772796364820472800,3.671472900390625,-0.0017693477600812912,-0.12753931532874702,-0.1085688217957504
1772796364830464500,3.681464599609375,0.005084755918383598,-0.12941701883412896,-0.09654167199409566
1772796364840456700,3.691456787109375,0.026641923210024832,-0.1065479286937043,-0.07474682348906062
1772796364850449700,3.70144970703125,0.04675941308736801,-0.10646795879267155,-0.02909126857392257
1772796364860441600,3.711441650390625,0.05763327380120754,-0.09245083161704241,0.021700617183209394
1772796364870434800,3.721434814453125,0.11614274591505527,-0.06129296535253524,0.05985143390786834
1772796364880426800,3.7314267578125,0.14164426691830156,-0.05505845487713813,0.06426932798193302
1772796364890418700,3.741418701171875,0.19880816964209078,-0.07817008506916463,0.05836183467092924
1772796364900411600,3.75141162109375,0.23304361672103405,-0.10244104136414825,0.0463347214018926
1772796364910403800,3.76140380859375,0.22112170825898647,-0.12237754865139722,0.05121105873398483
1772796364920396500,3.771396484375,0.14366320552527903,-0.09152436442188919,0.05762944244288373
1772796364930388700,3.781388671875,-0.02069499750435352,-0.08232406294345855,0.03914162242687307
1772796364940381700,3.791381591796875,-0.1439092892408371,-0.05801978890076279,0.0473232986144023
1772796364950373600,3.80137353515625,-0.16836393153965473,-0.03990552860461175,0.04620622705086134
1772796364960365600,3.811365478515625,-0.13214695525467396,-0.051519905487447976,0.0429749535120558
1772796364970358500,3.821358642578125,-0.05971826338171959,-0.06776866417266428,0.01882964202389121
1772796364980350700,3.831350830078125,-0.017170915031433105,-0.10617504026070236,0.007628220722964033
1772796364990343700,3.84134375,-0.02203705976307392,-0.11110460561737417,-0.030258887581189626
1772796365000335600,3.851335693359375,-0.029009821385145185,-0.1423574566889554,-0.019671278196515048
1772796365010327600,3.86132763671875,-0.04558510861098766,-0.16205204497911035,-0.017134889303403907
1772796365020320800,3.87132080078125,-0.018492519024014473,-0.15990758029632268,-0.01482791383555159
1772796365030312400,3.8813125,-0.021940029129385946,-0.14105674935393034,0.02118965600336669
1772796365040305700,3.8913056640625,-0.03154138568937778,-0.13981208305507897,0.01014182924539782
1772796365050297900,3.9012978515625,-0.04819792145788669,-0.11961729015782475,-0.00022710502045229076
1772796365060290600,3.91129052734375,-0.09675357031226157,-0.11743329718224703,-0.01759200825402513
1772796365070282800,3.92128271484375,-0.12438801169097423,-0.11039273102097212,-0.04544069517161697
1772796365080274700,3.931274658203125,-0.09591302783489226,-0.10590148401632904,-0.040547982093458994
1772796365090267600,3.941267578125,-0.07224982817471028,-0.09917385626174509,-0.0214808049866464
1772796365100259600,3.951259521484375,-0.07798281886875628,-0.1016137236945331,0.025223347949259914
1772796365110252500,3.96125244140625,-0.05249883352220058,-0.10273140261285006,0.055064382294425736
1772796365120244700,3.97124462890625,-0.046507484152913094,-0.11101955768242477,0.04203342117851134
1772796365130237400,3.981237548828125,-0.019592004698514937,-0.09174275641292333,0.011054989434406162
1772796365140230100,3.991230224609375,0.03890343888998032,-0.10880312374196946,-0.06157458160577807
1772796365150222300,4.001222412109375,0.08980535860955714,-0.10748612285926937,-0.07731496607717127
1772796365160215300,4.01121533203125,0.12130407420098781,-0.1150412144139409,-0.04764818775379099
1772796365170207200,4.021207275390625,0.12891396468281746,-0.09654811086803675,-0.010176535232597962
1772796365180199400,4.031199462890625,0.14605857622921467,-0.081229399574548,0.010588006676896475
1772796365190192000,4.041192138671875,0.19670915153622626,-0.050347573772445316,-0.009741678346134722
1772796365200184300,4.051184326171875,0.21262509807050226,-0.06706416916511952,-0.016415338290622458
1772796365210177300,4.06117724609375,0.1905067897647619,-0.09295249752886593,-0.03287736983376089
1772796365220169200,4.071169189453125,0.12935410966575145,-0.09718414374925195,-0.02912774410981219
1772796365230162400,4.081162353515625,0.045746436652541154,-0.10590944812707602,-0.05844420202502515
1772796365240154400,4.091154296875,-0.006292378142476082,-0.09846534266620874,-0.04849982701390981
1772796365250146300,4.101146240234375,0.004083469921350479,-0.07618439114466309,-0.02270860691566486
1772796365260139300,4.11113916015625,0.022272622084617614,-0.06342910059839486,-0.008112026751111261
1772796365270131500,4.12113134765625,0.010537176105380058,-0.06786247993595898,0.030910663737519644
1772796365280124200,4.131124267578125,-0.017201894691586492,-0.060350058479234574,0.022837640122813172
1772796365290116400,4.141116455078125,-0.03896189107894897,-0.04012567416131496,0.02337383392532356
1772796365300108300,4.1511083984375,-0.07826806555092335,-0.04209492840766906,0.01901888098567724
1772796365310101200,4.161101318359375,-0.06884498816728592,-0.03664667293913662,0.01499065751605667
1772796365320093400,4.171093505859375,-0.10630582703351973,-0.03150806794166565,0.02075082847797312
1772796365330086100,4.181086181640625,-0.09429682480990886,-0.03983713954351842,0.045740682765189555
1772796365340078300,4.191078369140625,-0.08190729883611202,-0.02397935293726623,0.0825736811898183
1772796365350071300,4.2010712890625,-0.06837795517742633,0.0003612345278263092,0.06309187713381834
1772796365360063200,4.211063232421875,-0.04586743268370628,-0.030002339553833007,0.04392814431735314
1772796365370055200,4.22105517578125,-0.01811608692705631,-0.05823292019478976,0.022400974871753715
1772796365380048400,4.23104833984375,-0.008023731979727744,-0.055203050979599357,0.03496195298889652
1772796365390040000,4.2410400390625,-0.007954758396744728,-0.056737494005262845,0.03521518111458281
1772796365400033300,4.251033203125,0.01394727680981159,-0.10764752396605909,0.05205024950448423
1772796365410025500,4.261025390625,-0.014893617749214171,-0.05286328292042017,-0.00612993014784879
1772796365420017200,4.27101708984375,-0.0021206454157829285,-0.03866904561221599,-0.06709759651068598
1772796365430010400,4.28101025390625,0.029525369691848755,-0.08743132295459509,-0.08560337687507272
1772796365440002300,4.291002197265625,0.03756429924070835,-0.1302192020624876,-0.07753850003420375
1772796365449995300,4.300995361328125,0.009074702337384223,-0.13330204357393086,-0.06575501822873484
1772796365459987200,4.3109873046875,0.0026712650358676907,-0.13295279174484312,-0.03582169335708022
1772796365469979400,4.3209794921875,-0.005286415970325469,-0.11544906456246971,-0.06595316201618406
1772796365479972400,4.330972412109375,0.0019885434687137602,-0.118525330202654,-0.08747481503644958
1772796365489964300,4.34096435546875,0.07381050162017345,-0.13096622103750705,-0.0941686775187496
1772796365499957200,4.350957275390625,0.11416530836224555,-0.14591200736537574,-0.12201075203246436
1772796365509949200,4.36094921875,0.13456103065907954,-0.1658928652510047,-0.12473948287661187
1772796365519942400,4.3709423828125,0.14904139143228531,-0.1702569056794047,-0.1426953194743488
1772796365529934000,4.38093408203125,0.14153671489059924,-0.16683350710198283,-0.12630933514237402
1772796365539926300,4.39092626953125,0.08162263667583465,-0.18003975628614424,-0.12583266667448914
1772796365549919500,4.40091943359375,0.02782791812419891,-0.13141111526079474,-0.11846168124875985
1772796365559911200,4.4109111328125,0.0024468086302280425,-0.10112674389518797,-0.12473831383283249
1772796365569904400,4.420904296875,-0.022947160345315933,-0.0784784203659743,-0.1135454137650784
1772796365579896300,4.430896240234375,-0.01702420003712177,-0.06008373569324612,-0.09908194019459188
1772796365589888300,4.44088818359375,0.0011854103922843931,-0.04488090586438775,-0.04812321682043839
1772796365599881200,4.450881103515625,-0.009344751450419426,-0.030927345444262025,-0.01699470565622323
1772796365609873400,4.460873291015625,0.002861234650015831,-0.026306553775817153,-0.030567558521428145
1772796365619866400,4.470866455078125,-0.014423662149906157,-0.04038096409663558,-0.011443788964237318
1772796365629858300,4.4808583984375,0.013803484424948692,-0.041248906037583945,-0.026465678443841168
1772796365639850500,4.4908505859375,0.034893618726730344,-0.1043201331090182,-0.02920329128076555
1772796365649843200,4.50084326171875,0.035066637206077576,-0.10885120066739618,-0.05341861524824053
1772796365659835400,4.51083544921875,0.03284954567849636,-0.09952756507024169,-0.030919237486331255
1772796365669828000,4.520828125,0.00907528685927391,-0.08216536525040864,-0.0023239677018485963
1772796365679820300,4.5308203125,-0.031631402060389516,-0.05555003778636455,0.014164017983165102
1772796365689813200,4.540813232421875,-0.021630817049741742,-0.04677862924449146,0.04884547124695964
1772796365699805200,4.55080517578125,0.004514262554049492,-0.041972178810834884,0.04789496558909304
1772796365709797400,4.56079736328125,0.049049569851160046,-0.05987133505158126,0.04698091035094112
1772796365719790300,4.570790283203125,0.07144727962017058,-0.08771993063762784,0.04405821413754019
1772796365729782300,4.5807822265625,0.09441372918784618,-0.1078595592815429,0.0018595171114313416
1772796365739775200,4.590775146484375,0.1051747771769762,-0.10724661501497029,-0.02159718420819845
1772796365749767400,4.600767333984375,0.09762567697167396,-0.1092651882957667,-0.022495030380354726
1772796365759759000,4.610759033203125,0.12639584438204765,-0.11721585503928363,-0.0002552625358570367
1772796365769752300,4.62075244140625,0.08325754440128803,-0.10427329829260706,0.030359240399836562
1772796365779744500,4.63074462890625,0.007826163581013679,-0.0789130854561925,0.02836908949592616
1772796365789737200,4.6407373046875,-0.10400924052894114,-0.05213730673342943,-0.0033573339041555296
1772796365799729400,4.6507294921875,-0.18857494491934776,-0.011351634293422102,-0.0472216329047922
1772796365809721300,4.660721435546875,-0.24813071121573446,-0.006060907474160194,-0.09004948783004656
1772796365819714300,4.67071435546875,-0.2549608494967222,-0.039167350523173806,-0.12444588849120773
1772796365829706200,4.680706298828125,-0.1949649382174015,-0.08091916458159684,-0.08560019853729754
1772796365839699200,4.69069921875,-0.10611936455070972,-0.11395656098239124,-0.08633032117644325
1772796365849691400,4.70069140625,-0.04659808504581451,-0.1691367425430566,-0.05249306136853993
1772796365859684400,4.710684326171875,0.014743980145454406,-0.20271898641027508,-0.09067618662733584
1772796365869676300,4.72067626953125,0.036895606198906895,-0.2161208312317729,-0.1118190009644255
1772796365879668200,4.730668212890625,0.026122867771983145,-0.18289470732584595,-0.1083210575797595
1772796365889661400,4.740661376953125,0.00813245305120945,-0.18054281043745576,-0.09238006793577223
1772796365899653000,4.750653076171875,-0.005381108516454697,-0.16710435993261635,-0.09514979751058854
1772796365909646300,4.760646240234375,-0.021736615511775016,-0.137768010006845,-0.09793434106204658
1772796365919638300,4.77063818359375,-0.0038473230779170987,-0.12640256638377903,-0.08482475718539208
1772796365929630200,4.780630126953125,0.057767129313945766,-0.090638813759014,-0.03641576852640137
1772796365939623400,4.79062353515625,0.07359539756476878,-0.05683079831190407,-0.054535380851104855
1772796365949615400,4.800615478515625,0.09574527005255222,-0.0812340757496655,-0.08405439386740327
1772796365959608300,4.8106083984375,0.14171148693561553,-0.10864077278710901,-0.08315095135481096
1772796365969600300,4.820600341796875,0.1356207688450813,-0.1120640982992947,-0.0651699574829312
1772796365979592400,4.830592529296875,0.14957330635190008,-0.09673165074139833,-0.03767046302892268
1772796365989585200,4.840585205078125,0.14285948792696,-0.08522825995236635,0.0043105338426074015
1772796365999577300,4.850577392578125,0.11786591644585132,-0.09136727416403591,0.0024294510700507087
1772796366009570300,4.8605703125,0.11178221261799334,-0.0978648925550282,-0.025644509670510886
1772796366019562200,4.870562255859375,0.10187632015347481,-0.10265344200581311,-0.016783902174956164
1772796366029555200,4.88055517578125,0.11165946302115917,-0.12689458768442272,0.0025421267974423244
1772796366039547100,4.890547119140625,0.09785130242109298,-0.13675875989906489,-0.03345860835439525
1772796366049539300,4.900539306640625,0.0895154357522726,-0.16153372019343076,-0.02530128115683328
1772796366059532300,4.9105322265625,0.07032499759197235,-0.17085238735452293,-0.02039319241303019
1772796366069524200,4.920524169921875,0.039487960779666896,-0.1901117990978062,-0.061756979834823866
1772796366079517400,4.930517333984375,-0.030690906339883802,-0.18203955180123446,-0.05035834176163189
1772796366089509400,4.94050927734375,-0.10478957725167273,-0.16649031968750058,-0.020787036869092845
1772796366099501300,4.950501220703125,-0.14754852252602577,-0.1503349383741617,-0.016779239699570462
1772796366109494300,4.960494384765625,-0.129194535189867,-0.13781323738805948,0.0019544402697123588
1772796366119486200,4.970486328125,-0.1287239950686693,-0.13616386274583636,0.012250743124191648
1772796366129479200,4.980479248046875,-0.09015139556825161,-0.11992299510613083,0.06472211325073149
1772796366139470800,4.990470947265625,-0.016737784311175345,-0.11106617330312728,0.09428918949272483
1772796366149463000,5.000463134765625,0.026605682852864264,-0.11717756885550916,0.08340844238037243
1772796366159456000,5.0104560546875,0.0650116936147213,-0.1365260471217334,0.07168366849219891
1772796366169448000,5.020447998046875,0.06198153213858604,-0.14693229032382368,0.041169488692400044
1772796366179441000,5.03044091796875,0.03622925124466419,-0.11928403961546719,0.020902014151425098
1772796366189432800,5.040432861328125,0.0335012875854969,-0.06428988214619458,0.05314014993330929
1772796366199426000,5.050426025390625,0.033465047228336334,-0.022262466016784308,0.10623133702520281
1772796366209417700,5.060417724609375,0.06473638380467892,0.014707301396876572,0.13023876527948305
1772796366219410000,5.070409912109375,0.09653554364740848,0.006117167706042528,0.09861130874184891
1772796366229403100,5.080403076171875,0.09936989029049872,-0.004621741516515612,0.05522670128324535
1772796366239394800,5.090394775390625,0.08575579095780848,-0.035887232873961325,0.024640259964833967
1772796366249388000,5.100387939453125,0.06554185496866703,-0.030345673098787662,0.0030181148453149943
1772796366259380000,5.1103798828125,-0.012747253370285034,-0.04754880989938974,-0.01921563653363846
1772796366269372000,5.120371826171875,-0.05352759204804897,-0.04315853905119001,-0.048275617203442374
1772796366279364900,5.13036474609375,-0.08238660678565501,-0.056806248392537236,-0.03493482980324188
1772796366289357000,5.140357177734375,-0.07942366532683372,-0.04958689159825444,-0.017061586605175396
1772796366299349800,5.150349853515625,-0.050455344995856286,-0.024332111897692084,-0.01521627839889843
1772796366309342000,5.160342041015625,-0.01265022273659706,-0.049776715081930156,-0.02879546168183442
1772796366319335000,5.1703349609375,0.029936873102188108,-0.11421711161471902,-0.0149176973111229
1772796366329326800,5.180326904296875,0.03197451640963554,-0.1651009842209518,-0.015539982511487322
1772796366339319000,5.190319091796875,0.06335048240423202,-0.19531177889369428,-0.07389193282593041
1772796366349311700,5.200311767578125,0.06363689813017845,-0.208308111654222,-0.11850056108757853
1772796366359304000,5.210303955078125,0.056930678489804265,-0.21895612772293388,-0.1037589646954555
1772796366369297000,5.220296875,0.06258358968496322,-0.20284780042171477,-0.06777386550416704
1772796366379288800,5.230288818359375,0.0540881485402584,-0.17152108039632438,-0.05559013233473524
1772796366389280800,5.24028076171875,0.04011924442052841,-0.14843429238460956,-0.05708238931964151
1772796366399274000,5.25027392578125,-0.006208206990361213,-0.15693674779199063,-0.057280058183055364
1772796366409266000,5.260265869140625,-0.02731295433938503,-0.14354798164777458,-0.08095416282974183
1772796366419259000,5.2702587890625,-0.04473930543661117,-0.13958528856188057,-0.0654646113142604
1772796366429251000,5.2802509765625,-0.01295475864112377,-0.09797894738875329,-0.06024990887327585
1772796366439242800,5.29024267578125,0.01805821925997734,-0.08916267679184675,-0.062036796856625005
1772796366449236000,5.300236083984375,0.0263122528642416,-0.08916457648798823,-0.04396420201142318
1772796366459228000,5.310227783203125,0.028579028752446174,-0.07656279600299894,-0.03353617623578757
1772796366469220900,5.320220947265625,0.012431611549854277,-0.06491597815528512,-0.03155696685099974
1772796366479213000,5.330213134765625,-0.002688216170668602,-0.08669592135213315,-0.026061613987863528
1772796366489205800,5.340205810546875,0.016590484794974325,-0.0722061351634562,-0.03893800787986256
1772796366499198000,5.350197998046875,0.04319499860405922,-0.06991619759537279,-0.02971724585200427
1772796366509190000,5.36018994140625,0.07823182519376277,-0.08905921641737222,-0.021409507015836424
1772796366519182800,5.370182861328125,0.09854103825092315,-0.13720759964510798,-0.04739010763976257
1772796366529174800,5.3801748046875,0.1016805053204298,-0.15559534312039613,-0.06435006963452324
1772796366539168000,5.39016796875,0.06667056673765182,-0.1713875902097672,-0.07649013262558728
1772796366549160000,5.400159912109375,0.046612698093056674,-0.1743248127054423,-0.10426546204602345
1772796366559151900,5.41015185546875,-0.0013145897299051284,-0.15377536115162074,-0.12016843950087204
1772796366569145000,5.42014501953125,-0.01633972490429878,-0.15036599109955132,-0.10639448256450705
1772796366579136800,5.43013671875,-0.005644727888703346,-0.1627585127480328,-0.13119333519111387
1772796366589130000,5.4401298828125,-0.053035424616932864,-0.15777758253030477,-0.13932370588309131
1772796366599122000,5.450121826171875,-0.0815899034500122,-0.13251352354474366,-0.13497357524903492
1772796366609113900,5.46011376953125,-0.09031447717547417,-0.1283423753399402,-0.09700563624403438
1772796366619107000,5.470107177734375,-0.13205460079610348,-0.14261274662427603,-0.09863812368353828
1772796366629099000,5.48009912109375,-0.1345364807397127,-0.12472345419041812,-0.10579306433894671
1772796366639092000,5.490092041015625,-0.11900339604318141,-0.08344583351500331,-0.06555909836441277
1772796366649084000,5.500083984375,-0.07451075884401798,-0.09536343112811446,-0.040388092523743396
1772796366659076900,5.510076904296875,-0.046618543311953545,-0.10727167639099061,-0.04518551483415067
1772796366669068800,5.52006884765625,0.009461071306467056,-0.12196348795779048,-0.051606008301745165
1772796366679061000,5.53006103515625,0.0374532400816679,-0.11444653645642101,-0.04525322804180905
1772796366689054000,5.540053955078125,0.04717325458526611,-0.08640307588540017,0.008181592847494175
1772796366699046000,5.5500458984375,0.05043780933916568,-0.048261342082917685,0.056884414495551025
1772796366709038800,5.560038818359375,0.08485562724769115,-0.04310045218840241,0.0700457650920609
1772796366719030800,5.57003076171875,0.12565700871348381,-0.06695771311596035,0.03104503984006587
1772796366729023000,5.58002294921875,0.15245499926805495,-0.10023644399195909,0.0004579203849309124
1772796366739016000,5.590015869140625,0.18192074772715566,-0.11758403076454996,0.015179334788839332
1772796366749008000,5.6000078125,0.19283201784193515,-0.13802578416019678,0.03309002163717523
1772796366759001000,5.6100009765625,0.1640770480006933,-0.16249723146334288,0.045195515638357026
1772796366768993000,5.619992919921875,0.10425707781016826,-0.13786357933580876,0.03609095016896026
1772796366778986000,5.629986083984375,0.00805529616177082,-0.07546645213365555,0.018501471798738928
1772796366788978000,5.63997802734375,-0.0468120200574398,-0.058555430147424335,0.03314406479579629
1772796366798970000,5.64997021484375,-0.09878595292270183,-0.047493426450341936,0.06045801693231333
1772796366808962800,5.659962890625,-0.09680150110721587,-0.02073817905895412,0.06877076302045025
1772796366818955000,5.669955078125,-0.053418870976567265,-0.009372881566360592,0.0736423100129934
1772796366828948000,5.679947998046875,-0.0722878220975399,-0.024923648050054908,0.07231031249056104
1772796366838940000,5.68993994140625,-0.07486030293405055,-0.04404029032178223,0.02625248093444388
1772796366848931800,5.699931884765625,-0.06618950522243976,-0.05696297332420945,-0.010560421125293942
1772796366858924800,5.7099248046875,-0.08952595714628696,-0.031160496613010763,-0.014997016474895644
1772796366868917000,5.7199169921875,-0.09494739767313003,-0.007244125909358263,0.007486536955152405
1772796366878910000,5.729909912109375,-0.14071779972314835,0.0143901982717216,0.01325525084148394
1772796366888902000,5.73990185546875,-0.15696867730021477,0.047633784769102926,-0.005799223189026815
1772796366898893800,5.749893798828125,-0.1386018304824829,0.0486536293361336,0.01391655858620652
1772796366908886800,5.75988671875,-0.08571779703497887,0.009513751341775059,-0.019463231786270626
1772796366918878700,5.769878662109375,-0.00767886406481266,-0.05708499226868152,-0.09287861944190226
1772796366928872000,5.779871826171875,0.042567222094535825,-0.09363098131231963,-0.08136974876015447
1772796366938863900,5.78986376953125,0.113278588655591,-0.11175064843595027,-0.06553535216264426
1772796366948856800,5.79985693359375,0.162238726657629,-0.12468392589762806,-0.06398850631313398
1772796366958849000,5.80984912109375,0.1624877329826355,-0.14816526618488132,-0.04735636976694222
1772796366968841000,5.819841064453125,0.11760346611738204,-0.15063684393018484,-0.06441183715858496
1772796366978834000,5.829833984375,0.09704290864765644,-0.15857720847539603,-0.07753073685285634
1772796366988825900,5.839825927734375,0.1164940435707569,-0.16047105939798056,-0.09135944705060682
1772796366998818800,5.84981884765625,0.12429156557917594,-0.13802782998681068,-0.0829944547520019
1772796367008811000,5.85981103515625,0.12610299891531468,-0.16104798250310123,-0.05255454576481133
1772796367018803000,5.869802978515625,0.10679390281140803,-0.16314561236947775,-0.057953573530446736
1772796367028796000,5.8797958984375,0.07848959934711455,-0.1460460820738226,-0.045166586371394805
1772796367038787800,5.889787841796875,0.06215221253037452,-0.1167971181705594,-0.05029474760666489
1772796367048780800,5.89978076171875,0.05020049345195293,-0.09064071345515548,-0.04690853466789704
1772796367058772700,5.909772705078125,0.0628635756701231,-0.062087695926800364,-0.05675725815165788
1772796367068766000,5.919765869140625,0.042809214156866074,-0.04120126750357449,-0.060507463830919005
1772796367078758000,5.9297578125,0.05545534524023533,-0.04612820251174271,-0.04373021972561255
1772796367088749800,5.939749755859375,0.03748012808859348,-0.027197949657589194,-0.024346204355126244
1772796367098743000,5.949742919921875,-0.017046411868929863,-0.009004632775858045,-0.02559366768255131
1772796367108734700,5.959734619140625,-0.048587797558307645,-0.03098565150275826,-0.05763491320244502
1772796367118728000,5.96972802734375,-0.04423135591447353,-0.00895896700322628,-0.03979786241247784
1772796367128720000,5.979719970703125,-0.05035831436216831,0.0032824557367712257,-0.0010741114879376254
1772796367138712000,5.989712158203125,-0.026417466804385184,0.008439253978058696,0.05234872099440545
1772796367148705000,5.999705078125,0.021168460234999655,-0.025497867741435764,0.03098703060909174
1772796367158697200,6.009697265625,0.02032031897306442,-0.07054178214780986,-0.04342744195333216
1772796367168690200,6.019690185546875,0.0208528184145689,-0.09851816883198916,-0.11191471642386168
1772796367178682000,6.02968212890625,0.004016249904036521,-0.14343984509818256,-0.1631218844340183
1772796367188674300,6.03967431640625,0.004509586378931999,-0.13282748486474155,-0.1117722483464051
1772796367198667000,6.0496669921875,0.03475742512643337,-0.10307429776638746,-0.00493502412896778
1772796367208659200,6.0596591796875,0.10274433515965938,-0.07972622846998274,0.08738902731598354
1772796367218652000,6.06965185546875,0.13154080605506896,-0.02473820848055184,0.13239788867528549
1772796367228644000,6.07964404296875,0.08971475771665573,-0.053819414601475,0.1091761491722893
1772796367238637300,6.08963720703125,0.03650982175171375,-0.11548099407069384,0.07520407487042248
1772796367248629000,6.09962890625,-0.012055763974785805,-0.1678711065214127,-0.019094446422939653
1772796367258621200,6.10962109375,-0.05121113179922104,-0.19862652946487067,-0.10589956605387851
1772796367268614100,6.1196142578125,-0.05761924527585506,-0.19078999062031507,-0.12259268010626546
1772796367278606000,6.129606201171875,-0.04760229365229606,-0.11834463987350463,-0.053765789284673515
1772796367288599000,6.13959912109375,-0.06733107647299766,-0.11471629330851137,0.011865934782888507
1772796367298591200,6.14959130859375,-0.08675999956429004,-0.1326172031149268,0.1013451998183038
1772796367308583000,6.1595830078125,-0.1162070433229208,-0.10894808517061173,0.12928426843308843
1772796367318576000,6.169576171875,-0.1238876609534025,-0.04477547272853553,0.10743862132257781
1772796367328568300,6.179568359375,-0.0826660082489252,-0.03239062292985618,0.04454487884305417
1772796367338561000,6.18956103515625,0.005607903009653091,-0.051113662774115796,-0.004571296820777934
1772796367348553200,6.19955322265625,0.054902387532591815,-0.11024024387300013,-0.038260026419907806
1772796367358545200,6.209545166015625,0.04339022891521454,-0.12937303356193006,-0.056168197084171693
1772796367368538000,6.2195380859375,0.03804536075592041,-0.13143931844197212,-0.05686697930356022
1772796367378530000,6.229530029296875,0.02400046879053116,-0.11572137869782745,-0.01727706283662701
1772796367388523000,6.23952294921875,0.0033078093737363813,-0.06834047271125018,-0.015024125960818492
1772796367398515200,6.24951513671875,-0.02791384284198284,-0.03129654408283532,-0.022786887183110227
1772796367408508200,6.259508056640625,0.00757774177789688,-0.03820223181806504,-0.01901992901515914
1772796367418500000,6.2695,-0.009149521139264106,-0.05595365015119314,-0.040741646068613045
1772796367428492000,6.279491943359375,-0.00999590883553028,-0.11630860400125384,-0.10170883636577054
1772796367438485200,6.2894853515625,0.004466331759095192,-0.15228271144106983,-0.10009309913166799
1772796367448477000,6.299476806640625,0.015233224967122077,-0.16745770341493188,-0.07706171283531002
1772796367458470100,6.30947021484375,0.03294832987785339,-0.13318725808784365,-0.06405352524020709
1772796367468462300,6.31946240234375,0.04858312138319015,-0.12305990489237009,-0.0527035760137951
1772796367478454000,6.3294541015625,0.037737902241945266,-0.1246801265053451,-0.04297270675604231
1772796367488447200,6.339447265625,0.015018120911717414,-0.1309947895448655,-0.0408130582038546
1772796367498439200,6.349439208984375,0.008702946415543556,-0.13148783375881612,-0.020849665192968676
1772796367508432100,6.35943212890625,0.017882278171181678,-0.09637808806337415,0.03005523878484964
1772796367518424000,6.369424072265625,0.06505261014699935,-0.10549852923862635,0.039420946258329786
1772796367528416300,6.379416259765625,0.07783435030877589,-0.0888058992434293,0.042855195023329
1772796367538409000,6.389408935546875,0.07093757653236389,-0.11437697835154831,0.004559245052558253
1772796367548401200,6.399401123046875,0.07609305959939956,-0.11915639464780688,-0.04798600943998899
1772796367558394000,6.40939404296875,0.06680909842550754,-0.14303075284063815,-0.07979947636928408
1772796367568386000,6.419385986328125,0.06851122616827487,-0.13153079611770807,-0.09197574318489059
1772796367578379300,6.429379150390625,0.0895282952338457,-0.11452778499908745,-0.0876001127833966
1772796367588371000,6.439370849609375,0.06849485955536365,-0.10890271165892482,-0.05979778575818054
1772796367598363100,6.449363037109375,0.03874912511110305,-0.0726591396279633,-0.021211815319536254
1772796367608356000,6.459356201171875,-0.013626374292373657,-0.045100466899201275,-0.03661258572315564
1772796367618348000,6.46934814453125,-0.04433481628894806,-0.037594986639916894,-0.08330059809172526
1772796367628341200,6.47934130859375,-0.05438508566021919,-0.030685718708112833,-0.10109166344865225
1772796367638333200,6.489333251953125,-0.07199906828403473,-0.05172521880120039,-0.11005111450906842
1772796367648325000,6.4993251953125,-0.03970832553207874,-0.0295358180206269,-0.09798155947094783
1772796367658318000,6.509318115234375,-0.03579495148062706,-0.05333652645535767,-0.045863181200274265
1772796367668310300,6.519310302734375,-0.05000701670646667,-0.07572897552736103,-0.05478513152820524
1772796367678303000,6.529302978515625,-0.11952712765634059,-0.08730733124874532,-0.06378957250781822
1772796367688295200,6.539295166015625,-0.1356353818923235,-0.08606186123229563,-0.06804084131070412
1772796367698287000,6.549287109375,-0.08678630304932594,-0.06634264995753765,-0.04578003296146635
1772796367708280000,6.559280029296875,-0.04133212734162807,-0.0629000352229923,-0.03135977976148715
1772796367718272300,6.569272216796875,0.03234861041903496,-0.10106573442295193,-0.03952614193216432
1772796367728265000,6.579264892578125,0.04242342970967292,-0.1407546246021986,-0.035701409711968154
1772796367738257200,6.589257080078125,0.05535539199709892,-0.14157595092244446,-0.043018824619823134
1772796367748250000,6.59925,0.030021044254302978,-0.13295096511393784,-0.059096277292165905
1772796367758242000,6.609241943359375,0.035600305691361425,-0.10712328089624643,-0.05799186428079847
1772796367768234000,6.61923388671875,-0.011390578064322471,-0.0817971164599061,-0.053189304570970125
1772796367778227200,6.629227294921875,-0.18035422906279563,-0.00010667524486780166,-0.08605376012423076
1772796367788219100,6.63921923828125,-0.28797698391377924,0.04676730413287878,-0.08934225287614389
1772796367798212000,6.649212158203125,-0.30320027200877664,0.022951032802835107,-0.05384977777369786
1772796367808204300,6.659204345703125,-0.1923936264246702,-0.000825417973473668,-0.10805514578572474
1772796367818196000,6.669196044921875,-0.023394904112815855,-0.051382542843371626,-0.0391879366534762
1772796367828189200,6.679189208984375,0.1699719512581825,-0.1360924049448222,-0.004728375662188046
1772796367838181000,6.68918115234375,0.308591317397356,-0.1607043566972017,0.008495144317182712
1772796367848174000,6.699174072265625,0.3790834882497787,-0.18460881776735186,-0.025785813270765356
1772796367858166300,6.709166259765625,0.40095863544940946,-0.18033713179752228,-0.07300505785564891
1772796367868159000,6.719158935546875,0.3619143267840147,-0.2044048206053674,-0.13921417196085675
1772796367878151200,6.729151123046875,0.33070728761553764,-0.24732399794273077,-0.18135478440746663
1772796367888143000,6.73914306640625,0.27316695279479025,-0.2191177480254322,-0.1636517352607101
1772796367898136000,6.749135986328125,0.1983282771706581,-0.15237177796401083,-0.13287732448899187
1772796367908128000,6.7591279296875,0.032818566018342966,-0.1127364446029067,-0.09227415987588465
1772796367918121200,6.769121337890625,-0.16463351283967495,-0.16426526404917238,-0.0733992082723882
