time,seconds_elapsed,z,y,x
1772796361213211600,0.064211669921875,0.23418691754341125,0.2027004361152649,-0.1650858074426651
1772796361223203800,0.074203857421875,0.15966595709323883,0.180214986205101,-0.0625009760260582
1772796361233197000,0.084197021484375,0.0738740935921669,0.1039857342839241,0.01471445057541132
1772796361243188700,0.094188720703125,0.00585967767983675,-0.07782386243343353,0.06707308441400528
1772796361253180700,0.1041806640625,-0.027127832174301147,-0.3195329010486603,0.11822362244129181
1772796361263174000,0.114173828125,-0.022141845896840096,-0.5281283855438232,0.17356617748737335
1772796361273165800,0.124165771484375,0.003106518415734172,-0.6515405774116516,0.22109641134738922
1772796361283158800,0.13415869140625,0.020480234175920486,-0.6803929209709167,0.2647404670715332
1772796361293151000,0.14415087890625,0.03944726660847664,-0.5984535813331604,0.30418720841407776
1772796361303144000,0.15414404296875,0.05896364524960518,-0.46044501662254333,0.33766141533851624
1772796361313135900,0.164135986328125,0.09205687791109085,-0.32564085721969604,0.37428122758865356
1772796361323127800,0.1741279296875,0.12359451502561569,-0.2103695422410965,0.39648815989494324
1772796361333120800,0.184120849609375,0.15404082834720612,-0.10425801575183868,0.39921632409095764
1772796361343113000,0.194113037109375,0.18818137049674988,-0.014153745025396347,0.39130571484565735
1772796361353105700,0.204105712890625,0.2293573021888733,0.033219628036022186,0.3816656172275543
1772796361363097900,0.214097900390625,0.2578677535057068,0.007883761078119278,0.3748805522918701
1772796361373089800,0.22408984375,0.2802417576313019,-0.06895828992128372,0.36009281873703003
1772796361383082800,0.234082763671875,0.2614533305168152,-0.18149273097515106,0.34103941917419434
1772796361393074700,0.24407470703125,0.19480852782726288,-0.3156704902648926,0.32834571599960327
1772796361403068000,0.25406787109375,0.12102168053388596,-0.41565948724746704,0.3290185034275055
1772796361413059800,0.264059814453125,0.04593971371650696,-0.47261568903923035,0.3207051753997803
1772796361423051800,0.2740517578125,-0.021979639306664467,-0.518561065196991,0.30693313479423523
1772796361433045000,0.284044921875,-0.0986882671713829,-0.5445237159729004,0.2389088273048401
1772796361443036700,0.29403662109375,-0.17659467458724976,-0.5848391652107239,0.1280755251646042
1772796361453030000,0.30402978515625,-0.21622571349143982,-0.5949557423591614,0.00942210666835308
1772796361463021800,0.314021728515625,-0.21933913230895996,-0.4935913383960724,-0.11154476553201675
1772796361473014800,0.324014892578125,-0.20271143317222595,-0.3170461356639862,-0.2330610752105713
1772796361483007000,0.334007080078125,-0.1803746521472931,-0.13742972910404205,-0.36213943362236023
1772796361492999000,0.3439990234375,-0.1697949767112732,-0.005422960501164198,-0.46541255712509155
1772796361502992000,0.353991943359375,-0.17499542236328125,0.0987371951341629,-0.5277315378189087
1772796361512983800,0.36398388671875,-0.19086652994155884,0.17336110770702362,-0.5461305379867554
1772796361522976800,0.373976806640625,-0.20475123822689056,0.19612273573875427,-0.5426006317138672
1772796361532968700,0.38396875,-0.21189597249031067,0.1778169572353363,-0.5199515223503113
1772796361542961000,0.3939609375,-0.2181198000907898,0.15723346173763275,-0.4785974621772766
1772796361552953900,0.403953857421875,-0.2277418076992035,0.15631599724292755,-0.429741770029068
1772796361562945800,0.41394580078125,-0.23298335075378418,0.16144056618213654,-0.39296039938926697
1772796361572939000,0.42393896484375,-0.23567819595336914,0.1641029268503189,-0.3754812777042389
1772796361582930700,0.4339306640625,-0.23503053188323975,0.15163066983222961,-0.36668074131011963
1772796361592923000,0.4439228515625,-0.22927384078502655,0.14162996411323547,-0.3394262194633484
1772796361602915800,0.453915771484375,-0.2093764841556549,0.13972246646881104,-0.3058933913707733
1772796361612907800,0.46390771484375,-0.1758882999420166,0.1472293883562088,-0.28431272506713867
1772796361622901000,0.47390087890625,-0.12731774151325226,0.17910876870155334,-0.2624679505825043
1772796361632893000,0.483892822265625,-0.08347759395837784,0.20979371666908264,-0.2543801963329315
1772796361642886000,0.493885986328125,-0.03932911902666092,0.20646367967128754,-0.2395806908607483
1772796361652877800,0.5038779296875,0.006576854735612869,0.20282739400863647,-0.22527658939361572
1772796361662870000,0.5138701171875,0.04843098297715187,0.18380501866340637,-0.2028834968805313
1772796361672862700,0.52386279296875,0.07740271836519241,0.17392869293689728,-0.16167373955249786
1772796361682855000,0.53385498046875,0.08578924089670181,0.1804177612066269,-0.10290147364139557
1772796361692847900,0.543847900390625,0.0873410701751709,0.21563220024108887,-0.04304399713873863
1772796361702839800,0.55383984375,0.08121780306100845,0.2489354908466339,0.0008036828367039561
1772796361712832000,0.56383203125,0.0760486051440239,0.27214282751083374,0.01567157916724682
1772796361722824700,0.57382470703125,0.06993644684553146,0.2801431119441986,0.010299806483089924
1772796361732817000,0.58381689453125,0.06626394391059875,0.2702428102493286,-0.004557703156024218
1772796361742809900,0.593809814453125,0.06346757709980011,0.24129892885684967,-0.026543866842985153
1772796361752801800,0.6038017578125,0.061856627464294434,0.19609789550304413,-0.05192006379365921
1772796361762793700,0.613793701171875,0.0646587610244751,0.1396225541830063,-0.07971591502428055
1772796361772787000,0.623786865234375,0.07191267609596252,0.07017264515161514,-0.10633794218301773
1772796361782779000,0.63377880859375,0.07875716686248779,0.01676762104034424,-0.1289118379354477
1772796361792771800,0.643771728515625,0.0831868052482605,-0.026563873514533043,-0.15725134313106537
1772796361802764000,0.653763916015625,0.08135973662137985,-0.07105165719985962,-0.18183238804340363
1772796361812756700,0.6637568359375,0.07672902941703796,-0.10728449374437332,-0.19821429252624512
1772796361822749000,0.6737490234375,0.06917572021484375,-0.12809744477272034,-0.21675671637058258
1772796361832740900,0.683740966796875,0.06445899605751038,-0.12785537540912628,-0.2262391597032547
1772796361842733800,0.69373388671875,0.0668603926897049,-0.12876549363136292,-0.2353779524564743
1772796361852725800,0.703725830078125,0.0763055607676506,-0.1348540186882019,-0.23076482117176056
1772796361862718700,0.71371875,0.08477569371461868,-0.1378016322851181,-0.21439169347286224
1772796361872711000,0.7237109375,0.09845848381519318,-0.1417657434940338,-0.18528947234153748
1772796361882702800,0.733702880859375,0.11988993734121323,-0.15689992904663086,-0.14839087426662445
1772796361892695800,0.74369580078125,0.14362190663814545,-0.17169484496116638,-0.11202673614025116
1772796361902687700,0.753687744140625,0.168544739484787,-0.17418944835662842,-0.07054155319929123
1772796361912681000,0.763680908203125,0.18805772066116333,-0.1854144036769867,-0.02748090773820877
1772796361922672600,0.773672607421875,0.20621031522750854,-0.18629120290279388,0.02181030437350273
1772796361932664800,0.783664794921875,0.21495534479618073,-0.1667151153087616,0.0736687034368515
1772796361942658000,0.793657958984375,0.21586820483207703,-0.13953591883182526,0.10781386494636536
1772796361952649700,0.803649658203125,0.20548346638679504,-0.1250632405281067,0.11000964045524597
1772796361962643000,0.813642822265625,0.19394837319850922,-0.11941782385110855,0.09048621356487274
1772796361972635000,0.823634765625,0.18095214664936066,-0.10899926722049713,0.06018982082605362
1772796361982627800,0.8336279296875,0.17292997241020203,-0.09808517247438431,0.04217764735221863
1772796361992619800,0.843619873046875,0.16818314790725708,-0.08981765061616898,0.032657112926244736
1772796362002612000,0.853612060546875,0.1730387955904007,-0.09426557272672653,0.03320884332060814
1772796362012605000,0.86360498046875,0.18094411492347717,-0.0926855131983757,0.03567972406744957
1772796362022596900,0.873596923828125,0.1805984079837799,-0.08681484311819077,0.040282394737005234
1772796362032589800,0.88358984375,0.1860232651233673,-0.08517060428857803,0.04093114286661148
1772796362042581800,0.893581787109375,0.18406599760055542,-0.08320988714694977,0.04398278146982193
1772796362052574000,0.903573974609375,0.17861159145832062,-0.07321478426456451,0.04434577003121376
1772796362062566700,0.913566650390625,0.17205123603343964,-0.05340084061026573,0.04619395360350609
1772796362072558800,0.923558837890625,0.1607288122177124,-0.04010447859764099,0.04179174825549126
1772796362082552000,0.933552001953125,0.15604925155639648,-0.03340562433004379,0.030027298256754875
1772796362092543700,0.943543701171875,0.155561625957489,-0.023049388080835342,0.02001221477985382
1772796362102537000,0.953536865234375,0.1601850390434265,-0.010448279790580273,0.012780856341123581
1772796362112529000,0.96352880859375,0.16400134563446045,0.0018288930878043175,0.0020784109365195036
1772796362122520800,0.973520751953125,0.1642623096704483,0.009772948920726776,-0.011329666711390018
1772796362132514000,0.98351416015625,0.16818220913410187,0.011100269854068756,-0.03362378478050232
1772796362142506200,0.99350634765625,0.17585355043411255,0.003800984937697649,-0.04642153158783913
1772796362152499200,1.003499267578125,0.18218813836574554,-0.006512639578431845,-0.04728732258081436
1772796362162491100,1.0134912109375,0.1722555011510849,-0.009496236220002174,-0.03021533228456974
1772796362172483300,1.0234833984375,0.1665520817041397,0.0003566606901586056,-0.005299597047269344
1772796362182476000,1.03347607421875,0.1737961322069168,0.01639975979924202,0.022427188232541084
1772796362192468200,1.04346826171875,0.17706595361232758,0.029202640056610107,0.043376676738262177
1772796362202461000,1.0534609375,0.17961879074573517,0.027085354551672935,0.0550948828458786
1772796362212453000,1.063453125,0.18483272194862366,0.01946312189102173,0.055829647928476334
1772796362222445000,1.073445068359375,0.1922319233417511,-0.002121107652783394,0.05526173859834671
1772796362232438000,1.08343798828125,0.19740164279937744,-0.016501378268003464,0.05321536585688591
1772796362242430200,1.09343017578125,0.20037227869033813,-0.021356910467147827,0.05970795080065727
1772796362252423200,1.103423095703125,0.19677673280239105,-0.022911928594112396,0.06565079092979431
1772796362262415000,1.1134150390625,0.1899762898683548,-0.02815322019159794,0.0685279592871666
1772796362272408000,1.123407958984375,0.1802578866481781,-0.03738187253475189,0.068656325340271
1772796362282400300,1.133400146484375,0.17106932401657104,-0.041699230670928955,0.06667134910821915
1772796362292392000,1.143391845703125,0.15724271535873413,-0.04412323981523514,0.06775259226560593
1772796362302385200,1.15338525390625,0.1456165313720703,-0.048489853739738464,0.06333208829164505
1772796362312377000,1.163377197265625,0.12620341777801514,-0.048360422253608704,0.06781844794750214
1772796362322370000,1.1733701171875,0.10324142873287201,-0.04497327283024788,0.07004787027835846
1772796362332362200,1.1833623046875,0.08380381762981415,-0.03645462170243263,0.0718284547328949
1772796362342354200,1.193354248046875,0.06531162559986115,-0.0320257842540741,0.07115387916564941
1772796362352347100,1.20334716796875,0.05209645256400108,-0.03051309660077095,0.07434838265180588
1772796362362339000,1.213339111328125,0.03619346767663956,-0.02613244205713272,0.06833597272634506
1772796362372332000,1.22333203125,0.018539370968937874,-0.01903538405895233,0.055595945566892624
1772796362382324200,1.23332421875,-0.0007574619958177209,-0.007219111546874046,0.045651625841856
1772796362392316200,1.243316162109375,-0.019000114873051643,0.020757395774126053,0.04279645159840584
1772796362402309000,1.25330908203125,-0.03250233456492424,0.04617758467793465,0.045211855322122574
1772796362412301000,1.263301025390625,-0.03498786315321922,0.0527353510260582,0.04267146810889244
1772796362422294000,1.2732939453125,-0.027403375133872032,0.04667450487613678,0.03500133007764816
1772796362432286000,1.283285888671875,-0.014941379427909851,0.0354282408952713,0.02217021957039833
1772796362442279200,1.293279052734375,0.00023369444534182549,0.018009573221206665,0.009648052975535393
1772796362452271000,1.30327099609375,0.011334282346069813,0.008340967819094658,0.00452013686299324
1772796362462263000,1.313262939453125,0.02108871564269066,0.0054056039080023766,0.0028058914467692375
1772796362472256300,1.32325634765625,0.030517105013132095,0.0033272728323936462,0.004217100795358419
1772796362482248200,1.333248291015625,0.03621268272399902,0.0029551717452704906,0.001327367965131998
1772796362492241200,1.3432412109375,0.03767502307891846,-0.00036126235499978065,-0.01449899934232235
1772796362502233000,1.353233154296875,0.03254032880067825,0.004306935239583254,-0.03284012898802757
1772796362512225000,1.36322509765625,0.03204711154103279,-0.0021621487103402615,-0.05730392411351204
1772796362522218200,1.37321826171875,0.0363909937441349,-0.006411754991859198,-0.08066117763519287
1772796362532210200,1.383210205078125,0.046938441693782806,-0.006919087376445532,-0.09570857137441635
1772796362542203100,1.393203125,0.05496826022863388,-0.00822504423558712,-0.10380837321281433
1772796362552195000,1.403195068359375,0.06289330124855042,-0.007049258798360825,-0.09951668977737427
1772796362562188000,1.41318798828125,0.07693667709827423,-0.000565527006983757,-0.07454502582550049
1772796362572180000,1.423179931640625,0.0910346582531929,0.007116094697266817,-0.04632510617375374
1772796362582172200,1.433172119140625,0.10834845155477524,0.0010468368418514729,-0.013765660114586353
1772796362592165000,1.4431650390625,0.12564779818058014,0.0012372522614896297,0.008774003945291042
1772796362602157000,1.453156982421875,0.14607270061969757,0.0018354854546487331,0.03004218079149723
1772796362612150300,1.463150390625,0.1578577309846878,-0.002515853848308325,0.042288992553949356
1772796362622142000,1.473141845703125,0.15914233028888702,-0.007432754151523113,0.048651471734046936
1772796362632134100,1.483134033203125,0.15854419767856598,-0.015166306868195534,0.05434957146644592
1772796362642127000,1.493127197265625,0.1529993861913681,-0.04276231676340103,0.05367875099182129
1772796362652119000,1.503119140625,0.14128680527210236,-0.06472088396549225,0.05670863017439842
1772796362662112000,1.513112060546875,0.1284138411283493,-0.08851103484630585,0.0632210373878479
1772796362672104200,1.523104248046875,0.11342556774616241,-0.10975560545921326,0.07113195210695267
1772796362682096000,1.53309619140625,0.09881411492824554,-0.11731008440256119,0.08372565358877182
1772796362692089000,1.543089111328125,0.09024938941001892,-0.1131100133061409,0.09241607785224915
1772796362702081300,1.553081298828125,0.07996835559606552,-0.10641970485448837,0.08987389504909515
1772796362712074000,1.563073974609375,0.06856203824281693,-0.09657000750303268,0.07850353419780731
1772796362722066200,1.573066162109375,0.05509130656719208,-0.06851603090763092,0.06303486227989197
1772796362732059000,1.583058837890625,0.03378841653466225,-0.037554118782281876,0.04550886154174805
1772796362742051000,1.593051025390625,0.01580311730504036,-0.011131713166832924,0.02565462328493595
1772796362752043000,1.60304296875,-0.003129294840618968,0.00857195071876049,0.008714786730706692
1772796362762036000,1.613035888671875,-0.011134002357721329,0.010868093930184841,-0.0051315054297447205
1772796362772028200,1.623028076171875,-0.015038728713989258,-0.011569837108254433,-0.012418447062373161
1772796362782021000,1.633021240234375,-0.016190113499760628,-0.0347304567694664,-0.013701901771128178
1772796362792013000,1.643012939453125,-0.01638612151145935,-0.045006267726421356,-0.012231037952005863
1772796362802005000,1.6530048828125,-0.01940120942890644,-0.05112040787935257,-0.016310138627886772
1772796362811998200,1.662998291015625,-0.02005075477063656,-0.048628222197294235,-0.024797897785902023
1772796362821990000,1.672989990234375,-0.016735363751649857,-0.038738954812288284,-0.03476491943001747
1772796362831983000,1.682983154296875,-0.014376867562532425,-0.028198428452014923,-0.045501988381147385
1772796362841975300,1.692975341796875,-0.012161262333393097,-0.023027578368782997,-0.058786697685718536
1772796362851967000,1.702967041015625,-0.014241723343729973,-0.01919741928577423,-0.0688965916633606
1772796362861960200,1.712960205078125,-0.016651257872581482,-0.02910825051367283,-0.06490594893693924
1772796362871952100,1.7229521484375,-0.023874551057815552,-0.036786410957574844,-0.052957676351070404
1772796362881945000,1.732945068359375,-0.02642757073044777,-0.0330611877143383,-0.030337603762745857
1772796362891937000,1.74293701171875,-0.02998901531100273,-0.022891907021403313,-0.00750339450314641
1772796362901930000,1.752929931640625,-0.028984112665057182,-0.01312650740146637,0.007476511877030134
1772796362911922200,1.762922119140625,-0.023636218160390854,-0.009805012494325638,0.00807226076722145
1772796362921914000,1.7729140625,-0.01329448726028204,0.00013091787695884705,0.0015212142607197165
1772796362931907000,1.782906982421875,-0.0075114332139492035,0.0006640828214585781,0.0057822722010314465
1772796362941899000,1.79289892578125,-0.0048650214448571205,0.004708560649305582,0.010477470234036446
1772796362951892200,1.802892333984375,-0.0016841415781527758,0.0012760129757225513,0.028759006410837173
1772796362961884000,1.8128837890625,0.002830593381077051,0.0025705178268253803,0.04681636393070221
1772796362971876000,1.8228759765625,0.0070546334609389305,0.004523147363215685,0.0592874139547348
1772796362981869300,1.832869384765625,0.007032355293631554,0.010960661806166172,0.06338191777467728
1772796362991861000,1.842861083984375,0.004257874563336372,0.00625485647469759,0.05924683064222336
1772796363001854200,1.852854248046875,-0.002571924589574337,0.0020339563488960266,0.04676199331879616
1772796363011846100,1.86284619140625,-0.0009724299889057875,0.006116049364209175,0.037911511957645416
1772796363021838000,1.872838134765625,0.00040050875395536423,0.012351861223578453,0.02956298179924488
1772796363031831000,1.8828310546875,0.007976403459906578,0.014948444440960884,0.02341321110725403
1772796363041823200,1.8928232421875,0.013279584236443043,0.00399693101644516,0.01631460152566433
1772796363051816200,1.902816162109375,0.007249387912452221,-0.006302045192569494,0.00762417446821928
1772796363061808000,1.91280810546875,0.00338109047152102,-0.009091846644878387,-0.004412872716784477
1772796363071801000,1.922801025390625,-0.004661123268306255,-0.011947819963097572,-0.01658724620938301
1772796363081793000,1.93279296875,-0.008753236383199692,-0.014912011101841927,-0.019799474626779556
1772796363091785200,1.94278515625,-0.012118939310312271,-0.012751655653119087,-0.02007191628217697
1772796363101778000,1.95277783203125,-0.01032198965549469,-0.0054287537932395935,-0.006274593994021416
1772796363111770000,1.96277001953125,-0.011542782187461853,0.004183925688266754,0.00829209852963686
1772796363121763300,1.972763427734375,-0.00970297772437334,0.02156011201441288,0.015788257122039795
1772796363131754800,1.982754638671875,-0.009113087318837643,0.03762643039226532,0.012966371141374111
1772796363141746700,1.99274658203125,-0.008746391162276268,0.03616419807076454,0.0003324743593111634
1772796363151740000,2.002739990234375,-0.004253372550010681,0.028844503685832024,-0.011800887994468212
1772796363161731800,2.01273193359375,0.004166801460087299,0.020414136350154877,-0.017712749540805817
1772796363171724800,2.022724853515625,0.013299579732120037,0.019734498113393784,-0.016070643439888954
1772796363181717000,2.032717041015625,0.01448703370988369,0.02171926386654377,-0.008900254033505917
1772796363191709000,2.042708984375,0.009408119134604931,0.022102760151028633,-0.0030825785361230373
1772796363201702000,2.052701904296875,0.0028047384694218636,0.020013805478811264,-0.006786268204450607
1772796363211693800,2.06269384765625,0.0007069667335599661,0.01589096523821354,-0.012403407134115696
1772796363221686800,2.072686767578125,0.002635037526488304,0.0029057906940579414,-0.016064811497926712
1772796363231679000,2.082678955078125,0.005141604691743851,-0.00297899660654366,-0.01646641455590725
1772796363241671700,2.092671630859375,0.008313112892210484,0.0022295289672911167,-0.01229607593268156
1772796363251664000,2.102663818359375,0.012065506540238857,0.015555188059806824,-0.005079708993434906
1772796363261655800,2.11265576171875,0.009236272424459457,0.018081681802868843,-0.008353538811206818
1772796363271648800,2.122648681640625,-0.0013426020741462708,0.008845306932926178,-0.013397831469774246
1772796363281640700,2.132640625,-0.004074300639331341,0.0000764625146985054,-0.008945981971919537
1772796363291634000,2.142634033203125,-0.000938428333029151,0.004859500098973513,-0.008473803289234638
1772796363301625900,2.1526259765625,-0.0026492064353078604,0.004736446775496006,-0.008028989657759666
1772796363311617800,2.16261767578125,-0.003998097497969866,0.0013835271820425987,-0.007883047685027122
1772796363321611000,2.172611083984375,-0.010055688209831715,0.0021457094699144363,-0.014657898806035519
1772796363331602700,2.182602783203125,-0.009682313539087772,-0.0019955062307417393,-0.01475883275270462
1772796363341596000,2.192595947265625,-0.012494135648012161,0.0010004113428294659,-0.0071097929030656815
1772796363351587800,2.202587890625,-0.010987319052219391,-0.003204186912626028,0.004751926753669977
1772796363361579800,2.212579833984375,-0.010911181569099426,-0.0035173059441149235,0.015525435097515583
1772796363371573000,2.222572998046875,-0.008389967493712902,-0.0070044491440057755,0.018253842368721962
1772796363381565000,2.23256494140625,-0.009659365750849247,-0.004324672743678093,0.011895399540662766
1772796363391558000,2.242557861328125,-0.009861765429377556,-0.006122040096670389,-0.005157352425158024
1772796363401549800,2.2525498046875,-0.01371025014668703,-0.009248504415154457,-0.014096880331635475
1772796363411542800,2.262542724609375,-0.01496859360486269,-0.008760613389313221,-0.017152324318885803
1772796363421534700,2.27253466796875,-0.01675419881939888,-0.01071507204324007,-0.012101653963327408
1772796363431527000,2.28252685546875,-0.012448933906853199,-0.008701189421117306,-0.004839479457587004
1772796363441519900,2.292519775390625,-0.010498134419322014,-0.0030052296351641417,0.0012119878083467484
1772796363451511800,2.30251171875,-0.011656608432531357,-0.0035442535299807787,-0.0006410396308638155
1772796363461505000,2.312505126953125,-0.013018338941037655,-0.01094026118516922,-0.00217458070255816
1772796363471496700,2.32249658203125,-0.015618649311363697,-0.00714818574488163,-0.0003545765648595989
1772796363481489000,2.332489013671875,-0.016829732805490494,0.0006245747208595276,-0.004256170708686113
1772796363491481900,2.34248193359375,-0.018028154969215393,0.01014510914683342,-0.007112677209079266
1772796363501473800,2.352473876953125,-0.022363372147083282,0.01161937601864338,-0.005738689564168453
1772796363511466800,2.362466796875,-0.023873917758464813,0.013213012367486954,-0.005331758409738541
1772796363521459000,2.372458984375,-0.018470630049705505,0.009648105129599571,-0.001128491247072816
1772796363531450600,2.38245068359375,-0.017642386257648468,-0.004944685846567154,0.0036010167095810175
1772796363541443800,2.39244384765625,-0.017608901485800743,-0.010041946545243263,0.008549937047064304
1772796363551436000,2.40243603515625,-0.02000068686902523,-0.0166937243193388,0.003956783562898636
1772796363561428700,2.4124287109375,-0.024667054414749146,-0.003293345682322979,0.00398034555837512
1772796363571421000,2.4224208984375,-0.020832369104027748,0.010944446548819542,0.006656023673713207
1772796363581413600,2.43241357421875,-0.018398450687527657,0.02511207014322281,0.007370907813310623
1772796363591405800,2.44240576171875,-0.019578497856855392,0.026225272566080093,0.00557886715978384
1772796363601397800,2.452397705078125,-0.021725133061408997,0.011886434629559517,-0.0025771877262741327
1772796363611390700,2.462390625,-0.025027720257639885,-0.005038220435380936,-0.011889196932315826
1772796363621383000,2.4723828125,-0.032008297741413116,-0.0254538394510746,-0.023914624005556107
1772796363631376000,2.4823759765625,-0.03406798839569092,-0.04244614019989967,-0.027856901288032532
1772796363641367800,2.492367919921875,-0.03631272166967392,-0.04365065321326256,-0.02871738001704216
1772796363651359700,2.50235986328125,-0.03304155915975571,-0.042118001729249954,-0.023702118545770645
1772796363661353000,2.51235302734375,-0.028169112280011177,-0.03762788325548172,-0.02820049226284027
1772796363671344600,2.5223447265625,-0.021794835105538368,-0.032232850790023804,-0.03030545450747013
1772796363681337900,2.532337890625,-0.017076091840863228,-0.015164867043495178,-0.024729957804083824
1772796363691330000,2.542330078125,-0.014284033328294754,0.004372348077595234,-0.02404472790658474
1772796363701321700,2.55232177734375,-0.01909162662923336,0.0134650357067585,-0.02283414639532566
1772796363711315000,2.56231494140625,-0.023629918694496155,0.011899363249540329,-0.023446939885616302
1772796363721307000,2.572306884765625,-0.02566472813487053,-0.00733451172709465,-0.022226927801966667
1772796363731299800,2.5822998046875,-0.021305931732058525,-0.02622164972126484,-0.031220953911542892
1772796363741291800,2.592291748046875,-0.015370975248515606,-0.030825285241007805,-0.03138386458158493
1772796363751284700,2.60228466796875,-0.01615048199892044,-0.031308650970458984,-0.026355283334851265
1772796363761277000,2.61227685546875,-0.01832393743097782,-0.028621871024370193,-0.022214772179722786
1772796363771268900,2.622268798828125,-0.013230643235147,-0.022927233949303627,-0.01784425787627697
1772796363781261800,2.63226171875,-0.012371385470032692,-0.01534222811460495,-0.01908029429614544
1772796363791253800,2.642253662109375,-0.005233847536146641,-0.013506511226296425,-0.020621199160814285
1772796363801247000,2.6522470703125,-0.0036635249853134155,-0.013922971673309803,-0.021035384386777878
1772796363811238700,2.66223876953125,-0.004240365698933601,-0.01833396591246128,-0.023777108639478683
1772796363821230800,2.67223095703125,-0.009051590226590633,-0.024415256455540657,-0.01663718745112419
1772796363831224000,2.68222412109375,-0.013412781991064548,-0.03700029104948044,-0.005277474410831928
1772796363841215700,2.6922158203125,-0.014981405809521675,-0.04648742079734802,0.009302939288318157
1772796363851209000,2.702208984375,-0.012076162733137608,-0.04929972067475319,0.026535723358392715
1772796363861201000,2.712200927734375,-0.007632484659552574,-0.028334489092230797,0.03618991747498512
1772796363871192800,2.72219287109375,-0.0003404831513762474,-0.011642327532172203,0.03676515817642212
1772796363881185800,2.732185791015625,0.004225189797580242,-0.003600465366616845,0.027822624891996384
1772796363891178000,2.742177978515625,0.008378922939300537,0.010098302736878395,0.024824971333146095
1772796363901171000,2.7521708984375,0.010248237289488316,0.011451229453086853,0.025231890380382538
1772796363911163000,2.762162841796875,0.012591286562383175,0.00013785436749458313,0.02356821298599243
1772796363921155800,2.77215576171875,0.017003187909722328,0.0026358519680798054,0.01902671903371811
1772796363931147800,2.782147705078125,0.020896196365356445,0.011298049241304398,0.0009009778732433915
1772796363941140000,2.792139892578125,0.028595704585313797,0.013043520040810108,-0.022773470729589462
1772796363951132700,2.802132568359375,0.03426211327314377,0.00872014556080103,-0.04625296592712402
1772796363961124900,2.812124755859375,0.03851162642240524,-0.007909287698566914,-0.06704894453287125
1772796363971118000,2.8221181640625,0.03976704180240631,-0.02644302323460579,-0.08248250186443329
1772796363981109800,2.83210986328125,0.03976456820964813,-0.040252018719911575,-0.08776438236236572
1772796363991101700,2.842101806640625,0.03778664022684097,-0.04280012845993042,-0.08624771237373352
1772796364001095000,2.852094970703125,0.04047860950231552,-0.031492844223976135,-0.06687136739492416
1772796364011086800,2.8620869140625,0.04116516932845116,-0.03224705159664154,-0.05505651235580444
1772796364021079800,2.872079833984375,0.04955609142780304,-0.05714210867881775,-0.052902739495038986
1772796364031072000,2.882072021484375,0.06157573685050011,-0.08135716617107391,-0.05816434696316719
1772796364041063700,2.892063720703125,0.07555548846721649,-0.09367839992046356,-0.0647725835442543
1772796364051057000,2.902056884765625,0.09705918282270432,-0.10336378216743469,-0.06547673046588898
1772796364061048800,2.912048828125,0.10852313041687012,-0.10764064639806747,-0.06854274868965149
1772796364071041800,2.922041748046875,0.10859290510416031,-0.09821359068155289,-0.06395359337329865
1772796364081034000,2.932033935546875,0.1071724146604538,-0.07800096273422241,-0.05225992947816849
1772796364091026700,2.942026611328125,0.10041917115449905,-0.042677853256464005,-0.025462135672569275
1772796364101019000,2.952018798828125,0.10414813458919525,-0.0030592891853302717,0.005795570090413094
1772796364111010800,2.9620107421875,0.11129686236381531,0.030293341726064682,0.02875521406531334
1772796364121003800,2.972003662109375,0.11382417380809784,0.05037497356534004,0.04177536442875862
1772796364130995700,2.98199560546875,0.11449768394231796,0.05945555120706558,0.04591790959239006
1772796364140988700,2.99198876953125,0.11019878089427948,0.04876036196947098,0.04193111136555672
1772796364150980600,3.001980712890625,0.10374274104833603,0.030642613768577576,0.03521222248673439
1772796364160972500,3.01197265625,0.09661237895488739,0.020445531234145164,0.022528978064656258
1772796364170965800,3.0219658203125,0.08604548871517181,0.02059040777385235,0.014542956836521626
1772796364180957400,3.03195751953125,0.08054756373167038,0.022374020889401436,0.00793637614697218
1772796364190950700,3.04195068359375,0.07424625754356384,0.00774687435477972,0.00762265594676137
1772796364200942800,3.05194287109375,0.06718753278255463,-0.0026100431568920612,0.017066365107893944
1772796364210934500,3.0619345703125,0.06702587753534317,-0.011856271885335445,0.01999477669596672
1772796364220927700,3.071927734375,0.06414978206157684,-0.010238610208034515,0.017033545300364494
1772796364230919700,3.081919677734375,0.06414125859737396,0.0006348099559545517,0.008230200037360191
1772796364240912600,3.09191259765625,0.04611713066697121,0.020060913637280464,0.005990811623632908
1772796364250904600,3.101904541015625,0.03405061364173889,0.023067889735102654,0.001619765069335699
1772796364260897500,3.1118974609375,0.028865598142147064,0.012650717049837112,-0.005617369432002306
1772796364270889700,3.1218896484375,0.030620887875556946,0.013345535844564438,-0.01567959040403366
1772796364280881700,3.131881591796875,0.02608352154493332,0.027404464781284332,-0.03217029571533203
1772796364290874600,3.14187451171875,0.016086816787719727,0.0394400879740715,-0.0505724735558033
1772796364300866600,3.151866455078125,0.006877144332975149,0.04633231833577156,-0.057876959443092346
1772796364310859800,3.16185986328125,0.006604969035834074,0.04711848497390747,-0.05819973722100258
1772796364320851500,3.1718515625,0.011870520189404488,0.050062257796525955,-0.045412737876176834
1772796364330843600,3.18184375,0.0162772536277771,0.05236376076936722,-0.030929137021303177
1772796364340836900,3.1918369140625,0.012717405334115028,0.05055174604058266,-0.01968340575695038
1772796364350828500,3.20182861328125,0.016143562272191048,0.04450317472219467,-0.01165690552443266
1772796364360821800,3.21182177734375,0.0163875799626112,0.03847295418381691,-0.0044317180290818214
1772796364370813700,3.221813720703125,0.019025707617402077,0.0330670028924942,0.003055226756259799
1772796364380805600,3.2318056640625,0.0235638115555048,0.02564346045255661,0.0050046113319695
1772796364390798600,3.241798583984375,0.02230307273566723,0.016431322321295738,0.018446117639541626
1772796364400790800,3.251790771484375,0.022752605378627777,0.01204664260149002,0.026594141498208046
1772796364410783700,3.26178369140625,0.01940368115901947,-0.0017495970241725445,0.03337534889578819
1772796364420775700,3.271775634765625,0.019684450700879097,-0.004192809108644724,0.039964571595191956
1772796364430768600,3.2817685546875,0.018703076988458633,-0.005300151649862528,0.04416118189692497
1772796364440760600,3.291760498046875,0.017997266724705696,-0.005411709658801556,0.044999778270721436
1772796364450752800,3.301752685546875,0.015889640897512436,0.005530952475965023,0.04107001796364784
1772796364460745500,3.311745361328125,0.019847536459565163,0.015259090811014175,0.032391950488090515
1772796364470737700,3.321737548828125,0.013956625014543533,0.013774644583463669,0.021333973854780197
1772796364480730600,3.331730712890625,0.018268555402755737,0.007280046585947275,0.014063729904592037
1772796364490722600,3.34172265625,0.02610517293214798,0.0010083024390041828,0.013830702751874924
1772796364500714500,3.351714599609375,0.035689882934093475,-0.005244320258498192,0.014504029415547848
1772796364510707700,3.361707763671875,0.04268813878297806,-0.015367262065410614,0.013146350160241127
1772796364520699600,3.37169970703125,0.040200311690568924,-0.029516728594899178,0.003855723887681961
1772796364530692600,3.381692626953125,0.035217538475990295,-0.037744030356407166,-0.0051481579430401325
1772796364540684800,3.391684814453125,0.03337874636054039,-0.04273606836795807,-0.009882788173854351
1772796364550677500,3.401677490234375,0.031201081350445747,-0.04718487709760666,-0.01610473170876503
1772796364560669700,3.411669677734375,0.02313636802136898,-0.042624592781066895,-0.022341709583997726
1772796364570661600,3.42166162109375,0.01399000734090805,-0.030348751693964005,-0.03077727183699608
1772796364580654600,3.431654541015625,0.0068848952651023865,-0.01652100682258606,-0.04156212508678436
1772796364590646800,3.441646728515625,-0.008508708328008652,-0.017386801540851593,-0.046444229781627655
1772796364600639500,3.451639404296875,-0.01601250283420086,-0.025509146973490715,-0.05226859450340271
1772796364610631700,3.461631591796875,-0.02870326302945614,-0.020393213257193565,-0.05215167999267578
1772796364620623600,3.47162353515625,-0.0371231883764267,-0.013967510312795639,-0.03233540058135986
1772796364630616600,3.481616455078125,-0.05288457125425339,0.013736823573708534,-0.008946985006332397
1772796364640608500,3.4916083984375,-0.06125805526971817,0.046928804367780685,0.011085360310971737
1772796364650601700,3.501601806640625,-0.06626586616039276,0.07867953926324844,0.016231652349233627
1772796364660593700,3.51159375,-0.07611550390720367,0.10341058671474457,0.007897481322288513
1772796364670585600,3.521585693359375,-0.08216807246208191,0.1020079031586647,-0.008495073765516281
1772796364680578800,3.531578857421875,-0.09610288590192795,0.08192706108093262,-0.021460913121700287
1772796364690570500,3.541570556640625,-0.09844193607568741,0.05317770317196846,-0.02359090931713581
1772796364700563700,3.551563720703125,-0.10222159326076508,0.042552053928375244,-0.012987343594431877
1772796364710555600,3.5615556640625,-0.10482670366764069,0.03854532539844513,-0.0014209693763405085
1772796364720547600,3.571547607421875,-0.10950180143117905,0.03528958186507225,0.00909961387515068
1772796364730540800,3.581540771484375,-0.10938728600740433,0.03397850692272186,0.021157076582312584
1772796364740532700,3.59153271484375,-0.11075232177972794,0.023695150390267372,0.03753133490681648
1772796364750525700,3.601525634765625,-0.10434582829475403,0.011603601276874542,0.04769475385546684
1772796364760517600,3.611517578125,-0.10125230252742767,0.005468958057463169,0.051937252283096313
1772796364770510600,3.621510498046875,-0.09677819907665253,0.0061145080253481865,0.05560602247714996
1772796364780502500,3.63150244140625,-0.09548845142126083,0.010614566504955292,0.052958179265260696
1772796364790494700,3.64149462890625,-0.10037561506032944,0.013087578117847443,0.05088863894343376
1772796364800487700,3.65148779296875,-0.10355497896671295,0.006705560255795717,0.05034913122653961
1772796364810479600,3.661479736328125,-0.10941020399332047,0.004044529516249895,0.05553803592920303
1772796364820472800,3.671472900390625,-0.10898162424564362,0.010622022673487663,0.05297762155532837
1772796364830464500,3.681464599609375,-0.11394495517015457,0.01769964024424553,0.0498630553483963
1772796364840456700,3.691456787109375,-0.10751758515834808,0.024373112246394157,0.04218025878071785
1772796364850449700,3.70144970703125,-0.09910199791193008,0.025032775476574898,0.03248102590441704
1772796364860441600,3.711441650390625,-0.09002364426851273,0.023628901690244675,0.02759743109345436
1772796364870434800,3.721434814453125,-0.07912226021289825,0.020993970334529877,0.01826491393148899
1772796364880426800,3.7314267578125,-0.07108110934495926,0.016369124874472618,0.006922244559973478
1772796364890418700,3.741418701171875,-0.0684610977768898,-0.003541466547176242,-0.011727073229849339
1772796364900411600,3.75141162109375,-0.06706666201353073,-0.028358932584524155,-0.027393916621804237
1772796364910403800,3.76140380859375,-0.06893724203109741,-0.055717967450618744,-0.03465889394283295
1772796364920396500,3.771396484375,-0.06025157496333122,-0.07454653084278107,-0.02608647756278515
1772796364930388700,3.781388671875,-0.05319179967045784,-0.07702912390232086,-0.004512743558734655
1772796364940381700,3.791381591796875,-0.04287726804614067,-0.07904678583145142,0.022077953442931175
1772796364950373600,3.80137353515625,-0.02988104335963726,-0.05780940502882004,0.042478565126657486
1772796364960365600,3.811365478515625,-0.02402181550860405,-0.03698663040995598,0.048828527331352234
1772796364970358500,3.821358642578125,-0.02493155188858509,-0.025651684030890465,0.04222441837191582
1772796364980350700,3.831350830078125,-0.02572544664144516,-0.02478993497788906,0.03317028284072876
1772796364990343700,3.84134375,-0.02308412455022335,-0.018435899168252945,0.03311702236533165
1772796365000335600,3.851335693359375,-0.018187154084444046,-0.017869796603918076,0.03762824460864067
1772796365010327600,3.86132763671875,-0.012885864824056625,-0.03358031436800957,0.04098622128367424
1772796365020320800,3.87132080078125,-0.008661170490086079,-0.0501677580177784,0.044281020760536194
1772796365030312400,3.8813125,-0.0038254023529589176,-0.052450086921453476,0.04553164169192314
1772796365040305700,3.8913056640625,0.001709186239168048,-0.05390119552612305,0.047941721975803375
1772796365050297900,3.9012978515625,-0.0007582325488328934,-0.0511418916285038,0.049629103392362595
1772796365060290600,3.91129052734375,-0.005183031316846609,-0.03533945977687836,0.054039549082517624
1772796365070282800,3.92128271484375,-0.006730328314006329,-0.012941740453243256,0.059777598828077316
1772796365080274700,3.931274658203125,-0.0072635142132639885,-0.0023648818023502827,0.05756598338484764
1772796365090267600,3.941267578125,-0.0073119839653372765,-0.0074813468381762505,0.06672485917806625
1772796365100259600,3.951259521484375,-0.003946863580495119,-0.010573096573352814,0.07535625994205475
1772796365110252500,3.96125244140625,0.002259366912767291,-0.014417635276913643,0.08068817853927612
1772796365120244700,3.97124462890625,0.010638548992574215,-0.005599886644631624,0.08425062894821167
1772796365130237400,3.981237548828125,0.003994761034846306,0.003884961362928152,0.08822966367006302
1772796365140230100,3.991230224609375,-0.005648523103445768,0.006750139873474836,0.08124271780252457
1772796365150222300,4.001222412109375,-0.014954140409827232,-0.0023205862380564213,0.07361515611410141
1772796365160215300,4.01121533203125,-0.012164846062660217,-0.005357028916478157,0.06667808443307877
1772796365170207200,4.021207275390625,-0.008726704865694046,0.006264473311603069,0.05732852220535278
1772796365180199400,4.031199462890625,-0.0004824009956791997,0.01518229953944683,0.03981505706906319
1772796365190192000,4.041192138671875,-0.004047042224556208,0.009029332548379898,0.02353488653898239
1772796365200184300,4.051184326171875,-0.005995389074087143,-0.005881556775420904,0.002308020368218422
1772796365210177300,4.06117724609375,-0.012250621803104877,-0.01928631216287613,-0.00895395502448082
1772796365220169200,4.071169189453125,-0.015998538583517075,-0.021098678931593895,-0.009012715891003609
1772796365230162400,4.081162353515625,-0.01831255853176117,-0.011421550996601582,-0.007181792985647917
1772796365240154400,4.091154296875,-0.014932403340935707,0.0018625343218445778,-0.005345778074115515
1772796365250146300,4.101146240234375,-0.013255677185952663,0.008420301601290703,-0.008211073465645313
1772796365260139300,4.11113916015625,-0.008544905111193657,0.013798432424664497,-0.011428329162299633
1772796365270131500,4.12113134765625,-0.005659370683133602,0.02109416201710701,-0.010982782579958439
1772796365280124200,4.131124267578125,-0.0024546945933252573,0.03348890319466591,-0.013354702852666378
1772796365290116400,4.141116455078125,0.0018231410067528486,0.045929595828056335,-0.00809655711054802
1772796365300108300,4.1511083984375,0.00355194928124547,0.05405915528535843,-0.002205662429332733
1772796365310101200,4.161101318359375,0.006795147433876991,0.055831752717494965,0.005817642901092768
1772796365320093400,4.171093505859375,0.010331991128623486,0.05757834389805794,0.010215509682893753
1772796365330086100,4.181086181640625,0.014844982884824276,0.05532238259911537,0.021706251427531242
1772796365340078300,4.191078369140625,0.02216709963977337,0.05223885923624039,0.029394924640655518
1772796365350071300,4.2010712890625,0.025153035297989845,0.0502348318696022,0.03399819880723953
1772796365360063200,4.211063232421875,0.02548566460609436,0.04917941987514496,0.033343859016895294
1772796365370055200,4.22105517578125,0.02535969763994217,0.03845993056893349,0.029076941311359406
1772796365380048400,4.23104833984375,0.02827865071594715,0.022106099873781204,0.03280096501111984
1772796365390040000,4.2410400390625,0.028418999165296555,0.0009757829830050468,0.031069641932845116
1772796365400033300,4.251033203125,0.03258633613586426,0.0021288152784109116,0.031801871955394745
1772796365410025500,4.261025390625,0.035507023334503174,0.017019081860780716,0.03485465422272682
1772796365420017200,4.27101708984375,0.02822100557386875,0.02253055013716221,0.029902175068855286
1772796365430010400,4.28101025390625,0.024097632616758347,0.013478465378284454,0.02564537711441517
1772796365440002300,4.291002197265625,0.0278825331479311,0.010979458689689636,0.022189868614077568
1772796365449995300,4.300995361328125,0.030141958966851234,0.004280276130884886,0.0264195017516613
1772796365459987200,4.3109873046875,0.03205912560224533,-0.0016879062168300152,0.038147542625665665
1772796365469979400,4.3209794921875,0.03127056360244751,0.005018466152250767,0.043561484664678574
1772796365479972400,4.330972412109375,0.0281706340610981,0.01542685180902481,0.044632688164711
1772796365489964300,4.34096435546875,0.022072793915867805,0.01620236411690712,0.03158053383231163
1772796365499957200,4.350957275390625,0.016087932512164116,0.017413970082998276,0.017985453829169273
1772796365509949200,4.36094921875,0.013872713781893253,0.011491099372506142,0.007231875788420439
1772796365519942400,4.3709423828125,0.006908792071044445,-0.005295487120747566,-0.0008413564064539969
1772796365529934000,4.38093408203125,-0.0038530416786670685,-0.02475121058523655,0.0015850495547056198
1772796365539926300,4.39092626953125,-0.007566826418042183,-0.03178280591964722,0.00668961089104414
1772796365549919500,4.40091943359375,-0.011485402472317219,-0.026239436119794846,0.009078199975192547
1772796365559911200,4.4109111328125,-0.017200423404574394,-0.019172947853803635,0.010685088112950325
1772796365569904400,4.420904296875,-0.019914982840418816,-0.013013321906328201,0.008519139140844345
1772796365579896300,4.430896240234375,-0.017026713117957115,-0.014842942357063293,0.0023518225643783808
1772796365589888300,4.44088818359375,-0.015692468732595444,-0.0192270390689373,0.0017917598597705364
1772796365599881200,4.450881103515625,-0.008203178644180298,-0.021087609231472015,0.004258208442479372
1772796365609873400,4.460873291015625,-0.002036629244685173,-0.0177978053689003,0.005937064997851849
1772796365619866400,4.470866455078125,-0.0015120513271540403,-0.011457006447017193,0.005588078405708075
1772796365629858300,4.4808583984375,0.0001297874841839075,-0.009312096983194351,0.0024636578746140003
1772796365639850500,4.4908505859375,-0.0020685361232608557,-0.0158485509455204,-0.003981973510235548
1772796365649843200,4.50084326171875,-0.007476883940398693,-0.021882476285099983,-0.004995572380721569
1772796365659835400,4.51083544921875,-0.004377496894448996,-0.023235362023115158,-0.003685297444462776
1772796365669828000,4.520828125,0.0023970522452145815,-0.02409529685974121,-0.0017672886606305838
1772796365679820300,4.5308203125,0.011575931683182716,-0.017352771013975143,-0.00039411731995642185
1772796365689813200,4.540813232421875,0.025991888716816902,-0.009413354098796844,0.00294868228957057
1772796365699805200,4.55080517578125,0.03037845343351364,-0.006313463672995567,0.0054030828177928925
1772796365709797400,4.56079736328125,0.03014116734266281,0.00024244002997875214,0.0053998869843780994
1772796365719790300,4.570790283203125,0.025468578562140465,0.006377859506756067,0.0014543827855959535
1772796365729782300,4.5807822265625,0.023301830515265465,0.014872543513774872,0.001221089856699109
1772796365739775200,4.590775146484375,0.012467889115214348,-0.012115741148591042,-0.008639151230454445
1772796365749767400,4.600767333984375,0.007328786887228489,-0.04855310916900635,-0.01925158128142357
1772796365759759000,4.610759033203125,0.00876849889755249,-0.07153081893920898,-0.033906240016222
1772796365769752300,4.62075244140625,0.01289213728159666,-0.08089902251958847,-0.04082459956407547
1772796365779744500,4.63074462890625,0.014273714274168015,-0.07582087069749832,-0.040399324148893356
1772796365789737200,4.6407373046875,0.01911134645342827,-0.05317894369363785,-0.029309388250112534
1772796365799729400,4.6507294921875,0.01908719725906849,-0.014265557751059532,-0.01087874174118042
1772796365809721300,4.660721435546875,0.020307457074522972,0.026579076424241066,0.005654161795973778
1772796365819714300,4.67071435546875,0.021800072863698006,0.04470793530344963,0.019470933824777603
1772796365829706200,4.680706298828125,0.020221350714564323,0.042625609785318375,0.02619781158864498
1772796365839699200,4.69069921875,0.02151895873248577,0.03756428137421608,0.024353325366973877
1772796365849691400,4.70069140625,0.02175917662680149,0.024652743712067604,0.022037440910935402
1772796365859684400,4.710684326171875,0.015940342098474503,0.009248897433280945,0.01850832812488079
1772796365869676300,4.72067626953125,0.008007051423192024,-0.01665700227022171,0.015761010348796844
1772796365879668200,4.730668212890625,0.008726831525564194,-0.025110911577939987,0.019611643627285957
1772796365889661400,4.740661376953125,0.010206217877566814,-0.02187597006559372,0.022304099053144455
1772796365899653000,4.750653076171875,0.009370776824653149,-0.014422095380723476,0.021667685359716415
1772796365909646300,4.760646240234375,0.005780835635960102,-0.008327984251081944,0.025162817910313606
1772796365919638300,4.77063818359375,0.009692996740341187,-0.0008292081765830517,0.022513113915920258
1772796365929630200,4.780630126953125,0.01229916699230671,0.011524928733706474,0.020257415249943733
1772796365939623400,4.79062353515625,0.011173262260854244,0.009645290672779083,0.01981155201792717
1772796365949615400,4.800615478515625,0.0025339669082313776,0.007007430773228407,0.014028764329850674
1772796365959608300,4.8106083984375,-0.002235495252534747,0.002642459701746702,0.011847982183098793
1772796365969600300,4.820600341796875,-0.002083695260807872,-0.0072168284095823765,0.009476438164710999
1772796365979592400,4.830592529296875,0.003690283512696624,-0.005429467186331749,0.012772771529853344
1772796365989585200,4.840585205078125,0.004234367050230503,-0.00217268755659461,0.013599150814116001
1772796365999577300,4.850577392578125,0.006185060366988182,-0.000039999838918447495,0.01618717983365059
1772796366009570300,4.8605703125,0.007106514647603035,-0.0035593670327216387,0.004443171434104443
1772796366019562200,4.870562255859375,0.009584780782461166,-0.010260650888085365,-0.002983617363497615
1772796366029555200,4.88055517578125,0.01044844277203083,-0.007039290852844715,-0.011040478944778442
1772796366039547100,4.890547119140625,0.010095336474478245,-0.005629477556794882,-0.018879713490605354
1772796366049539300,4.900539306640625,0.0025958744809031487,-0.007391424849629402,-0.030613867565989494
1772796366059532300,4.9105322265625,-0.0029492652975022793,-0.015723800286650658,-0.03680716082453728
1772796366069524200,4.920524169921875,-0.012414672411978245,-0.024133265018463135,-0.04324109107255936
1772796366079517400,4.930517333984375,-0.013213793747127056,-0.0207890123128891,-0.040608394891023636
1772796366089509400,4.94050927734375,-0.011135196313261986,0.0035331062972545624,-0.03275499865412712
1772796366099501300,4.950501220703125,-0.012114901095628738,0.024466587230563164,-0.01792116090655327
1772796366109494300,4.960494384765625,-0.009383562952280045,0.03192344307899475,-0.007850950583815575
1772796366119486200,4.970486328125,-0.004545204341411591,0.038156330585479736,0.0010034957667812705
1772796366129479200,4.980479248046875,0.003421908477321267,0.039234377443790436,0.004790244624018669
1772796366139470800,4.990470947265625,0.013969184830784798,0.03130254149436951,0.006029838230460882
1772796366149463000,5.000463134765625,0.013366244733333588,0.02314448356628418,0.006582178175449371
1772796366159456000,5.0104560546875,0.009661340154707432,0.012311084195971489,0.003951111808419228
1772796366169448000,5.020447998046875,0.00529135949909687,0.014633625745773315,0.0025148687418550253
1772796366179441000,5.03044091796875,0.009354755282402039,0.018955528736114502,0.0018631007988005877
1772796366189432800,5.040432861328125,0.01887475699186325,0.026957528665661812,0.005596852861344814
1772796366199426000,5.050426025390625,0.03432126343250275,0.02978355623781681,0.0030065046157687902
1772796366209417700,5.060417724609375,0.03927208110690117,0.029156113043427467,-0.0027264822274446487
1772796366219410000,5.070409912109375,0.04319832846522331,0.023090677335858345,-0.015706367790699005
1772796366229403100,5.080403076171875,0.03919985890388489,0.016289763152599335,-0.020476888865232468
1772796366239394800,5.090394775390625,0.03538260608911514,0.007828425616025925,-0.018454546108841896
1772796366249388000,5.100387939453125,0.03294554725289345,-0.004084693267941475,-0.02185087651014328
1772796366259380000,5.1103798828125,0.030341846868395805,-0.006863464135676622,-0.013585991226136684
1772796366269372000,5.120371826171875,0.02820385992527008,0.00935865007340908,-0.006026874762028456
1772796366279364900,5.13036474609375,0.031102946028113365,0.028521757572889328,0.0009361811680719256
1772796366289357000,5.140357177734375,0.03595762699842453,0.03798849508166313,0.009504902176558971
1772796366299349800,5.150349853515625,0.04278016835451126,0.04119694232940674,0.008381138555705547
1772796366309342000,5.160342041015625,0.049842070788145065,0.03669433295726776,0.008344387635588646
1772796366319335000,5.1703349609375,0.050596415996551514,0.032791633158922195,0.007412424776703119
1772796366329326800,5.180326904296875,0.043093226850032806,0.027892744168639183,0.007260357961058617
1772796366339319000,5.190319091796875,0.03030294179916382,0.02089637704193592,0.005415803287178278
1772796366349311700,5.200311767578125,0.020481469109654427,0.006496398709714413,-0.0004077309276908636
1772796366359304000,5.210303955078125,0.015956414863467216,0.0007378240115940571,-0.00920170545578003
1772796366369297000,5.220296875,0.01868722029030323,0.00982319749891758,-0.0197446271777153
1772796366379288800,5.230288818359375,0.020380103960633278,0.02018069475889206,-0.02886406145989895
1772796366389280800,5.24028076171875,0.019516706466674805,0.02175808511674404,-0.03102681413292885
1772796366399274000,5.25027392578125,0.014160600490868092,0.028825348243117332,-0.023695413023233414
1772796366409266000,5.260265869140625,0.008310701698064804,0.028540125116705894,-0.019382424652576447
1772796366419259000,5.2702587890625,0.00855108443647623,0.024491146206855774,-0.011113652028143406
1772796366429251000,5.2802509765625,0.007110314443707466,0.019636204466223717,-0.009007624350488186
1772796366439242800,5.29024267578125,0.010850120335817337,0.018792277202010155,-0.009307794272899628
1772796366449236000,5.300236083984375,0.011432553641498089,0.016085440292954445,-0.007446778006851673
1772796366459228000,5.310227783203125,0.010721243917942047,0.01312602125108242,-0.006506821606308222
1772796366469220900,5.320220947265625,0.011332971975207329,0.017496002838015556,-0.00509747676551342
1772796366479213000,5.330213134765625,0.01297738030552864,0.023142313584685326,-0.002023814246058464
1772796366489205800,5.340205810546875,0.01616358570754528,0.03404156491160393,0.0024468342307955027
1772796366499198000,5.350197998046875,0.02182473987340927,0.02886728011071682,-0.0006527873338200152
1772796366509190000,5.36018994140625,0.021367475390434265,0.008013399317860603,-0.012231146916747093
1772796366519182800,5.370182861328125,0.01834888383746147,-0.002995668910443783,-0.020950257778167725
1772796366529174800,5.3801748046875,0.019456757232546806,-0.014135671779513359,-0.022813405841588974
1772796366539168000,5.39016796875,0.012574588879942894,-0.013840528205037117,-0.020829929038882256
1772796366549160000,5.400159912109375,0.0057534342631697655,-0.012860485352575779,-0.01923256367444992
1772796366559151900,5.41015185546875,0.001261192373931408,-0.008464822545647621,-0.014348188415169716
1772796366569145000,5.42014501953125,-0.0055719465017318726,-0.002460992895066738,-0.014514901675283909
1772796366579136800,5.43013671875,-0.012078264728188515,0.0033924556337296963,-0.010315457358956337
1772796366589130000,5.4401298828125,-0.012541388161480427,-0.0017530377954244614,-0.009859791025519371
1772796366599122000,5.450121826171875,-0.013138959184288979,-0.010313999839127064,-0.003994724713265896
1772796366609113900,5.46011376953125,-0.018972346559166908,-0.01657083071768284,0.007001999765634537
1772796366619107000,5.470107177734375,-0.02439495176076889,-0.009691827930510044,0.01883835718035698
1772796366629099000,5.48009912109375,-0.021547766402363777,0.006132142152637243,0.033914245665073395
1772796366639092000,5.490092041015625,-0.015098368749022484,0.016566826030611992,0.04483626037836075
1772796366649084000,5.500083984375,-0.016788942739367485,0.023206086829304695,0.04834497720003128
1772796366659076900,5.510076904296875,-0.025403205305337906,0.01367010548710823,0.04268096387386322
1772796366669068800,5.52006884765625,-0.027666091918945312,-0.0034976957831531763,0.03647526726126671
1772796366679061000,5.53006103515625,-0.025991568341851234,-0.009747574105858803,0.03440888598561287
1772796366689054000,5.540053955078125,-0.012693872675299644,0.002072866540402174,0.03898286819458008
1772796366699046000,5.5500458984375,-0.005279242992401123,0.014245700091123581,0.03878120332956314
1772796366709038800,5.560038818359375,0.0003972847480326891,0.01563107781112194,0.027446523308753967
1772796366719030800,5.57003076171875,-0.0021329782903194427,0.017452731728553772,0.020137928426265717
1772796366729023000,5.58002294921875,-0.006287243217229843,0.004722288344055414,0.009286880493164062
1772796366739016000,5.590015869140625,-0.006125539541244507,-0.014459041878581047,-0.013029438443481922
1772796366749008000,5.6000078125,-0.010409234091639519,-0.018761377781629562,-0.02815060131251812
1772796366759001000,5.6100009765625,-0.012753354385495186,-0.01371048018336296,-0.04167112335562706
1772796366768993000,5.619992919921875,-0.009889657609164715,-0.010148502886295319,-0.04330044612288475
1772796366778986000,5.629986083984375,-0.004194487817585468,0.0020719440653920174,-0.031478140503168106
1772796366788978000,5.63997802734375,0.0013904273509979248,0.013425266370177269,-0.020336806774139404
1772796366798970000,5.64997021484375,0.009367804042994976,0.011591888964176178,-0.010084372013807297
1772796366808962800,5.659962890625,0.017769012600183487,0.007429368328303099,-0.0051468717865645885
1772796366818955000,5.669955078125,0.01857675425708294,0.00827257800847292,-0.0010278404224663973
1772796366828948000,5.679947998046875,0.018448656424880028,0.006264554336667061,0.0005388971767388284
1772796366838940000,5.68993994140625,0.012032081373035908,0.004829410929232836,-0.0017690128879621625
1772796366848931800,5.699931884765625,0.010850968770682812,0.0016218996606767178,-0.004114192444831133
1772796366858924800,5.7099248046875,0.009314563125371933,-0.003746701404452324,-0.0009645168320275843
1772796366868917000,5.7199169921875,0.011438433080911636,-0.009324692189693451,0.00686331233009696
1772796366878910000,5.729909912109375,0.02011365070939064,-0.010982174426317215,0.022243821993470192
1772796366888902000,5.73990185546875,0.026228535920381546,-0.006692621391266584,0.03817938268184662
1772796366898893800,5.749893798828125,0.0250590480864048,0.00743239326402545,0.04421927034854889
1772796366908886800,5.75988671875,0.023266475647687912,0.024174889549613,0.04568081349134445
1772796366918878700,5.769878662109375,0.018893348053097725,0.022552307695150375,0.042457226663827896
1772796366928872000,5.779871826171875,0.011870859190821648,0.006508094724267721,0.03136196732521057
1772796366938863900,5.78986376953125,0.0046799564734101295,-0.012140859849750996,0.019271139055490494
1772796366948856800,5.79985693359375,0.0027140111196786165,-0.02139774151146412,0.011168471537530422
1772796366958849000,5.80984912109375,0.0020715200807899237,-0.013732792809605598,0.0025455427821725607
1772796366968841000,5.819841064453125,-0.004516608081758022,0.007889412343502045,-0.003826869186013937
1772796366978834000,5.829833984375,-0.005069796461611986,0.01925489865243435,-0.013418415561318398
1772796366988825900,5.839825927734375,-0.007673036307096481,0.014661211520433426,-0.01896657794713974
1772796366998818800,5.84981884765625,-0.00989384576678276,0.0031928406096994877,-0.022021222859621048
1772796367008811000,5.85981103515625,-0.011673370376229286,-0.01697048544883728,-0.022921372205018997
1772796367018803000,5.869802978515625,-0.014661725610494614,-0.03064676560461521,-0.017945915460586548
1772796367028796000,5.8797958984375,-0.01994090899825096,-0.025550540536642075,-0.019628234207630157
1772796367038787800,5.889787841796875,-0.02229662798345089,-0.021459119394421577,-0.018471870571374893
1772796367048780800,5.89978076171875,-0.024797601625323296,-0.015125056728720665,-0.03031095303595066
1772796367058772700,5.909772705078125,-0.024536754935979843,-0.009941156953573227,-0.03660353273153305
1772796367068766000,5.919765869140625,-0.03139679133892059,-0.009902541525661945,-0.04719572514295578
1772796367078758000,5.9297578125,-0.025262532755732536,-0.017552657052874565,-0.05591076612472534
1772796367088749800,5.939749755859375,-0.02438182570040226,-0.014257527887821198,-0.05736778303980827
1772796367098743000,5.949742919921875,-0.021730583161115646,-0.009346739389002323,-0.048777639865875244
1772796367108734700,5.959734619140625,-0.026173800230026245,-0.013588888570666313,-0.04201800748705864
1772796367118728000,5.96972802734375,-0.026786664500832558,-0.01704564318060875,-0.04180871695280075
1772796367128720000,5.979719970703125,-0.017855487763881683,-0.012256747111678123,-0.04007792845368385
1772796367138712000,5.989712158203125,-0.0113651929423213,-0.0035555229987949133,-0.03978540375828743
1772796367148705000,5.999705078125,-0.007526245899498463,-0.004113188944756985,-0.0418325737118721
1772796367158697200,6.009697265625,-0.00950480904430151,-0.0010592485778033733,-0.04930947348475456
1772796367168690200,6.019690185546875,-0.022874677553772926,-0.002224647905677557,-0.0522938147187233
1772796367178682000,6.02968212890625,-0.032866641879081726,0.0009430968202650547,-0.04774610698223114
1772796367188674300,6.03967431640625,-0.03248128294944763,-0.002340048085898161,-0.0427289754152298
1772796367198667000,6.0496669921875,-0.027852384373545647,0.004611738491803408,-0.04114936292171478
1772796367208659200,6.0596591796875,-0.01556908618658781,-0.005493626464158297,-0.04764800891280174
1772796367218652000,6.06965185546875,-0.001721303560771048,-0.025476448237895966,-0.05240142345428467
1772796367228644000,6.07964404296875,0.0016081803478300571,-0.030655495822429657,-0.04904131218791008
1772796367238637300,6.08963720703125,-0.0019063933286815882,-0.013459998182952404,-0.048645298928022385
1772796367248629000,6.09962890625,-0.006809006445109844,0.00620931014418602,-0.047446612268686295
1772796367258621200,6.10962109375,-0.012966918759047985,0.031901098787784576,-0.04508117586374283
1772796367268614100,6.1196142578125,-0.014031117781996727,0.025625091046094894,-0.04065100476145744
1772796367278606000,6.129606201171875,-0.013131034560501575,-0.014385625720024109,-0.03458496928215027
1772796367288599000,6.13959912109375,-0.013528112322092056,-0.0451027937233448,-0.012111086398363113
1772796367298591200,6.14959130859375,-0.011846598237752914,-0.041860710829496384,0.008748468942940235
1772796367308583000,6.1595830078125,-0.002787057077512145,-0.013123339042067528,0.02125680446624756
1772796367318576000,6.169576171875,0.007727325428277254,0.020451096817851067,0.02954457513988018
1772796367328568300,6.179568359375,0.013154314830899239,0.04608961567282677,0.026309899985790253
1772796367338561000,6.18956103515625,0.012758532539010048,0.05565597116947174,0.015120132826268673
1772796367348553200,6.19955322265625,0.0028417198918759823,0.03169604763388634,0.001285277889110148
1772796367358545200,6.209545166015625,0.0016647330485284328,-0.006222470663487911,-0.005574372597038746
1772796367368538000,6.2195380859375,0.0013960201758891344,-0.023233944550156593,-0.007446841336786747
1772796367378530000,6.229530029296875,0.0027658785693347454,-0.02837221696972847,0.001653415383771062
1772796367388523000,6.23952294921875,0.0040114386938512325,-0.012169546447694302,0.006639651954174042
1772796367398515200,6.24951513671875,0.01274157501757145,0.00535612041130662,0.016863839700818062
1772796367408508200,6.259508056640625,0.018599197268486023,0.009641414508223534,0.0161285400390625
1772796367418500000,6.2695,0.01887439750134945,0.00478579243645072,0.01616678200662136
1772796367428492000,6.279491943359375,0.010020185261964798,0.0023287604562938213,0.007400719914585352
1772796367438485200,6.2894853515625,0.004849635995924473,-0.0052243806421756744,0.0040647187270224094
1772796367448477000,6.299476806640625,0.001701513072475791,0.00396432401612401,-0.004974049981683493
1772796367458470100,6.30947021484375,0.005478141829371452,0.013911763206124306,-0.013853561133146286
1772796367468462300,6.31946240234375,0.008052663877606392,0.013833500444889069,-0.010124883614480495
1772796367478454000,6.3294541015625,0.005350958555936813,0.010650195181369781,-0.008597795851528645
1772796367488447200,6.339447265625,0.003421764587983489,0.008404085412621498,-0.0033108885399997234
1772796367498439200,6.349439208984375,0.01011310052126646,0.0029341615736484528,0.00605924054980278
1772796367508432100,6.35943212890625,0.015825314447283745,-0.001978838350623846,0.008580455556511879
1772796367518424000,6.369424072265625,0.02145984396338463,-0.008553894236683846,0.00836948398500681
1772796367528416300,6.379416259765625,0.02436055988073349,-0.011061260476708412,0.002064183820039034
1772796367538409000,6.389408935546875,0.023198572918772697,-0.0028787851333618164,-0.007899406366050243
1772796367548401200,6.399401123046875,0.02393573522567749,0.007306208368390799,-0.020693764090538025
1772796367558394000,6.40939404296875,0.016987230628728867,0.007050457410514355,-0.02838221564888954
1772796367568386000,6.419385986328125,0.00912478007376194,-0.006882135756313801,-0.03233887255191803
1772796367578379300,6.429379150390625,0.0062151458114385605,-0.02551877312362194,-0.03494010120630264
1772796367588371000,6.439370849609375,0.0067754751071333885,-0.039569612592458725,-0.03281356766819954
1772796367598363100,6.449363037109375,0.01249123178422451,-0.04514412209391594,-0.028390375897288322
1772796367608356000,6.459356201171875,0.015757599845528603,-0.03557059168815613,-0.023168716579675674
1772796367618348000,6.46934814453125,0.012782162986695766,0.0013964925892651081,-0.018739860504865646
1772796367628341200,6.47934130859375,0.006246499717235565,0.04225870594382286,-0.023315170779824257
1772796367638333200,6.489333251953125,0.011999856680631638,0.05155244097113609,-0.033655039966106415
1772796367648325000,6.4993251953125,0.018613284453749657,0.039416950196027756,-0.04445389285683632
1772796367658318000,6.509318115234375,0.020538873970508575,0.016851777210831642,-0.04725773259997368
1772796367668310300,6.519310302734375,0.017989428713917732,0.0030161221511662006,-0.04004562646150589
1772796367678303000,6.529302978515625,0.019330905750393867,0.011524423956871033,-0.022732960060238838
1772796367688295200,6.539295166015625,0.022523770108819008,0.039594411849975586,0.003057623514905572
1772796367698287000,6.549287109375,0.030965283513069153,0.05375030264258385,0.02008124068379402
1772796367708280000,6.559280029296875,0.03294907510280609,0.043562114238739014,0.031159991398453712
1772796367718272300,6.569272216796875,0.0268423929810524,0.011236311867833138,0.03528186306357384
1772796367728265000,6.579264892578125,0.017932254821062088,-0.014691958203911781,0.03194305673241615
1772796367738257200,6.589257080078125,0.01015135645866394,-0.023114604875445366,0.0317750982940197
1772796367748250000,6.59925,0.013147146441042423,-0.014806075021624565,0.02046811580657959
1772796367758242000,6.609241943359375,0.017796996980905533,0.0001756022684276104,0.008592236787080765
1772796367768234000,6.61923388671875,0.008802436292171478,0.0757656991481781,0.07503357529640198
1772796367778227200,6.629227294921875,0.0016911488492041826,0.10969329625368118,0.12922197580337524
1772796367788219100,6.63921923828125,0.00041895685717463493,0.15680141746997833,0.18876944482326508
1772796367798212000,6.649212158203125,0.01767890900373459,0.13315661251544952,0.21529391407966614
1772796367808204300,6.659204345703125,0.029942765831947327,0.07044714689254761,0.21247202157974243
1772796367818196000,6.669196044921875,0.0364261269569397,0.00973324105143547,0.17446579039096832
1772796367828189200,6.679189208984375,0.03883229196071625,-0.03740231320261955,0.11020106077194214
1772796367838181000,6.68918115234375,0.041516464203596115,-0.05570188909769058,0.025164682418107986
1772796367848174000,6.699174072265625,0.04142165556550026,-0.04732891172170639,-0.0595395527780056
1772796367858166300,6.709166259765625,0.035329923033714294,-0.041605349630117416,-0.156211718916893
1772796367868159000,6.719158935546875,0.022758472710847855,-0.027336400002241135,-0.24240732192993164
1772796367878151200,6.729151123046875,0.005471938289701939,-0.020742377266287804,-0.2938295006752014
1772796367888143000,6.73914306640625,-0.008892619982361794,-0.02722264640033245,-0.3055514097213745
1772796367898136000,6.749135986328125,-0.01013088971376419,-0.02510819025337696,-0.2519035339355469
1772796367908128000,6.7591279296875,-0.007456542924046516,-0.020915841683745384,-0.163483664393425
1772796367918121200,6.769121337890625,-0.013351090252399445,-0.04196401312947273,-0.06938018649816513
