time,seconds_elapsed,z,y,x
1772721183591704000,0.0857041015625,0,0,0
1772721183610300400,0.104300537109375,0.13658809661865234,-0.13027846813201904,0.07405751943588257
1772721183628896800,0.122896728515625,0.661529541015625,-0.11408442258834839,0.09003371000289917
1772721183647492900,0.141492919921875,0.787109375,-0.09836506843566895,0.10659319162368774
1772721183666089500,0.16008935546875,0.5922737121582031,0.11385267972946167,0.11171746253967285
1772721183684685600,0.178685546875,0.48569679260253906,0.2675492763519287,0.28959864377975464
1772721183703282000,0.197281982421875,0.5868864059448242,0.1626935601234436,0.5118293762207031
1772721183721878300,0.215878173828125,0.6106128692626953,0.05345916748046875,0.6757982969284058
1772721183740474400,0.234474365234375,-0.1144266128540039,0.21175426244735718,0.42230796813964844
1772721183759070700,0.25307080078125,-1.027205467224121,0.4214545786380768,0.04764449596405029
1772721183777667000,0.2716669921875,-1.589975357055664,0.4919534921646118,-0.3484899699687958
1772721183796263400,0.290263427734375,-1.7053165435791016,0.4603424072265625,-0.4960692822933197
1772721183814859500,0.308859619140625,-1.2375202178955078,0.5050047636032104,-0.34011179208755493
1772721183833455900,0.327455810546875,-0.5621891021728516,0.4722990095615387,-0.09745365381240845
1772721183852052200,0.34605224609375,0.3864164352416992,0.9266377687454224,0.0532536506652832
1772721183870648300,0.3646484375,0.9643383026123047,0.9253271818161011,0.6384013295173645
1772721183889244700,0.38324462890625,0.9704103469848633,0.7021785974502563,1.3002883195877075
1772721183907841000,0.401841064453125,0.7652444839477539,0.557712197303772,1.5765289068222046
1772721183926437400,0.420437255859375,0.28908634185791016,0.45249733328819275,1.0622222423553467
1772721183945033500,0.439033447265625,-0.16694259643554688,0.6498348712921143,0.5400408506393433
1772721183963629800,0.4576298828125,-0.43012332916259766,0.8472329378128052,0.30843794345855713
1772721183982226200,0.47622607421875,-0.6476364135742188,0.6752629280090332,-0.1846555471420288
1772721184000822300,0.494822265625,-0.49601078033447266,0.5326741933822632,-0.5190240740776062
1772721184019418600,0.513418701171875,-0.2392253875732422,0.7192397713661194,-0.7907448410987854
1772721184038015000,0.532014892578125,-0.11356163024902344,1.3148536682128906,-1.2488274574279785
1772721184056611300,0.550611328125,-0.19127655029296875,1.6895419359207153,-1.1985706090927124
1772721184075207400,0.56920751953125,-0.8144149780273438,1.504908800125122,-1.157728672027588
1772721184093803800,0.5878037109375,-1.3422918319702148,1.1683170795440674,-1.320050835609436
1772721184112400000,0.60639990234375,-0.24302959442138672,0.878235936164856,-0.5873937010765076
1772721184130996200,0.624996337890625,0.18672657012939453,0.6127369403839111,-0.5333930850028992
1772721184149592600,0.643592529296875,0.4335136413574219,0.7205170392990112,-0.7678146958351135
1772721184168189000,0.66218896484375,1.0559091567993164,0.10675722360610962,-0.6093965768814087
1772721184186785000,0.680784912109375,0.7995595932006836,-0.6840640902519226,-0.8675459623336792
1772721184205381400,0.69938134765625,0.6554536819458008,-0.4679235816001892,-0.505563497543335
1772721184223977700,0.717977783203125,-0.0514984130859375,-0.837586522102356,-0.7643630504608154
1772721184242573800,0.73657373046875,-0.6993913650512695,-0.5172536373138428,-0.39996886253356934
1772721184261170200,0.755170166015625,-1.1840543746948242,-0.30212438106536865,0.13222730159759521
1772721184279766500,0.7737666015625,-0.7450389862060547,-0.01843544840812683,0.07384566217660904
1772721184298362600,0.792362548828125,-0.41683292388916016,0.08109581470489502,0.42541366815567017
1772721184316959000,0.810958984375,-0.38984107971191406,-0.030857503414154053,-0.35311877727508545
1772721184335555300,0.829555419921875,-0.6281585693359375,-0.28819364309310913,-0.7595006227493286
1772721184354151400,0.8481513671875,-0.5268926620483398,-0.1945209801197052,-0.9070305228233337
1772721184372747800,0.866747802734375,0.08862113952636719,-0.3384268283843994,-1.237730622291565
1772721184391344000,0.88534423828125,0.27518272399902344,-0.5054141879081726,-1.7138330936431885
1772721184409940200,0.903940185546875,-0.3022451400756836,-0.31057319045066833,-1.6330798864364624
1772721184428536600,0.92253662109375,-0.18430423736572266,-0.07968324422836304,-0.9444902539253235
1772721184447133000,0.9411328125,0.3569374084472656,-0.037614673376083374,0.13655048608779907
1772721184465729000,0.95972900390625,0.36667633056640625,-0.11124759912490845,1.105785846710205
1772721184484325400,0.978325439453125,0.01136016845703125,-0.514998733997345,1.366117238998413
1772721184502921700,0.996921630859375,-0.6317739486694336,-0.23494991660118103,1.2080492973327637
1772721184521517800,1.015517822265625,-1.0287103652954102,-0.31925100088119507,1.230358600616455
1772721184540114200,1.0341142578125,-0.9301853179931641,-0.1134379506111145,1.4834392070770264
1772721184558710300,1.052710205078125,-0.550990104675293,0.31961745023727417,1.2693283557891846
1772721184577306600,1.071306640625,-0.22835445404052734,0.726909875869751,1.064164638519287
1772721184595903000,1.089903076171875,-0.059342384338378906,1.0555789470672607,0.5575159192085266
1772721184614499300,1.108499267578125,-0.03329181671142578,0.8808033466339111,0.2943163812160492
1772721184633095400,1.127095458984375,0.05474853515625,0.7078051567077637,-0.0027939677238464355
1772721184651691800,1.14569189453125,0.6831350326538086,0.8256004452705383,-0.26644930243492126
1772721184670288000,1.164287841796875,1.1720552444458008,1.262518048286438,0.003299117088317871
1772721184688884200,1.18288427734375,1.2903337478637695,1.2405047416687012,-0.07228481024503708
1772721184707480600,1.20148046875,0.9468851089477539,0.5353190302848816,-0.6562353372573853
1772721184726076700,1.22007666015625,0.7270126342773438,0.1323205828666687,-1.1078009605407715
1772721184744673000,1.238673095703125,0.34474945068359375,0.01661992073059082,-0.8064998388290405
1772721184763269000,1.25726904296875,-0.11707782745361328,0.2830843925476074,-0.2596409022808075
1772721184781865500,1.275865478515625,-0.09203910827636719,0.4654662013053894,0.4909610450267792
1772721184800461800,1.2944619140625,0.16092586517333984,0.4940785765647888,0.5609669089317322
1772721184819058200,1.31305810546875,0.0950765609741211,0.4893513321876526,0.4671115279197693
1772721184837654300,1.331654296875,-0.3466787338256836,0.4741145968437195,0.4296412169933319
1772721184856250600,1.350250732421875,-1.138275146484375,-0.19945842027664185,1.3810313940048218
1772721184874846700,1.3688466796875,-0.6271018981933594,1.3617404699325562,-0.8779534101486206
1772721184893443000,1.387443115234375,0.33741283416748047,0.9920385479927063,-1.2016433477401733
1772721184912039400,1.406039306640625,0.8014068603515625,0.16447928547859192,-0.7800814509391785
1772721184930635500,1.424635498046875,0.7871322631835938,0.39680054783821106,-0.8112138509750366
1772721184949231900,1.44323193359375,0.32175159454345703,0.7500662803649902,-0.8091199398040771
1772721184967828000,1.461827880859375,-0.8170890808105469,0.8810816407203674,-0.8481705188751221
1772721184986424300,1.48042431640625,-1.510817527770996,1.2281887531280518,-0.347310334444046
1772721185005020700,1.499020751953125,-1.0537834167480469,1.3643014430999756,0.17572927474975586
1772721185023616800,1.51761669921875,-0.4228372573852539,1.2906500101089478,0.42209261655807495
1772721185042213000,1.536213134765625,-0.13391399383544922,1.1187376976013184,0.24560219049453735
1772721185060809500,1.5548095703125,-0.0723867416381836,1.0107485055923462,0.03325587511062622
1772721185079405600,1.573405517578125,-0.2252645492553711,0.9388343095779419,-0.08423018455505371
1772721185098002000,1.592001953125,-0.6474714279174805,1.1289902925491333,-0.05372840166091919
1772721185116598000,1.610597900390625,-0.8687648773193359,1.1333770751953125,0.01561892032623291
1772721185135194400,1.6291943359375,-1.0652666091918945,1.0321476459503174,-0.17028793692588806
1772721185153790700,1.647790771484375,-0.9090242385864258,0.94725501537323,-0.22956067323684692
1772721185172386800,1.66638671875,-0.6107177734375,0.8928213715553284,-0.2668845057487488
1772721185190983200,1.684983154296875,-0.2911109924316406,0.7299076318740845,-0.22334980964660645
1772721185209579300,1.703579345703125,-0.2758312225341797,0.627567708492279,-0.32948917150497437
1772721185228175600,1.722175537109375,-0.4683113098144531,0.7807043790817261,-0.16742458939552307
1772721185246772000,1.74077197265625,-0.7938261032104492,0.973107099533081,-0.17764565348625183
1772721185265368000,1.7593681640625,-0.2761993408203125,0.9994015097618103,-0.025945961475372314
1772721185283964400,1.77796435546875,0.8919258117675781,0.891208291053772,0.21741116046905518
1772721185302560500,1.796560546875,1.4628982543945312,0.7558949589729309,0.6491427421569824
1772721185321156900,1.815156982421875,1.120345115661621,0.7216031551361084,1.5202124118804932
1772721185339753200,1.833753173828125,-0.102386474609375,0.9953022599220276,1.7698109149932861
1772721185358349300,1.852349365234375,-1.2288408279418945,1.0544729232788086,1.6767463684082031
1772721185376945700,1.870945556640625,-1.7381477355957031,1.1733657121658325,1.2633112668991089
1772721185395541800,1.889541748046875,-1.800614356994629,1.1352849006652832,0.8986362218856812
1772721185414138000,1.90813818359375,-0.40122413635253906,1.0179470777511597,0.2373930811882019
1772721185432734500,1.926734375,1.3024768829345703,0.9095741510391235,-0.7324285507202148
1772721185451330600,1.94533056640625,1.8520450592041016,1.0172029733657837,-0.956462562084198
1772721185469927000,1.963927001953125,1.8061695098876953,1.0977694988250732,-0.6324633359909058
1772721185488523000,1.98252294921875,1.5585269927978516,0.8965669274330139,-0.2524728775024414
1772721185507119400,2.001119384765625,1.0474576950073242,0.546654224395752,0.12943214178085327
1772721185525715700,2.0197158203125,0.6541996002197266,0.24413764476776123,0.4900349974632263
1772721185544311800,2.038311767578125,0.7164726257324219,-0.0046676695346832275,0.6598462462425232
1772721185562908200,2.056908203125,0.8415098190307617,-0.22772222757339478,0.9389734864234924
1772721185581504300,2.075504150390625,0.5362911224365234,-0.34526121616363525,1.2847285270690918
1772721185600100600,2.0941005859375,0.19401073455810547,-0.47655394673347473,1.2788474559783936
1772721185618697000,2.112697021484375,0.0449676513671875,-0.9193972945213318,0.7284843921661377
1772721185637293000,2.13129296875,-0.4915952682495117,-1.307852864265442,-0.3933183550834656
1772721185655889400,2.149889404296875,-1.0003862380981445,-1.5422240495681763,-0.9179151058197021
1772721185674485500,2.168485595703125,-1.2642278671264648,-1.4077684879302979,-0.44439584016799927
1772721185693081900,2.187081787109375,-1.5938348770141602,-1.2258180379867554,-0.14028619229793549
1772721185711678000,2.205677978515625,-1.4418115615844727,-1.1824620962142944,0.024899587035179138
1772721185730274300,2.2242744140625,-1.1157426834106445,-0.9998579025268555,-0.2057560831308365
1772721185748870400,2.242870361328125,-0.47734832763671875,-0.6815347075462341,0.02285199612379074
1772721185767466800,2.261466796875,0.32558155059814453,-0.6577050089836121,0.5888378024101257
1772721185786063000,2.28006298828125,0.8584957122802734,-0.7514243125915527,0.496279239654541
1772721185804659200,2.2986591796875,1.3075714111328125,-0.9008033275604248,-0.20573240518569946
1772721185823255600,2.317255615234375,0.9718236923217773,-1.005804419517517,-1.4450137615203857
1772721185841851600,2.3358515625,-0.03979015350341797,-0.8000153303146362,-2.198460102081299
1772721185860448000,2.354447998046875,-0.9779977798461914,-0.3681976795196533,-2.4791970252990723
1772721185879044400,2.37304443359375,-1.1656980514526367,0.08970701694488525,-2.322782278060913
1772721185897640400,2.391640380859375,-0.7101564407348633,0.25423628091812134,-1.962708830833435
1772721185916236500,2.410236572265625,-0.19647216796875,0.19999197125434875,-1.9606715440750122
1772721185934833000,2.4288330078125,-0.20426177978515625,-0.0035272836685180664,-2.039283275604248
1772721185953429200,2.44742919921875,-0.22469043731689453,-0.3051205575466156,-2.1924262046813965
1772721185972025300,2.466025390625,-0.14089584350585938,-0.5056880712509155,-2.2038190364837646
1772721185990621700,2.48462158203125,-0.5749692916870117,-0.6418555974960327,-2.126591205596924
1772721186009217800,2.5032177734375,-0.9756374359130859,-0.6602484583854675,-1.6889309883117676
1772721186027814100,2.521814208984375,-0.8497381210327148,-0.6016016006469727,-0.8336302042007446
1772721186046410500,2.540410400390625,-0.2544412612915039,-0.5496882796287537,0.10679272562265396
1772721186065006600,2.559006591796875,0.12120342254638672,-0.4270130693912506,0.6581326127052307
1772721186083602700,2.577602783203125,0.22970867156982422,-0.22430607676506042,0.4723159372806549
1772721186102199000,2.596198974609375,0.23310089111328125,-0.12478482723236084,0.020071446895599365
1772721186120795400,2.61479541015625,0.11477470397949219,-0.030486762523651123,-0.3757229447364807
1772721186139391500,2.6333916015625,0.26079654693603516,0.04975456744432449,-0.7931694984436035
1772721186157987800,2.65198779296875,0.5528650283813477,0.15931016206741333,-0.980284571647644
1772721186176584000,2.670583984375,0.7335109710693359,0.5288470983505249,-0.3439372181892395
1772721186195180300,2.68918017578125,0.3010568618774414,0.6576005816459656,0.32391631603240967
1772721186213776400,2.7077763671875,0.0045299530029296875,0.6541314721107483,0.7057482004165649
1772721186232372700,2.726372802734375,-0.28223133087158203,0.5370581746101379,0.8087473511695862
1772721186250968800,2.74496875,-0.6062812805175781,0.336374968290329,0.489284873008728
1772721186269565200,2.763565185546875,-0.6316318511962891,0.3748505115509033,0.24052006006240845
1772721186288161500,2.78216162109375,-0.6837186813354492,0.2900272607803345,-0.07945525646209717
1772721186306757600,2.800757568359375,-0.07897663116455078,0.511498212814331,0.17683649063110352
1772721186325353700,2.819353759765625,0.68994140625,0.5816485285758972,0.05692148208618164
1772721186343950000,2.8379501953125,0.7408771514892578,0.6562532782554626,-0.09116494655609131
1772721186362546400,2.85654638671875,0.2246532440185547,0.818590521812439,-0.04778146743774414
1772721186381142500,2.875142578125,-0.05344867706298828,0.8041739463806152,0.2754523754119873
1772721186399739000,2.89373876953125,0.13668251037597656,0.8260530233383179,0.32883453369140625
1772721186418335000,2.9123349609375,0.4055032730102539,0.9320335388183594,0.216841459274292
1772721186436931300,2.930931396484375,0.537806510925293,0.8673109412193298,-0.08548545837402344
1772721186455527400,2.94952734375,0.64923095703125,0.9845393300056458,-0.11422085762023926
1772721186474123800,2.968123779296875,-0.09782123565673828,0.938167154788971,-0.24420392513275146
1772721186492719900,2.986719970703125,-0.7424373626708984,0.848600447177887,-0.13683629035949707
1772721186511316200,3.005316162109375,-0.9572296142578125,0.8491685390472412,-0.07870179414749146
1772721186529912300,3.023912353515625,-1.0539884567260742,0.775484561920166,-0.3787585496902466
1772721186548508700,3.0425087890625,-0.4486503601074219,0.7588969469070435,-0.7132320404052734
1772721186567104800,3.061104736328125,0.9013051986694336,0.508048415184021,-1.159058690071106
1772721186585701000,3.079701171875,1.2352333068847656,0.2428855150938034,-1.3715946674346924
1772721186604297200,3.098297119140625,0.8961896896362305,-0.06588570773601532,-1.0234001874923706
1772721186622893600,3.1168935546875,0.5053653717041016,-0.22500485181808472,-0.4185435473918915
1772721186641489700,3.13548974609375,0.2634439468383789,-0.35115694999694824,0.3151240944862366
1772721186660086000,3.1540859375,0.2820768356323242,-0.24915096163749695,0.5540744066238403
1772721186678682000,3.17268212890625,0.7535228729248047,-0.3108578026294708,0.23939518630504608
1772721186697278500,3.191278564453125,1.010615348815918,-0.20165450870990753,-0.2513747811317444
1772721186715874600,3.20987451171875,0.9330978393554688,-0.13612358272075653,-0.4016539454460144
1772721186734471000,3.228470947265625,0.6446743011474609,-0.13474303483963013,-0.3452605605125427
1772721186753067000,3.24706689453125,0.2963714599609375,-0.14153999090194702,-0.20084720849990845
1772721186771663400,3.265663330078125,-0.04896259307861328,-0.17276431620121002,0.04983043670654297
1772721186790259500,3.284259521484375,-0.19868755340576172,-0.26028913259506226,0.13470220565795898
1772721186808855800,3.302855712890625,0.041957855224609375,-0.4900413155555725,-0.007616758346557617
1772721186827452000,3.321451904296875,0.037919044494628906,-0.8505936861038208,-0.6116067171096802
1772721186846048300,3.34004833984375,-0.41780567169189453,-1.2188420295715332,-1.116379976272583
1772721186864644400,3.358644287109375,-0.8743171691894531,-1.5970048904418945,-1.1510127782821655
1772721186883240700,3.37724072265625,-0.9715023040771484,-1.6911234855651855,-0.6381192803382874
1772721186901836800,3.3958369140625,-0.5712041854858398,-1.7210438251495361,-0.060741305351257324
1772721186920433000,3.414432861328125,0.09846973419189453,-1.822514295578003,0.4566088914871216
1772721186939029200,3.433029296875,0.6603384017944336,-1.8754091262817383,0.5665619969367981
1772721186957625600,3.45162548828125,0.4279041290283203,-1.6393318176269531,0.65129154920578
1772721186976221700,3.4702216796875,0.3879537582397461,-1.5244156122207642,0.18252407014369965
1772721186994817800,3.48881787109375,1.4150218963623047,-0.9818971753120422,0.684680700302124
1772721187013414100,3.5074140625,1.413121223449707,-0.785152792930603,0.42643874883651733
1772721187032010200,3.52601025390625,0.7297878265380859,-0.624824047088623,0.5170472264289856
1772721187050606600,3.544606689453125,0.10009288787841797,-0.29397159814834595,0.8492355346679688
1772721187069202700,3.56320263671875,-0.5020914077758789,0.14637035131454468,0.6675813794136047
1772721187087799000,3.581799072265625,-0.9350957870483398,0.27461522817611694,-0.07160249352455139
1772721187106395100,3.60039501953125,-0.8620462417602539,0.2812979221343994,-0.6714935302734375
1772721187124991500,3.618991455078125,-0.7009067535400391,0.33362025022506714,-0.8091611862182617
1772721187143587600,3.637587646484375,-0.4435262680053711,0.5489419102668762,-0.5104659199714661
1772721187162184000,3.656183837890625,-0.0010356903076171875,0.758116602897644,0.24985814094543457
1772721187180780000,3.674780029296875,0.2904024124145508,0.9845211505889893,1.022367000579834
1772721187199376100,3.693376220703125,-0.2887849807739258,0.7894405722618103,1.0889902114868164
1772721187217972500,3.711972412109375,-1.142930030822754,0.4096605181694031,0.5271055102348328
1772721187236568600,3.730568603515625,-1.7372207641601562,0.25750255584716797,0.06666398048400879
1772721187255165000,3.7491650390625,-1.7506160736083984,0.42075544595718384,0.3072682023048401
1772721187273761000,3.767760986328125,-1.0998830795288086,0.7516183853149414,1.094921588897705
1772721187292357400,3.786357421875,-0.3797464370727539,1.067380666732788,1.6576740741729736
1772721187310953500,3.804953369140625,-0.4233369827270508,1.143139123916626,1.5151348114013672
1772721187329549600,3.823549560546875,-0.7441205978393555,1.031969428062439,0.6953662037849426
1772721187348146000,3.84214599609375,-1.0349597930908203,0.8806105256080627,0.1372838020324707
1772721187366742300,3.8607421875,-1.205061912536621,0.8303786516189575,0.12106060981750488
1772721187385338400,3.87933837890625,-1.0358619689941406,0.8770398497581482,0.29833149909973145
1772721187403934500,3.8979345703125,-0.30012989044189453,0.9663412570953369,0.6782606840133667
1772721187422530800,3.91653076171875,1.026869773864746,0.8545875549316406,1.1912503242492676
1772721187441127000,3.935126953125,1.4084854125976562,0.578037679195404,1.3261737823486328
1772721187459723000,3.953722900390625,1.049147605895996,0.21595674753189087,1.6199690103530884
1772721187478319400,3.9723193359375,0.8466968536376953,-0.4029461741447449,2.348015308380127
1772721187496915500,3.99091552734375,0.9535999298095703,-0.8466359972953796,2.243618965148926
1772721187515511800,4.00951171875,1.2763071060180664,-0.9600517153739929,1.359050989151001
1772721187534108000,4.02810791015625,1.8509893417358398,-0.7237592339515686,0.1114538311958313
1772721187552704300,4.046704345703125,2.212270736694336,-0.3455691933631897,-1.0078017711639404
1772721187571300400,4.06530029296875,2.196953773498535,-0.27431729435920715,-1.6715898513793945
1772721187589896400,4.083896484375,2.224039077758789,-0.6519983410835266,-1.5276156663894653
1772721187608492800,4.102492919921875,0.90704345703125,-1.3348057270050049,-1.1589616537094116
1772721187627089000,4.1210888671875,-0.6484622955322266,-1.7158640623092651,-0.731645941734314
1772721187645685200,4.139685302734375,-2.1392483711242676,-2.10451078414917,-0.4478610157966614
1772721187664281300,4.15828125,-3.220489025115967,-1.889235258102417,-0.14850354194641113
1772721187682877700,4.176877685546875,-3.189974308013916,-1.7400879859924316,-0.03209078311920166
1772721187701473800,4.195473876953125,-2.1649694442749023,-1.7044322490692139,-0.1715022325515747
1772721187720070000,4.21406982421875,-1.090658187866211,-1.5566139221191406,-0.6328513622283936
1772721187738666200,4.232666259765625,-0.0627288818359375,-1.3108909130096436,-1.0013301372528076
1772721187757262300,4.251262451171875,0.3976860046386719,-1.1003203392028809,-1.6426547765731812
1772721187775858400,4.2698583984375,0.00994110107421875,-0.9652594923973083,-2.2420260906219482
1772721187794454800,4.288454833984375,-0.38556480407714844,-0.8556265830993652,-2.1337380409240723
1772721187813051000,4.30705078125,-0.18030643463134766,-0.7452011704444885,-1.7630656957626343
1772721187831647000,4.32564697265625,0.5614099502563477,-0.7212486863136292,-1.2721935510635376
1772721187850243300,4.344243408203125,1.2393169403076172,-0.7383066415786743,-0.7758196592330933
1772721187868839400,4.36283935546875,1.585352897644043,-0.7792560458183289,-0.3452935218811035
1772721187887435800,4.381435791015625,1.1818370819091797,-0.6293312311172485,-0.06529876589775085
1772721187906031900,4.400031982421875,0.4088878631591797,-0.5699481964111328,-0.4942595660686493
1772721187924628000,4.4186279296875,-0.016048431396484375,-0.5193235278129578,-1.148590087890625
1772721187943224300,4.437224365234375,-0.514124870300293,-0.5195482969284058,-1.7208634614944458
1772721187961820400,4.4558203125,-0.6954784393310547,-0.46868667006492615,-1.9931186437606812
1772721187980416500,4.47441650390625,-0.6738481521606445,-0.5215092301368713,-1.975008487701416
1772721187999012900,4.493012939453125,-0.59027099609375,-0.5655705332756042,-1.7723395824432373
1772721188017609000,4.51160888671875,-0.32649993896484375,-0.41733214259147644,-1.1986080408096313
1772721188036205000,4.530205078125,0.15050315856933594,-0.27819496393203735,-0.573256254196167
1772721188054801400,4.548801513671875,0.37117671966552734,-0.2353564351797104,-0.19473931193351746
1772721188073397500,4.5673974609375,0.1373157501220703,-0.24411046504974365,-0.2740190029144287
1772721188091993600,4.58599365234375,-0.31564807891845703,-0.19798824191093445,-0.28676456212997437
1772721188110590000,4.60458984375,-0.37245750427246094,-0.25368455052375793,-0.09616869688034058
1772721188129186000,4.62318603515625,0.21697998046875,-0.3922579288482666,0.05500364303588867
1772721188147782400,4.641782470703125,0.7023820877075195,-0.0834762454032898,0.43105506896972656
1772721188166378500,4.66037841796875,0.7862558364868164,0.087344229221344,0.426582008600235
1772721188184974600,4.678974609375,0.3515148162841797,0.3436756134033203,0.053720295429229736
1772721188203571000,4.697571044921875,-0.08205795288085938,0.38158443570137024,-0.7976884245872498
1772721188222167000,4.7161669921875,-0.7536821365356445,0.06700235605239868,-1.6468124389648438
1772721188240763100,4.73476318359375,-1.062906265258789,0.1543819159269333,-1.8306018114089966
1772721188259359500,4.753359375,-0.17447376251220703,0.9783374071121216,-0.756546139717102
1772721188277955600,4.77195556640625,0.4353933334350586,1.3670051097869873,-0.7997192144393921
1772721188296551700,4.7905517578125,0.31946849822998047,1.5481492280960083,-0.9903157949447632
1772721188315148000,4.80914794921875,0.33014965057373047,1.4087741374969482,-1.065735101699829
1772721188333744000,4.827744140625,0.45738887786865234,1.023153305053711,-1.0891815423965454
1772721188352340200,4.84634033203125,0.2591428756713867,0.47429728507995605,-0.9796141386032104
1772721188370936600,4.8649365234375,-0.20766544342041016,-0.1930525004863739,-1.164921522140503
1772721188389532700,4.88353271484375,-0.3211851119995117,-0.6336970329284668,-1.3255730867385864
1772721188408128800,4.902128662109375,-0.24300003051757812,-0.5351365208625793,-0.7767564654350281
1772721188426725000,4.92072509765625,-0.6211185455322266,-0.41276901960372925,-0.311516672372818
1772721188445321200,4.9393212890625,-0.9686574935913086,-0.5749542117118835,-0.24985235929489136
1772721188463917300,4.957917236328125,-1.3110466003417969,-0.8988957405090332,-0.1018989235162735
1772721188482513400,4.976513427734375,-1.047943115234375,-1.210956335067749,0.24860309064388275
1772721188501109800,4.99510986328125,-0.4568958282470703,-1.1730101108551025,0.2753629684448242
1772721188519705900,5.013705810546875,-0.14485454559326172,-1.0727968215942383,-0.4475727081298828
1772721188538302000,5.032302001953125,0.9915523529052734,-1.2180569171905518,-0.9475048780441284
1772721188556898300,5.050898193359375,1.9520454406738281,-1.6219912767410278,-0.8798878192901611
1772721188575494400,5.069494384765625,2.051065444946289,-1.9157147407531738,-0.9924306869506836
1772721188594090500,5.088090576171875,1.6492033004760742,-1.8624072074890137,-0.9417116045951843
1772721188612686800,5.106686767578125,1.058131217956543,-1.156038761138916,-0.04269760847091675
1772721188631283000,5.125282958984375,0.037627220153808594,-0.5906962156295776,1.253556728363037
1772721188649879000,5.143879150390625,-0.5542612075805664,-0.4939541220664978,2.2924187183380127
1772721188668475400,5.162475341796875,-1.1744394302368164,-0.7334707975387573,2.318485736846924
1772721188687071500,5.181071533203125,-1.4206552505493164,-0.5827100276947021,2.42482590675354
1772721188705667600,5.19966748046875,-1.0867509841918945,-0.09726619720458984,2.258502721786499
1772721188724264000,5.218263916015625,-0.3118476867675781,0.2999042272567749,2.120110034942627
1772721188742860000,5.236860107421875,0.44469738006591797,0.6146503686904907,2.0038225650787354
1772721188761456000,5.2554560546875,0.6094560623168945,0.5517960786819458,1.2966265678405762
1772721188780052200,5.27405224609375,0.6908798217773438,0.4052596092224121,0.3341273069381714
1772721188798648600,5.292648681640625,0.5894412994384766,0.11679244041442871,-0.42606014013290405
1772721188817244700,5.31124462890625,0.15343284606933594,-0.11475813388824463,-1.0026556253433228
1772721188835840800,5.3298408203125,-0.18872356414794922,-0.3609304428100586,-1.2348685264587402
1772721188854436900,5.348436767578125,-0.4325685501098633,-0.5588674545288086,-1.236424207687378
1772721188873033200,5.367033203125,-0.9087705612182617,-0.8968366980552673,-1.0148614645004272
1772721188891629300,5.38562939453125,-1.155949592590332,-1.1431552171707153,-0.4465354382991791
1772721188910225400,5.404225341796875,-1.1389284133911133,-1.2642353773117065,0.5583229064941406
1772721188928821800,5.42282177734375,-0.6762857437133789,-0.9958101511001587,1.326513648033142
1772721188947417900,5.44141796875,0.21139240264892578,-0.8090047836303711,1.5033607482910156
1772721188966014000,5.460013916015625,0.9284477233886719,-0.8624657392501831,1.171059489250183
1772721188984610000,5.478610107421875,1.5198726654052734,-0.9407735466957092,0.7273008823394775
1772721189003206100,5.4972060546875,1.4588251113891602,-0.7289505004882812,0.009912669658660889
1772721189021802200,5.51580224609375,0.9757156372070312,-0.15727633237838745,-0.6943376660346985
1772721189040398600,5.534398681640625,0.8206901550292969,0.30925148725509644,-1.2123667001724243
1772721189058994700,5.55299462890625,1.1711788177490234,0.6308844089508057,-1.1963516473770142
1772721189077590800,5.5715908203125,1.2916507720947266,0.7463884353637695,-1.0363496541976929
1772721189096187100,5.590187255859375,1.1035499572753906,0.7827380299568176,-0.7774449586868286
1772721189114783200,5.608783203125,0.6314706802368164,0.9822900295257568,-0.11501717567443848
1772721189133379300,5.62737939453125,-0.09795665740966797,0.975913405418396,0.3691852390766144
1772721189151975400,5.645975341796875,-0.639862060546875,0.8749679327011108,0.3536708354949951
1772721189170571500,5.664571533203125,-0.7354030609130859,0.8004748821258545,0.38297322392463684
1772721189189167900,5.68316796875,-0.5215244293212891,0.777267336845398,0.30974143743515015
1772721189207764000,5.701763916015625,-0.22736835479736328,0.8968415260314941,0.18171516060829163
1772721189226360000,5.720360107421875,-0.0049381256103515625,1.083422303199768,0.12257937341928482
1772721189244956400,5.738956298828125,-0.14008045196533203,1.0971860885620117,-0.02792687714099884
1772721189263552500,5.757552490234375,-0.5416889190673828,1.0699670314788818,-0.1861998289823532
1772721189282148600,5.776148681640625,-0.8712005615234375,0.9884262084960938,-0.12760140001773834
1772721189300744700,5.79474462890625,-0.9665966033935547,0.6955892443656921,-0.264548659324646
1772721189319340800,5.8133408203125,-0.8404016494750977,0.34578177332878113,-0.43730175495147705
1772721189337937200,5.831937255859375,-0.8435344696044922,0.08419723063707352,-0.34538957476615906
1772721189356533200,5.850533203125,-1.1135482788085938,0.1170048862695694,0.10207748413085938
1772721189375129300,5.86912939453125,-1.14398193359375,0.12157925963401794,0.6834956407546997
1772721189393725400,5.887725341796875,-1.005441665649414,0.17079254984855652,1.4866483211517334
1772721189412321500,5.906321533203125,-0.3221244812011719,0.39098846912384033,1.9621678590774536
1772721189430918000,5.92491796875,0.07940196990966797,0.7620229125022888,1.5361555814743042
1772721189449514000,5.943513916015625,-0.16406631469726562,1.2100763320922852,1.1171743869781494
1772721189468110000,5.962110107421875,-0.10467243194580078,1.4432531595230103,0.9411870241165161
1772721189486706200,5.9807060546875,0.33650779724121094,1.5455634593963623,0.8418311476707458
1772721189505302300,5.99930224609375,0.3105764389038086,1.605358600616455,1.0077433586120605
1772721189523898600,6.017898681640625,0.2163381576538086,1.627307415008545,1.1103318929672241
1772721189542494700,6.03649462890625,-0.07761764526367188,1.5945218801498413,1.1833643913269043
1772721189561090800,6.0550908203125,-0.09393882751464844,1.43325674533844,1.2671947479248047
1772721189579687000,6.07368701171875,0.17676162719726562,1.0106672048568726,1.0409250259399414
1772721189598283000,6.092282958984375,0.28926944732666016,1.030822515487671,0.5102813243865967
1772721189616879400,6.11087939453125,0.5392951965332031,0.9462116956710815,0.4389798045158386
1772721189635475500,6.129475341796875,0.823054313659668,0.5726615786552429,0.33034080266952515
1772721189654071600,6.148071533203125,0.8549060821533203,0.20776879787445068,-0.07175400853157043
1772721189672667600,6.166667724609375,0.8834848403930664,-0.19613856077194214,-0.33482733368873596
1772721189691263700,6.185263671875,0.8102293014526367,-0.478972464799881,-0.515252411365509
1772721189709860000,6.203860107421875,0.3773307800292969,-0.49895715713500977,-0.5599581003189087
1772721189728456200,6.222456298828125,-0.16283702850341797,-0.5374460816383362,-0.30235493183135986
1772721189747052000,6.241052001953125,0.1305227279663086,-0.6195768117904663,0.2408323884010315
1772721189765648400,6.2596484375,0.8552589416503906,-0.7361031174659729,1.0682132244110107
1772721189784244500,6.278244384765625,0.8702964782714844,-0.9422245025634766,1.242710828781128
1772721189802840600,6.296840576171875,0.9323129653930664,-1.0947058200836182,1.4621888399124146
1772721189821436700,6.315436767578125,-0.034149169921875,-1.2212029695510864,1.2209380865097046
1772721189840032800,6.33403271484375,-1.2150678634643555,-1.129868984222412,0.7092034816741943
1772721189858629000,6.352629150390625,-1.8483619689941406,-1.0942037105560303,0.19066369533538818
1772721189877225200,6.37122509765625,-1.330775260925293,-0.9269616007804871,-0.02557888627052307
1772721189895821300,6.3898212890625,-0.20740413665771484,-0.7584017515182495,-0.09005048871040344
1772721189914417400,6.40841748046875,0.46616077423095703,-0.7570586800575256,0.16645455360412598
1772721189933013500,6.427013427734375,-0.04533672332763672,-0.8070094585418701,0.16982892155647278
1772721189951609600,6.445609619140625,-0.8005533218383789,-0.8932601809501648,0.24522879719734192
1772721189970205700,6.464205810546875,-1.3076095581054688,-0.8759682178497314,0.01090831309556961
1772721189988802000,6.482802001953125,-1.2248725891113281,-0.621306300163269,-0.6792576909065247
1772721190007398100,6.501398193359375,-0.04168891906738281,-0.2926369309425354,-1.5660971403121948
1772721190025994200,6.519994140625,0.8728361129760742,0.059956759214401245,-2.243619680404663
1772721190044590300,6.53859033203125,1.083418846130371,0.35667699575424194,-2.521512269973755
1772721190063186400,6.5571865234375,0.7590360641479492,0.4376394748687744,-2.816068649291992
1772721190081782500,6.575782470703125,0.4848642349243164,0.3964429199695587,-3.0094845294952393
1772721190100378600,6.594378662109375,-0.03785419464111328,0.4977261424064636,-2.7404205799102783
1772721190118975000,6.61297509765625,-0.19170284271240234,0.4535571336746216,-2.320984363555908
1772721190137571000,6.631571044921875,-0.2770872116088867,0.2776796817779541,-2.0015532970428467
1772721190156167200,6.650167236328125,-0.5186338424682617,0.11889612674713135,-1.6223852634429932
1772721190174763300,6.66876318359375,-0.7073764801025391,0.1782442331314087,-0.8473117351531982
1772721190193359400,6.687359375,-0.7125473022460938,0.17018073797225952,-0.5194858312606812
1772721190211955500,6.70595556640625,-0.38450145721435547,-0.027454614639282227,-0.35436514019966125
1772721190230551600,6.724551513671875,-0.3288145065307617,-0.11473217606544495,-0.16101010143756866
1772721190249147600,6.743147705078125,-0.38393115997314453,-0.14018875360488892,0.02479700744152069
1772721190267743700,6.76174365234375,-0.17830181121826172,-0.23078465461730957,0.13513575494289398
1772721190286340000,6.780340087890625,-0.0984792709350586,-0.1912337839603424,0.05487024784088135
1772721190304936200,6.798936279296875,-0.09757614135742188,0.016184598207473755,0.021320372819900513
1772721190323532300,6.8175322265625,-0.1596822738647461,0.27742964029312134,0.2818874716758728
1772721190342128400,6.83612841796875,-0.16333293914794922,0.5852746367454529,0.4902086853981018
1772721190360724500,6.854724365234375,-0.24228572845458984,0.7870588302612305,0.7402132749557495
1772721190379320600,6.873320556640625,0.028833389282226562,0.9370331168174744,1.0276548862457275
1772721190397916700,6.891916748046875,0.6143245697021484,1.1328836679458618,1.0113089084625244
1772721190416512800,6.9105126953125,0.4933443069458008,1.2588648796081543,0.777527928352356
1772721190435108900,6.92910888671875,0.1864032745361328,1.3386545181274414,0.3360867500305176
1772721190453705000,6.947705078125,-0.044211387634277344,1.3135015964508057,0.2454519271850586
1772721190472301300,6.96630126953125,0.07471752166748047,1.1560688018798828,0.31210052967071533
1772721190490897200,6.984897216796875,0.020979881286621094,0.9403325915336609,0.3709813356399536
1772721190509493500,7.003493408203125,-0.02315521240234375,0.7994430661201477,0.3662736415863037
1772721190528089600,7.022089599609375,-0.004292488098144531,0.8708927631378174,0.4889252185821533
1772721190546685700,7.040685791015625,0.1120901107788086,1.133138656616211,0.6820297837257385
1772721190565281800,7.05928173828125,0.37410736083984375,1.302655577659607,0.9210546016693115
1772721190583878000,7.0778779296875,0.6498584747314453,1.5121122598648071,1.2904720306396484
1772721190602474000,7.096473876953125,0.6891317367553711,1.4226136207580566,1.0366194248199463
1772721190621070000,7.115070068359375,0.22810745239257812,1.1622860431671143,0.22781771421432495
1772721190639666200,7.133666259765625,-0.20789051055908203,0.8813021779060364,-0.4796285629272461
1772721190658262300,7.15226220703125,0.1604604721069336,0.6083008050918579,-1.105226755142212
1772721190676858400,7.1708583984375,0.9165506362915039,0.21048563718795776,-1.712430477142334
1772721190695454500,7.189454345703125,1.2193965911865234,0.13962259888648987,-1.7062180042266846
1772721190714050800,7.20805078125,1.489201545715332,-0.2600010633468628,-0.7954389452934265
1772721190732646700,7.226646728515625,1.7553434371948242,-0.9368060827255249,0.04505366086959839
1772721190751243000,7.245242919921875,1.3270978927612305,-1.6001008749008179,0.013219773769378662
1772721190769839000,7.263839111328125,-0.03503131866455078,-1.9326157569885254,-0.07855409383773804
1772721190788435200,7.282435302734375,-0.588897705078125,-1.9340898990631104,-0.05389738082885742
1772721190807031300,7.30103125,-0.514653205871582,-2.052438259124756,-0.14121907949447632
1772721190825627400,7.31962744140625,-0.026343345642089844,-2.0678772926330566,-0.51767498254776
1772721190844223500,7.338223388671875,0.4843111038208008,-2.0525689125061035,-0.9472536444664001
1772721190862819600,7.356819580078125,0.6857433319091797,-1.972977876663208,-0.8832539319992065
1772721190881415700,7.375415771484375,0.2241954803466797,-1.8203271627426147,-0.30444133281707764
1772721190900011800,7.39401171875,-0.3594970703125,-1.5951287746429443,0.4774183928966522
1772721190918608000,7.41260791015625,-0.7314748764038086,-1.1314396858215332,1.2545669078826904
1772721190937204000,7.431203857421875,-0.5228300094604492,-0.6947603225708008,2.0955567359924316
1772721190955800000,7.449800048828125,0.03302764892578125,-0.4110546410083771,2.058472156524658
1772721190974396200,7.468396240234375,0.9294252395629883,-0.4595886766910553,1.2263739109039307
1772721190992992300,7.4869921875,1.1561031341552734,-0.6838957071304321,0.039284706115722656
1772721191011588600,7.505588623046875,0.8171119689941406,-0.7909313440322876,-0.8751547336578369
1772721191030184400,7.524184326171875,-0.15052413940429688,-0.8419196605682373,-1.1955807209014893
1772721191048780800,7.54278076171875,-0.8546504974365234,-0.5719926357269287,-0.7813305854797363
1772721191067377000,7.561376953125,-0.5386695861816406,-0.39287447929382324,0.04287314414978027
1772721191085973000,7.579972900390625,-0.2142953872680664,-0.4651296138763428,0.6282221078872681
1772721191104569000,7.598569091796875,-0.23897457122802734,-0.4400496482849121,0.9066429138183594
1772721191123165200,7.617165283203125,-0.3362874984741211,-0.28272199630737305,1.0516761541366577
1772721191141761300,7.63576123046875,-0.2109832763671875,-0.06839156150817871,0.8471461534500122
1772721191160357400,7.654357421875,-0.35595703125,0.2031826376914978,0.3656926155090332
1772721191178953500,7.672953369140625,-1.244145393371582,0.47797465324401855,0.013844490051269531
1772721191197549600,7.691549560546875,-1.9195170402526855,0.7192383408546448,-0.14183056354522705
1772721191216145700,7.710145751953125,-1.3108692169189453,0.3714247941970825,-0.2893441915512085
1772721191234741800,7.72874169921875,-2.1401448249816895,0.1616411805152893,-0.14123496413230896
1772721191253337900,7.747337890625,0.21062088012695312,0.9412881731987,0.3802040219306946
1772721191271934000,7.765933837890625,1.387202262878418,0.16606509685516357,1.4989347457885742
1772721191290530000,7.784530029296875,0.9541282653808594,0.42548274993896484,1.9530940055847168
1772721191309126100,7.803126220703125,-0.5314340591430664,0.43932706117630005,1.5494201183319092
1772721191327722200,7.82172216796875,-1.1103391647338867,0.45515745878219604,0.947833776473999
1772721191346318300,7.840318359375,-1.2125120162963867,0.4036426544189453,0.5139936804771423
1772721191364914400,7.85891455078125,-0.953953742980957,0.40489664673805237,-0.1106167584657669
1772721191383510800,7.8775107421875,-0.48984813690185547,0.517227292060852,0.09390518069267273
1772721191402106600,7.896106689453125,0.16219234466552734,0.6360742449760437,0.8271818161010742
1772721191420703000,7.914702880859375,0.3948230743408203,0.7836531400680542,1.26316237449646
1772721191439298800,7.933298828125,0.12358283996582031,0.9049781560897827,1.061964750289917
1772721191457895200,7.951895263671875,0.08601951599121094,0.8157219886779785,0.8717337250709534
1772721191476491300,7.9704912109375,0.12389850616455078,0.8094595670700073,0.6982898712158203
1772721191495087400,7.98908740234375,0.27211475372314453,0.8230114579200745,0.7369572520256042
1772721191513683500,8.007683349609374,0.282928466796875,0.7775567173957825,0.8700737357139587
1772721191532279600,8.026279541015626,0.22736072540283203,0.5368075370788574,1.252776861190796
1772721191550875600,8.044875732421875,0.8385047912597656,0.17041441798210144,1.1777387857437134
1772721191569471700,8.0634716796875,1.7911033630371094,-0.41059020161628723,0.8517089486122131
1772721191588067800,8.08206787109375,1.8480024337768555,-0.8420842885971069,0.24791136384010315
1772721191606664000,8.100663818359376,1.178243637084961,-1.0520679950714111,-0.7064688205718994
1772721191625260000,8.119260009765625,0.8466014862060547,-1.1286112070083618,-1.126649022102356
1772721191643856100,8.137856201171875,0.5592374801635742,-1.0127546787261963,-1.074321985244751
1772721191662452200,8.1564521484375,0.0760650634765625,-1.090920090675354,-0.6590620875358582
1772721191681048300,8.17504833984375,0.3254537582397461,-1.1552093029022217,0.16873592138290405
1772721191699644400,8.19364453125,0.2637796401977539,-1.0399364233016968,0.8408363461494446
1772721191718240500,8.212240478515625,-0.17558956146240234,-1.1467585563659668,1.2350293397903442
1772721191736836600,8.230836669921874,-0.7446527481079102,-1.220365047454834,0.8536761999130249
1772721191755432700,8.2494326171875,-1.1272211074829102,-1.134727954864502,0.025129377841949463
1772721191774028800,8.26802880859375,-0.8687324523925781,-1.0273830890655518,-0.42948710918426514
1772721191792625000,8.286625,-0.49034786224365234,-0.9132270812988281,-0.7617688179016113
1772721191811221000,8.305220947265624,-0.293121337890625,-0.8097339272499084,-1.2159945964813232
1772721191829817000,8.323817138671876,-0.44324684143066406,-0.6999105215072632,-1.4187235832214355
1772721191848413200,8.3424130859375,-0.7942256927490234,-0.6235204935073853,-1.2898545265197754
1772721191867009300,8.36100927734375,-0.9183406829833984,-0.8387603163719177,-1.2048386335372925
1772721191885605400,8.37960546875,-0.7445096969604492,-0.938725471496582,-0.8827866315841675
1772721191904201500,8.398201416015626,-0.6412181854248047,-0.8491251468658447,-0.46063199639320374
1772721191922797600,8.416797607421875,-0.7871408462524414,-0.5294227600097656,-0.29235735535621643
1772721191941393700,8.4353935546875,-0.272796630859375,-0.36072349548339844,-0.39419567584991455
1772721191959989800,8.45398974609375,0.1028890609741211,-0.2272724062204361,-0.7915126085281372
1772721191978585900,8.4725859375,0.2221670150756836,-0.3513832688331604,-1.0588173866271973
1772721191997182000,8.491181884765625,0.5325326919555664,-0.40469488501548767,-1.1117162704467773
1772721192015778000,8.509778076171875,0.5475835800170898,-0.4096139371395111,-1.068715214729309
1772721192034374100,8.5283740234375,-0.07818031311035156,-0.3127461075782776,-0.9545331001281738
1772721192052970200,8.54697021484375,0.022017478942871094,0.2156420797109604,-0.49880170822143555
1772721192071566300,8.56556640625,0.058846473693847656,0.40654775500297546,-0.4678266644477844
1772721192090162400,8.584162353515625,0.4845876693725586,0.33472591638565063,-0.44027286767959595
1772721192108758500,8.602758544921874,1.1316871643066406,0.08136427402496338,-0.7841005921363831
1772721192127354600,8.621354736328126,0.3447914123535156,-0.020634450018405914,-0.9813358783721924
1772721192145950700,8.63995068359375,-0.6380805969238281,0.2185574471950531,-0.97685706615448
1772721192164546800,8.658546875,-0.9368104934692383,0.5370410680770874,-0.9535608291625977
1772721192183143000,8.677142822265624,-0.7501049041748047,0.7078540921211243,-0.31129464507102966
1772721192201739000,8.695739013671876,-0.4512205123901367,0.620943546295166,-0.23061281442642212
1772721192220335000,8.714335205078125,0.37126827239990234,0.6233871579170227,-0.3789631724357605
1772721192238931200,8.73293115234375,0.6285438537597656,0.5015538930892944,-0.07049499452114105
1772721192257527300,8.75152734375,0.7580842971801758,0.39459171891212463,0.21784642338752747
1772721192276123400,8.770123291015626,0.6932058334350586,0.11585429310798645,0.36658939719200134
1772721192294719500,8.788719482421875,0.37279319763183594,-0.008143186569213867,0.49221983551979065
1772721192313315600,8.807315673828125,0.016776084899902344,-0.06760133802890778,0.5988918542861938
1772721192331911700,8.82591162109375,-0.32318687438964844,-0.2150413691997528,0.5016714930534363
1772721192350507800,8.8445078125,-0.47312068939208984,-0.2304883897304535,0.4464394450187683
1772721192369103600,8.863103515625,-0.5598783493041992,-0.14548027515411377,0.308857262134552
1772721192387700000,8.881699951171875,-0.5800809860229492,-0.08768508583307266,0.13777665793895721
1772721192406295800,8.9002958984375,-0.3990945816040039,-0.1537749469280243,-0.09074637293815613
1772721192424892200,8.91889208984375,-0.23024845123291016,-0.1674492061138153,-0.2331887185573578
1772721192443488000,8.937488037109375,-0.01570892333984375,-0.06250038743019104,-0.07866838574409485
1772721192462084000,8.956083984375,-0.036273956298828125,0.044543519616127014,-0.04663485288619995
1772721192480680200,8.97468017578125,0.03220367431640625,0.35687166452407837,-0.05214893817901611
1772721192499276300,8.9932763671875,0.47687339782714844,0.682318925857544,0.03795546293258667
1772721192517872400,9.011872314453125,0.8127059936523438,0.7258517742156982,-0.05845707654953003
1772721192536468500,9.030468505859375,0.777033805847168,0.6189110279083252,-0.29698431491851807
1772721192555064600,9.049064697265624,0.41130733489990234,0.5461564064025879,-0.5474733114242554
1772721192573660700,9.06766064453125,0.023283958435058594,0.3700468838214874,-0.837716817855835
1772721192592256800,9.0862568359375,-0.2328176498413086,0.04522651806473732,-1.1781744956970215
1772721192610852900,9.104852783203125,-0.1889333724975586,-0.12287343293428421,-0.9318830966949463
1772721192629449000,9.123448974609374,-0.048758506774902344,-0.12688618898391724,-0.15464740991592407
1772721192648045000,9.142045166015626,-0.05084705352783203,-0.21561819314956665,0.7178772687911987
1772721192666641000,9.160640869140625,-0.16580581665039062,-0.48983055353164673,0.9523084759712219
1772721192685237200,9.1792373046875,-0.3047761917114258,-0.7347393035888672,0.6395775079727173
1772721192703833000,9.1978330078125,-0.43299007415771484,-0.6380079388618469,0.12146815657615662
1772721192722429200,9.21642919921875,-0.37378883361816406,-0.444466769695282,-0.43467628955841064
1772721192750323500,9.244323486328126,0.5684700012207031,-0.4706866145133972,-1.0110158920288086
1772721192768919600,9.26291943359375,1.0557975769042969,-0.6757189631462097,-0.8440043926239014
1772721192787515600,9.281515625,1.8270721435546875,-1.0625097751617432,-0.40659624338150024
1772721192806111700,9.30011181640625,2.2055625915527344,-1.5429075956344604,-0.13569489121437073
1772721192824707600,9.31870751953125,1.820547103881836,-1.8039852380752563,-0.012137889862060547
1772721192843303700,9.3373037109375,0.8073930740356445,-1.7153600454330444,0.3496664762496948
1772721192861899800,9.355899658203125,-0.23620223999023438,-1.535837173461914,0.529022216796875
1772721192880495900,9.374495849609374,-0.6242494583129883,-1.3853721618652344,0.5272191166877747
1772721192899092000,9.393092041015626,-0.5758695602416992,-1.4363839626312256,0.5274131894111633
1772721192917688000,9.41168798828125,-0.4825611114501953,-1.4631407260894775,0.560705304145813
1772721192936284200,9.4302841796875,-0.5051975250244141,-1.4960466623306274,0.8025100231170654
1772721192954880300,9.44888037109375,-0.6231670379638672,-1.1092610359191895,1.3202887773513794
1772721192973476000,9.46747607421875,-0.71112060546875,-0.6469669342041016,1.567672848701477
1772721192992072400,9.486072509765625,-0.6970090866088867,-0.33402276039123535,1.7523273229599
1772721193010668300,9.504668212890625,-0.12385177612304688,-0.11683958768844604,1.6223410367965698
1772721193029264400,9.523264404296874,0.3696126937866211,-0.11959105730056763,1.5053740739822388
1772721193047860500,9.541860595703126,0.5558223724365234,-0.171951025724411,0.9319607615470886
1772721193066456600,9.56045654296875,0.5345973968505859,-0.12184250354766846,0.17616021633148193
1772721193085052700,9.579052734375,0.43885326385498047,-0.1321890652179718,-0.5591105222702026
1772721193103648800,9.597648681640624,0.2307453155517578,-0.07210621237754822,-1.0664459466934204
1772721193122244900,9.616244873046876,-0.1415538787841797,-0.06606107950210571,-1.364132046699524
1772721193140841000,9.634841064453125,-0.6661863327026367,-0.0668153166770935,-1.2464293241500854
1772721193159437000,9.65343701171875,-1.039154052734375,0.15177223086357117,-0.7233759164810181
1772721193178033000,9.672032958984374,-0.9792318344116211,0.41779449582099915,0.15869435667991638
1772721193196629000,9.69062890625,-0.5132732391357422,0.6478229761123657,1.191171646118164
1772721193215225000,9.70922509765625,-0.26352882385253906,0.7960723638534546,1.6207668781280518
1772721193233821200,9.7278212890625,-0.37082958221435547,1.0217642784118652,1.504129409790039
1772721193252417300,9.746417236328124,-0.3786020278930664,1.1713099479675293,1.374808430671692
1772721193271013400,9.765013427734376,-0.43574047088623047,1.157313585281372,1.0056824684143066
1772721193289609500,9.783609375,-0.5542364120483398,1.0370780229568481,0.4878309369087219
1772721193308205300,9.802205322265625,-0.6798467636108398,1.0043258666992188,0.15332894027233124
1772721193326801400,9.820801513671874,-0.43798160552978516,1.0134814977645874,0.19002529978752136
1772721193345397500,9.8393974609375,-0.43633556365966797,1.1129226684570312,0.287314772605896
1772721193363993600,9.85799365234375,-0.7199897766113281,1.418517827987671,0.5133189558982849
1772721193382589700,9.876589599609375,-1.0195579528808594,1.5459413528442383,1.255125641822815
1772721193401185800,9.895185791015624,-1.1792669296264648,1.3543846607208252,2.021925926208496
1772721193419781600,9.91378173828125,-0.9984636306762695,1.1575881242752075,1.9437499046325684
1772721193438377700,9.932377685546875,-0.9393281936645508,1.0448375940322876,1.7551913261413574
1772721193456973800,9.950973876953125,-0.7128725051879883,0.9857335686683655,1.89291250705719
1772721193475570000,9.96956982421875,-0.18653202056884766,1.038343906402588,1.8886628150939941
1772721193494166000,9.988166015625,0.39643287658691406,1.0347000360488892,1.6710755825042725
1772721193512762000,10.00676220703125,0.9144458770751953,1.1699122190475464,1.2860400676727295
1772721193531358200,10.025358154296875,1.4071388244628906,1.1520047187805176,1.1230181455612183
1772721193549954000,10.0439541015625,1.986175537109375,0.740588366985321,1.1293187141418457
1772721193568550100,10.062550048828125,2.5143651962280273,0.5405588150024414,0.7998442053794861
1772721193587146200,10.081146240234375,2.5002384185791016,0.3451870083808899,0.5908980965614319
1772721193605742300,10.099742431640625,1.635049819946289,0.14453241229057312,-0.023959530517458916
1772721193624338400,10.11833837890625,1.0580320358276367,-0.07169057428836823,-0.6056181192398071
1772721193642934300,10.136934326171875,0.9119434356689453,-0.48806077241897583,-0.846777617931366
1772721193661530400,10.1555302734375,1.4996109008789062,-0.9134559035301208,-0.9092768430709839
1772721193680126500,10.17412646484375,1.6228666305541992,-1.4076343774795532,-0.7917830348014832
1772721193698722600,10.19272265625,0.7335538864135742,-1.4844146966934204,-0.6605732440948486
1772721193717318700,10.211318603515625,-0.6971282958984375,-1.4050692319869995,-0.3658074736595154
1772721193735914800,10.229914794921875,-1.5016651153564453,-1.241683006286621,-0.2575885057449341
1772721193754510600,10.248510498046874,-1.6664485931396484,-1.4383189678192139,-0.210540771484375
1772721193773106700,10.267106689453126,-1.9127683639526367,-1.6633551120758057,-0.15640437602996826
1772721193791702800,10.285702880859375,-2.016763687133789,-1.8444535732269287,-0.12456262111663818
1772721193810299000,10.304298828125,-1.362635612487793,-1.9585145711898804,0.11977565288543701
1772721193828895000,10.32289501953125,-0.7651338577270508,-2.060710906982422,-0.09306812286376953
1772721193847490800,10.34149072265625,-1.0165443420410156,-1.6228759288787842,-0.5010051131248474
1772721193866087000,10.3600869140625,-1.4296302795410156,-1.0510741472244263,-1.1964869499206543
1772721193884683000,10.37868310546875,-1.1455307006835938,-0.6953519582748413,-1.9594800472259521
1772721193903279000,10.397279052734374,-0.44653892517089844,-0.547890841960907,-2.7249488830566406
1772721193921875200,10.415875244140626,0.338043212890625,-0.5020992159843445,-2.683414936065674
1772721193940471000,10.434470947265625,0.9856977462768555,-0.10882346332073212,-2.225125789642334
1772721193959067100,10.453067138671875,1.4693622589111328,0.00587308406829834,-1.3049160242080688
1772721193977663200,10.471663330078124,1.8397254943847656,0.13553069531917572,-1.006826639175415
1772721193996259300,10.49025927734375,1.2147283554077148,0.15379101037979126,-1.3017308712005615
1772721194014855200,10.508855224609375,0.6320552825927734,0.3457971513271332,-1.3222814798355103
1772721194033451300,10.527451171875,0.1602344512939453,0.3541356027126312,-0.8334586024284363
1772721194052047400,10.54604736328125,0.22195720672607422,0.1525498926639557,-0.5589702129364014
1772721194070643500,10.5646435546875,0.11966705322265625,-0.3966160714626312,-1.0068788528442383
1772721194089239600,10.583239501953125,-0.6277694702148438,-0.8404742479324341,-1.1804217100143433
1772721194107835400,10.60183544921875,-1.0205631256103516,-0.40683305263519287,-0.24765551090240479
1772721194126431500,10.620431396484374,-0.9016647338867188,0.3076305687427521,0.3248889446258545
1772721194145027600,10.639027587890626,-0.7682647705078125,0.14458677172660828,0.11649936437606812
1772721194163623700,10.657623779296875,-0.34912109375,0.26173946261405945,-0.15386688709259033
1772721194182219800,10.6762197265625,-0.031264305114746094,0.263893187046051,-0.17046737670898438
1772721194200815600,10.694815673828124,0.03068065643310547,0.40084463357925415,-0.6284263134002686
1772721194219411700,10.71341162109375,0.2123584747314453,0.32961541414260864,-0.8013337850570679
1772721194238007800,10.7320078125,0.7047262191772461,0.18712514638900757,-0.6724115610122681
1772721194256604000,10.75060400390625,0.4738006591796875,0.28200072050094604,-0.9017094373703003
1772721194275199700,10.76919970703125,0.21584510803222656,0.4972057044506073,-1.0109764337539673
1772721194293795800,10.7877958984375,0.3710308074951172,0.9694672226905823,-0.1595897674560547
1772721194312392000,10.806391845703125,0.2113361358642578,0.42515572905540466,-0.16683585941791534
1772721194330988000,10.824988037109375,0.2966012954711914,0.2166752815246582,-0.21521514654159546
1772721194349584100,10.843584228515626,0.9531984329223633,0.056004881858825684,0.02749025821685791
1772721194368180000,10.862179931640625,0.9081592559814453,0.13989543914794922,0.08953149616718292
1772721194386776000,10.880776123046875,0.15700817108154297,0.59926438331604,-0.1521880328655243
1772721194405372200,10.8993720703125,-0.43218994140625,0.8391563892364502,0.016324065625667572
1772721194423968000,10.917968017578126,-0.6199579238891602,0.8562778830528259,0.07271942496299744
1772721194442564000,10.936564208984375,-0.24896812438964844,0.6912883520126343,-0.4849432110786438
1772721194461160200,10.95516015625,0.5941667556762695,0.4305429756641388,-0.5869288444519043
1772721194479756300,10.97375634765625,1.4825334548950195,0.15729165077209473,-0.6432151198387146
1772721194498352400,10.992352294921876,1.118927001953125,-0.24539804458618164,-0.9173498153686523
1772721194516948200,11.0109482421875,0.32311058044433594,-0.16187593340873718,-0.9747633337974548
1772721194535544300,11.02954443359375,-0.330963134765625,-0.08117493987083435,-0.4054538309574127
1772721194554140400,11.048140380859374,-0.7638607025146484,-0.13852891325950623,0.31101977825164795
1772721194572736500,11.066736572265626,-0.8956508636474609,-0.3077128231525421,0.3977256417274475
1772721194591332400,11.085332275390625,-0.7919206619262695,-0.1653297394514084,0.2969149947166443
1772721194609928400,11.103928466796875,-0.7726354598999023,-0.026066992431879044,0.14657407999038696
1772721194628524500,11.122524658203124,-0.41536998748779297,-0.1358458250761032,-0.07436865568161011
1772721194647120400,11.141120361328126,-0.013092994689941406,-0.34731191396713257,-0.3455204963684082
1772721194665716500,11.159716552734375,0.3966808319091797,-0.5992465615272522,0.1154680848121643
1772721194684312600,11.1783125,0.5438432693481445,-0.5173049569129944,0.36779695749282837
1772721194702908700,11.19690869140625,0.12143993377685547,-1.1052970886230469,-0.3105708956718445
1772721194721504800,11.2155048828125,-0.4671497344970703,-1.5090991258621216,-0.623499870300293
1772721194740100600,11.2341005859375,-0.16703319549560547,-1.0590282678604126,-0.7905815839767456
