time,seconds_elapsed,z,y,x
1772721183601002200,0.095002197265625,-0.21807873249053955,0.6559923887252808,-0.22533275187015533
1772721183619598600,0.1135986328125,-0.20127993822097778,0.6880627870559692,-0.28092142939567566
1772721183638195000,0.13219482421875,-0.19944734871387482,0.6465240120887756,-0.1960112303495407
1772721183656791000,0.150791015625,-0.24892739951610565,0.39820748567581177,-0.10987929999828339
1772721183675387400,0.169387451171875,-0.3992001414299011,0.03840812295675278,-0.06101011857390404
1772721183693983700,0.187983642578125,-0.5815432667732239,-0.14057525992393494,0.01107192412018776
1772721183712580000,0.206580078125,-0.7757982611656189,-0.15951207280158997,0.21601705253124237
1772721183731176400,0.225176513671875,-0.9669989347457886,-0.16714787483215332,0.4444804787635803
1772721183749772500,0.2437724609375,-1.0705405473709106,-0.07399099320173264,0.497320294380188
1772721183768369000,0.262368896484375,-1.0766491889953613,0.042073313146829605,0.3895026445388794
1772721183786965200,0.28096533203125,-1.0235038995742798,0.20822852849960327,0.24808746576309204
1772721183805561300,0.299561279296875,-0.9547816514968872,0.4574613571166992,0.10697769373655319
1772721183824157700,0.31815771484375,-0.8909462690353394,0.6843976378440857,-0.01824958436191082
1772721183842754000,0.336754150390625,-0.8258891701698303,0.7934370040893555,-0.104076087474823
1772721183861350400,0.355350341796875,-0.8387173414230347,0.722882091999054,-0.04329504072666168
1772721183879946500,0.373946533203125,-0.9593631625175476,0.5423715710639954,0.11950042098760605
1772721183898542800,0.39254296875,-1.1939351558685303,0.34903284907341003,0.2917642891407013
1772721183917139200,0.41113916015625,-1.4883720874786377,0.10193806141614914,0.43317949771881104
1772721183935735300,0.4297353515625,-1.6591087579727173,-0.08009964227676392,0.46769335865974426
1772721183954331600,0.44833154296875,-1.7345505952835083,-0.1992182731628418,0.39133524894714355
1772721183972928000,0.466927978515625,-1.7989968061447144,-0.32475098967552185,0.2606101930141449
1772721183991524400,0.4855244140625,-1.860999584197998,-0.36567893624305725,0.12347104400396347
1772721184010120400,0.504120361328125,-1.9233077764511108,-0.38095054030418396,0.0657443255186081
1772721184028716800,0.522716796875,-1.9275838136672974,-0.45853036642074585,0.08926261961460114
1772721184047313200,0.541313232421875,-1.820376992225647,-0.5171734094619751,0.12377647310495377
1772721184065909200,0.5599091796875,-1.7360776662826538,-0.451200008392334,0.10789398849010468
1772721184084505600,0.578505615234375,-1.7220277786254883,-0.3589594066143036,-0.09155336022377014
1772721184103102000,0.59710205078125,-1.719584345817566,-0.26763513684272766,-0.23021966218948364
1772721184121698000,0.615697998046875,-1.824653148651123,-0.19616395235061646,-0.10346522182226181
1772721184140294400,0.63429443359375,-1.8982622623443604,-0.25327980518341064,-0.06772962957620621
1772721184158890800,0.652890869140625,-1.8726060390472412,-0.3158934414386749,-0.0029779658652842045
1772721184177486800,0.67148681640625,-1.8927645683288574,-0.3699549734592438,0.14576761424541473
1772721184196083200,0.690083251953125,-1.8884884119033813,-0.41729700565338135,0.28779366612434387
1772721184214679600,0.708679443359375,-1.8542799949645996,-0.5135082006454468,0.34093889594078064
1772721184233276000,0.72727587890625,-1.792277216911316,-0.5950586795806885,0.2456440031528473
1772721184251872000,0.7458720703125,-1.7873903512954712,-0.589560866355896,0.06482802331447601
1772721184270468400,0.76446826171875,-1.8124357461929321,-0.4521162807941437,-0.11201732605695724
1772721184289064400,0.783064453125,-1.8322888612747192,-0.1683696061372757,-0.10285435616970062
1772721184307660800,0.801660888671875,-1.9443825483322144,0.011530072428286076,-0.018860450014472008
1772721184326257200,0.820257080078125,-1.9391902685165405,0.19448406994342804,-0.014584396965801716
1772721184344853500,0.838853515625,-1.898873209953308,0.3569740951061249,-0.053985174745321274
1772721184363449600,0.85744970703125,-1.7653992176055908,0.35300347208976746,-0.03138317912817001
1772721184382046000,0.8760458984375,-1.6233731508255005,0.2772562503814697,0.14943279325962067
1772721184400642000,0.89464208984375,-1.387579321861267,0.08697187155485153,0.2853502035140991
1772721184419238400,0.91323828125,-1.1856884956359863,0.07231111824512482,0.2700785994529724
1772721184437834800,0.931834716796875,-1.0781763792037964,-0.05658135190606117,0.27252206206321716
1772721184456431000,0.95043115234375,-1.0916153192520142,-0.16195552051067352,0.30520331859588623
1772721184475027200,0.969027099609375,-1.1643083095550537,-0.3323867917060852,0.3384954333305359
1772721184493623600,0.98762353515625,-1.183550477027893,-0.4560869038105011,0.2975675165653229
1772721184512219600,1.0062197265625,-1.303585410118103,-0.6057487726211548,0.20257803797721863
1772721184530816000,1.02481591796875,-1.4459168910980225,-0.692186176776886,0.08681915700435638
1772721184549412400,1.043412353515625,-1.6499457359313965,-0.7725148797035217,-0.04787652567028999
1772721184568008400,1.062008544921875,-1.9098687171936035,-0.7462477087974548,-0.15263983607292175
1772721184586604800,1.080604736328125,-2.1639885902404785,-0.6665298342704773,-0.2271653413772583
1772721184605201200,1.099201171875,-2.3365578651428223,-0.5122864842414856,-0.2632063627243042
1772721184623797200,1.11779736328125,-2.4294092655181885,-0.17172935605049133,-0.28733551502227783
1772721184642393600,1.1363935546875,-2.3478586673736572,0.20364704728126526,-0.29649847745895386
1772721184660990000,1.154989990234375,-2.0864086151123047,0.23144139349460602,-0.19326233863830566
1772721184679586000,1.1735859375,-1.9101741313934326,0.12209659814834595,-0.06559160351753235
1772721184698182400,1.192182373046875,-1.8228205442428589,0.04176788032054901,0.031230462715029716
1772721184716778500,1.210778564453125,-1.6252057552337646,-0.050778135657310486,0.07765618711709976
1772721184735374800,1.229374755859375,-1.3988803625106812,-0.15157082676887512,0.15523600578308105
1772721184753971200,1.24797119140625,-1.257465124130249,-0.22731806337833405,0.15981750190258026
1772721184772567300,1.2665673828125,-1.1878265142440796,-0.24686573445796967,0.08162680268287659
1772721184791163600,1.28516357421875,-1.1878265142440796,-0.19188790023326874,0.05199986323714256
1772721184809760000,1.303760009765625,-1.1924080848693848,-0.1011744812130928,0.05841394513845444
1772721184828356000,1.322356201171875,-1.2553271055221558,-0.024205517023801804,0.02756527252495289
1772721184846952400,1.340952392578125,-1.3784164190292358,-0.0034361144062131643,-0.11201732605695724
1772721184865548800,1.359548828125,-1.6520837545394897,-0.34460410475730896,-0.5365683436393738
1772721184884145000,1.378144775390625,-1.5015056133270264,-0.11369720846414566,-0.5713876485824585
1772721184902741200,1.3967412109375,-1.3747512102127075,-0.20288346707820892,-0.408592164516449
1772721184921337300,1.41533740234375,-1.2171480655670166,-0.3262781500816345,-0.29130613803863525
1772721184939933700,1.43393359375,-1.0949751138687134,-0.3898080885410309,-0.12606722116470337
1772721184958530000,1.452530029296875,-1.0054833889007568,-0.44264790415763855,0.011377356946468353
1772721184977126100,1.471126220703125,-0.9498947262763977,-0.48479756712913513,-0.07108938694000244
1772721184995722500,1.489722412109375,-0.971580445766449,-0.4457022249698639,-0.1966221034526825
1772721185014318600,1.508318603515625,-1.045189619064331,-0.33971717953681946,-0.21830779314041138
1772721185032915000,1.5269150390625,-1.1145228147506714,-0.20563235878944397,-0.15905392169952393
1772721185051511300,1.54551123046875,-1.137430191040039,-0.12316560745239258,-0.09308052062988281
1772721185070107400,1.564107421875,-1.1328487396240234,-0.05627591907978058,-0.009086613543331623
1772721185088703700,1.582703857421875,-1.0873392820358276,-0.0031306820455938578,0.05230529606342316
1772721185107300000,1.601300048828125,-1.0393863916397095,-0.028176138177514076,0.04069886729121208
1772721185125896200,1.619896240234375,-1.0131192207336426,-0.06910407543182373,-0.03565923124551773
1772721185144492500,1.638492431640625,-0.9193515181541443,-0.12316560745239258,-0.1300378441810608
1772721185163088600,1.657088623046875,-0.78648841381073,-0.17417281866073608,-0.170965775847435
1772721185181685000,1.67568505859375,-0.630107045173645,-0.1634826809167862,-0.1605810821056366
1772721185200281300,1.69428125,-0.46944957971572876,-0.12896881997585297,-0.13553562760353088
1772721185218877400,1.71287744140625,-0.3503309488296509,0.013668099418282509,-0.14866921305656433
1772721185237473800,1.731473876953125,-0.2816086709499359,0.13584105670452118,-0.2583194375038147
1772721185256070000,1.75006982421875,-0.2214384824037552,0.1859319657087326,-0.4476875364780426
1772721185274666200,1.768666259765625,-0.16646064817905426,0.21525347232818604,-0.4895317554473877
1772721185293262600,1.7872626953125,-0.13011419773101807,0.16485713422298431,-0.3032180070877075
1772721185311858700,1.805858642578125,-0.11698060482740402,0.040546149015426636,-0.03932442143559456
1772721185330455000,1.824455078125,-0.15149445831775665,-0.10178534686565399,0.16470441222190857
1772721185349051100,1.843051025390625,-0.15607595443725586,-0.29390230774879456,0.19463679194450378
1772721185367647500,1.8616474609375,-0.13072505593299866,-0.4194350242614746,0.09231694042682648
1772721185386243800,1.880243896484375,-0.06444623321294785,-0.446007639169693,-0.12087486684322357
1772721185404840000,1.89883984375,-0.003665188793092966,-0.24320054054260254,-0.3591121435165405
1772721185423436300,1.917436279296875,0.07116574794054031,-0.11400263756513596,-0.3917934000492096
1772721185442032400,1.936032470703125,0.18173226714134216,-0.019013166427612305,-0.2531270980834961
1772721185460628700,1.954628662109375,0.21991132199764252,0.16394083201885223,-0.10285435616970062
1772721185479225000,1.97322509765625,0.19853104650974274,0.38843363523483276,0.002825249684974551
1772721185497821200,1.9918212890625,0.17623448371887207,0.6535489559173584,0.025732679292559624
1772721185516417500,2.01041748046875,0.1695149689912796,0.8850666880607605,-0.06650790572166443
1772721185535013600,2.029013671875,0.16554436087608337,0.8917862176895142,-0.1862373948097229
1772721185553610000,2.04760986328125,0.20463970303535461,0.6999746561050415,-0.19448406994342804
1772721185572206300,2.066206298828125,0.22693626582622528,0.4110356271266937,-0.12240202724933624
1772721185590802400,2.084802490234375,0.17867794632911682,0.12209659814834595,-0.07261654734611511
1772721185609398800,2.103398681640625,0.0977383628487587,-0.08009964227676392,0.015958841890096664
1772721185627995000,2.121994873046875,0.08307760953903198,-0.189444437623024,0.07460185885429382
1772721185646591200,2.14059130859375,0.17287473380565643,-0.2447277009487152,0.07918334752321243
1772721185665187300,2.159187255859375,0.25961753726005554,-0.18516838550567627,0.04039343446493149
1772721185683783700,2.17778369140625,0.2623664140701294,0.04604393243789673,-0.04024071618914604
1772721185702379800,2.1963798828125,0.16157373785972595,0.26473352313041687,-0.17799071967601776
1772721185720976100,2.21497607421875,0.004276053514331579,0.4495201110839844,-0.2537379562854767
1772721185739572500,2.233572509765625,-0.17104214429855347,0.5747473835945129,-0.28580835461616516
1772721185758168600,2.25216845703125,-0.3851502537727356,0.6535489559173584,-0.22869250178337097
1772721185776765000,2.270764892578125,-0.5989528894424438,0.6196459531784058,-0.10590868443250656
1772721185795361000,2.289361083984375,-0.7189878225326538,0.3774380683898926,0.05352702736854553
1772721185813957400,2.307957275390625,-0.7254019379615784,-0.012293653562664986,0.24869832396507263
1772721185832553700,2.3265537109375,-0.6615665555000305,-0.3381900191307068,0.3519344627857208
1772721185851149800,2.34514990234375,-0.6032289862632751,-0.5086212754249573,0.2923751473426819
1772721185869746200,2.36374609375,-0.5729911923408508,-0.5742892622947693,0.15065452456474304
1772721185888342300,2.38234228515625,-0.6224712133407593,-0.5290852785110474,0.03917170315980911
1772721185906938600,2.400938720703125,-0.7021890878677368,-0.39133524894714355,0.04589121788740158
1772721185925534700,2.41953466796875,-0.7205150127410889,-0.21876594424247742,0.12163844704627991
1772721185944131000,2.438131103515625,-0.6487383842468262,-0.06268999725580215,0.13110685348510742
1772721185962727200,2.45672705078125,-0.5232056975364685,0.04787652567028999,0.16012293100357056
1772721185981323500,2.475323486328125,-0.3900371491909027,0.09980003535747528,0.18516838550567627
1772721185999919900,2.493919921875,-0.28069236874580383,0.17768529057502747,0.11339177191257477
1772721186018516000,2.512515869140625,-0.22510367631912231,0.2986365258693695,-0.01183550525456667
1772721186037112300,2.5311123046875,-0.2712239623069763,0.43913543224334717,-0.08788817375898361
1772721186055708400,2.54970849609375,-0.37781986594200134,0.5906298756599426,-0.05826122686266899
1772721186074304800,2.5683046875,-0.5018253922462463,0.6755400896072388,-0.013973532244563103
1772721186092900900,2.58690087890625,-0.5958985686302185,0.6883682608604431,0.024205517023801804
1772721186111497200,2.605497314453125,-0.66645348072052,0.6419425010681152,0.03275762498378754
1772721186130093300,2.62409326171875,-0.712573766708374,0.5668061375617981,-0.02130390889942646
1772721186148689700,2.642689697265625,-0.6780598759651184,0.4898371994495392,-0.03474293276667595
1772721186167286000,2.6612861328125,-0.6493492722511292,0.34903284907341003,0.03306305781006813
1772721186185882000,2.679882080078125,-0.72173672914505,0.21494804322719574,0.11736239492893219
1772721186204478200,2.698478271484375,-0.8368847370147705,0.16302454471588135,0.147905632853508
1772721186223074600,2.717074462890625,-0.9480621218681335,0.15172353386878967,0.13843722641468048
1772721186241671000,2.7356708984375,-1.0378592014312744,0.22930335998535156,0.09323323518037796
1772721186260267000,2.75426708984375,-1.0540472269058228,0.33345580101013184,-0.00755945174023509
1772721186278863400,2.77286328125,-1.0299180746078491,0.408592164516449,-0.12270746380090714
1772721186297459500,2.79145947265625,-0.9752455949783325,0.42447465658187866,-0.21800236403942108
1772721186316055800,2.810055908203125,-1.0122029781341553,0.3862956166267395,-0.18776455521583557
1772721186334652000,2.82865185546875,-1.0430516004562378,0.3044397234916687,-0.058566659688949585
1772721186353248300,2.847248291015625,-1.0882556438446045,0.19509494304656982,0.049861837178468704
1772721186371844400,2.86584423828125,-1.1035271883010864,0.0939968153834343,0.07276926934719086
1772721186390440700,2.884440673828125,-1.0818414688110352,-0.0012980876490473747,0.08193223923444748
1772721186409036800,2.903036865234375,-1.05496346950531,-0.08712458610534668,0.12499820441007614
1772721186427633200,2.921633056640625,-1.036332130432129,-0.3027598559856415,0.189444437623024
1772721186446229200,2.940229248046875,-1.0818414688110352,-0.4411207437515259,0.28870996832847595
1772721186464825600,2.95882568359375,-1.091309905052185,-0.5745946764945984,0.33941173553466797
1772721186483422000,2.977421875,-1.1197150945663452,-0.6659189462661743,0.31375542283058167
1772721186502018000,2.99601806640625,-1.1423171758651733,-0.7709876894950867,0.25755587220191956
1772721186520614100,3.0146142578125,-1.1249074935913086,-0.7657953500747681,0.13996438682079315
1772721186539210500,3.03321044921875,-1.0344995260238647,-0.7160098552703857,-0.021609341725707054
1772721186557806800,3.051806884765625,-0.9285144805908203,-0.7731257081031799,-0.012751801870763302
1772721186576403000,3.07040283203125,-0.815199077129364,-0.7807615399360657,0.14637847244739532
1772721186594999000,3.0889990234375,-0.7278453707695007,-0.617355227470398,0.22151483595371246
1772721186613595400,3.107595458984375,-0.7031053900718689,-0.3333030939102173,0.15126539766788483
1772721186632191700,3.126191650390625,-0.7412844300270081,0.042073313146829605,0.05322159454226494
1772721186650787800,3.144787841796875,-0.8408553600311279,0.37804892659187317,-0.03535379841923714
1772721186669384000,3.163384033203125,-0.9538653492927551,0.5668061375617981,-0.08177952468395233
1772721186687980300,3.181980224609375,-0.980132520198822,0.5548942685127258,-0.036880962550640106
1772721186706576600,3.20057666015625,-0.9205732345581055,0.3960694372653961,0.03214675933122635
1772721186725172700,3.2191728515625,-0.8295543789863586,0.20456334948539734,0.10178534686565399
1772721186743768800,3.237768798828125,-0.7183769941329956,-0.0012980876490473747,0.16134466230869293
1772721186762365200,3.256365234375,-0.6181951761245728,-0.1726456582546234,0.21540619432926178
1772721186780961500,3.27496142578125,-0.5323686599731445,-0.2957349121570587,0.2703840136528015
1772721186799557600,3.2935576171875,-0.4761691093444824,-0.40721774101257324,0.3693441152572632
1772721186818153700,3.31215380859375,-0.41905322670936584,-0.5541307330131531,0.5116755962371826
1772721186836750000,3.33075,-0.30604326725006104,-0.7028762698173523,0.6072759628295898
1772721186855346400,3.349346435546875,-0.16249002516269684,-0.7676279544830322,0.606970489025116
1772721186873942500,3.367942626953125,-0.037262752652168274,-0.7001274228096008,0.5107592940330505
1772721186892538600,3.38653857421875,0.009773836471140385,-0.56298828125,0.37667450308799744
1772721186911135000,3.405135009765625,0.019242240116000175,-0.4356229603290558,0.297872930765152
1772721186929731000,3.42373095703125,-0.039706211537122726,-0.28443390130996704,0.29970553517341614
1772721186948327400,3.442327392578125,-0.11881320178508759,0.009697478264570236,0.24167338013648987
1772721186966923500,3.460923583984375,-0.18661919236183167,0.2378554791212082,0.015042545273900032
1772721186985519900,3.479519775390625,-0.2153298407793045,0.3774380683898926,-0.14866921305656433
1772721187004116000,3.498115966796875,-0.35277441143989563,0.15874847769737244,0.002825249684974551
1772721187022712300,3.51671240234375,-0.3903425931930542,-0.16226094961166382,0.11125374585390091
1772721187041308400,3.535308349609375,-0.41294458508491516,-0.33483025431632996,0.15065452456474304
1772721187059904800,3.55390478515625,-0.4584540128707886,-0.40752315521240234,0.12499820441007614
1772721187078500900,3.5725009765625,-0.4523453712463379,-0.4756345748901367,0.06818778067827225
1772721187097097000,3.591096923828125,-0.33719736337661743,-0.5584067702293396,0.0193185992538929
1772721187115693300,3.609693359375,-0.19914191961288452,-0.5675697326660156,0.003741546766832471
1772721187134289400,3.628289306640625,-0.09285144507884979,-0.4805215001106262,-0.028328854590654373
1772721187152885800,3.6468857421875,-0.021991131827235222,-0.3326922357082367,-0.010919207707047462
1772721187171481900,3.66548193359375,-0.05345066636800766,-0.19555309414863586,0.11003202199935913
1772721187190078200,3.684078125,-0.19150610268115997,-0.038560837507247925,0.2349538654088974
1772721187208674300,3.70267431640625,-0.30146175622940063,0.06406444311141968,0.22334744036197662
1772721187227270700,3.721270751953125,-0.30604326725006104,0.0888044685125351,0.11308634281158447
1772721187245866800,3.73986669921875,-0.22968515753746033,0.01183550525456667,-0.030772313475608826
1772721187264463000,3.758463134765625,-0.18081597983837128,-0.09812015295028687,-0.1291215419769287
1772721187283059200,3.77705908203125,-0.2055560052394867,-0.2242637276649475,-0.11323905736207962
1772721187301655300,3.7956552734375,-0.27366742491722107,-0.3644571900367737,-0.020387612283229828
1772721187320251600,3.814251708984375,-0.30482152104377747,-0.4713585376739502,0.02756527252495289
1772721187338847700,3.83284765625,-0.2467893660068512,-0.47380200028419495,0.008628465235233307
1772721187357444000,3.851444091796875,-0.11484257876873016,-0.3937787115573883,-0.08483384549617767
1772721187376040200,3.870040283203125,0.02626718580722809,-0.2251800298690796,-0.24976733326911926
1772721187394636500,3.888636474609375,0.10751219838857651,-0.02390008419752121,-0.3713294267654419
1772721187413232600,3.907232666015625,0.1288924664258957,0.03535379841923714,-0.31604617834091187
1772721187431828700,3.925828857421875,0.0873536616563797,0.05062541738152504,-0.07017309218645096
1772721187450425000,3.944425048828125,0.04917461425065994,0.03657552972435951,0.08437569439411163
1772721187469021200,3.963021240234375,0.02626718580722809,0.14133884012699127,0.10850485414266586
1772721187487617500,3.981617431640625,-0.011911863461136818,0.4886154532432556,0.004657844081521034
1772721187506213600,4.000213623046875,-0.016798781231045723,0.7952696084976196,-0.1505018174648285
1772721187524810000,4.01881005859375,0.023212861269712448,0.8685733675956726,-0.2638172209262848
1772721187543406000,4.037406005859375,0.05406153202056885,0.7980184555053711,-0.24090979993343353
1772721187562002200,4.056002197265625,0.05803215503692627,0.6278926134109497,-0.14775292575359344
1772721187580598500,4.0745986328125,0.06383536756038666,0.3746891915798187,0.0449749194085598
1772721187599194600,4.093194580078125,0.06383536756038666,0.16210824251174927,0.32475098967552185
1772721187617790700,4.111790771484375,0.04428769648075104,-0.10300707072019577,0.4447859227657318
1772721187636387000,4.130386962890625,0.03481929376721382,-0.47838348150253296,0.4551706314086914
1772721187654983200,4.148983154296875,0.029626941308379173,-0.9805143475532532,0.30337071418762207
1772721187673579500,4.16757958984375,-0.03481929376721382,-1.3867393732070923,0.04741837829351425
1772721187692175600,4.186175537109375,-0.14538581669330597,-1.2874739170074463,-0.17218750715255737
1772721187710772000,4.20477197265625,-0.2608392536640167,-0.8565087914466858,-0.32307112216949463
1772721187729368000,4.2233681640625,-0.3955349326133728,-0.28260132670402527,-0.3853793144226074
1772721187747964200,4.241964111328125,-0.5482511520385742,0.34231334924697876,-0.32704174518585205
1772721187766560500,4.260560546875,-0.6508764028549194,0.8762091398239136,-0.23571744561195374
1772721187785156600,4.279156494140625,-0.6957749724388123,1.3517674207687378,-0.24121522903442383
1772721187803752700,4.297752685546875,-0.7302888631820679,1.6746094226837158,-0.3087157905101776
1772721187822349000,4.31634912109375,-0.7363975048065186,1.705458164215088,-0.34170249104499817
1772721187840945200,4.334945068359375,-0.7113520503044128,1.3383283615112305,-0.2671769857406616
1772721187859541500,4.35354150390625,-0.6991347670555115,0.7198277711868286,-0.08697187155485153
1772721187878137600,4.3721376953125,-0.7589994668960571,0.16638429462909698,0.11308634281158447
1772721187896734000,4.39073388671875,-0.8866702318191528,-0.19769111275672913,0.20257803797721863
1772721187915330000,4.409330078125,-0.9538653492927551,-0.3375791609287262,0.18058690428733826
1772721187933926100,4.427926025390625,-0.9532544612884521,-0.3067304790019989,0.12805253267288208
1772721187952522200,4.446522216796875,-0.8949168920516968,-0.20013457536697388,0.02695440873503685
1772721187971118600,4.46511865234375,-0.8121446967124939,-0.007101302966475487,-0.08788817375898361
1772721187989714700,4.483714599609375,-0.7137954831123352,0.19845469295978546,-0.18440480530261993
1772721188008310800,4.502310791015625,-0.629496157169342,0.30291256308555603,-0.22869250178337097
1772721188026907100,4.5209072265625,-0.620333194732666,0.34903284907341003,-0.2112828493118286
1772721188045503200,4.539503173828125,-0.6563742160797119,0.3667479455471039,-0.13339759409427643
1772721188064099300,4.558099365234375,-0.7064651250839233,0.3710239827632904,-0.05734493210911751
1772721188082695700,4.57669580078125,-0.7342594861984253,0.3291797637939453,-0.0680350661277771
1772721188101291800,4.595291748046875,-0.7672461867332458,0.28580835461616516,-0.14805835485458374
1772721188119888000,4.613887939453125,-0.8084795475006104,0.24457497894763947,-0.20028728246688843
1772721188138484200,4.632484130859375,-0.8820887207984924,0.2369391769170761,-0.1343138962984085
1772721188157080300,4.651080322265625,-1.05496346950531,0.13309216499328613,0.019013166427612305
1772721188175676700,4.6696767578125,-1.2641847133636475,0.032910339534282684,0.1992182731628418
1772721188194272800,4.688272705078125,-1.488066554069519,-0.10819942504167557,0.2975675165653229
1772721188212868900,4.706868896484375,-1.5934407711029053,-0.07338013499975204,0.23220497369766235
1772721188231465200,4.72546533203125,-1.5326597690582275,0.00603228947147727,0.05810851231217384
1772721188250061300,4.744061279296875,-1.536630392074585,-0.0009926552884280682,-0.05917752534151077
1772721188268657400,4.762657470703125,-1.6795727014541626,-0.0553596206009388,-0.006948587018996477
1772721188287253800,4.781253662109375,-1.8258748054504395,-0.11094831675291061,0.06238456442952156
1772721188305849900,4.799849853515625,-1.9804235696792603,-0.16623157262802124,0.10209077596664429
1772721188324446000,4.818446044921875,-2.087019443511963,-0.21510076522827148,0.18974986672401428
1772721188343042300,4.837042236328125,-2.03723406791687,-0.20502148568630219,0.3070359230041504
1772721188361638400,4.855638427734375,-1.8555017709732056,-0.2709949016571045,0.37545275688171387
1772721188380234500,4.874234375,-1.583056092262268,-0.35529422760009766,0.3745364546775818
1772721188398830800,4.892830810546875,-1.3026691675186157,-0.5443568825721741,0.41179922223091125
1772721188417427000,4.911427001953125,-1.2034035921096802,-0.6680569648742676,0.41210466623306274
1772721188436023000,4.93002294921875,-1.2409718036651611,-0.6949350237846375,0.3427715003490448
1772721188454619400,4.948619384765625,-1.344208002090454,-0.617355227470398,0.24686573445796967
1772721188473215500,4.967215576171875,-1.498756766319275,-0.42707082629203796,0.1329394429922104
1772721188491811600,4.9858115234375,-1.6661336421966553,-0.10483966767787933,0.08132137358188629
1772721188510407700,5.00440771484375,-1.7486004829406738,0.19204062223434448,0.025732679292559624
1772721188529004000,5.023004150390625,-1.626121997833252,0.36888596415519714,-0.026190826669335365
1772721188547600100,5.04160009765625,-1.3817760944366455,0.5200750231742859,0.07399099320173264
1772721188566196200,5.0601962890625,-1.138651967048645,0.520991325378418,0.2813795804977417
1772721188584792600,5.07879248046875,-0.9233221411705017,0.30260714888572693,0.5159516930580139
1772721188603388700,5.097388671875,-0.8176425099372864,0.0029779658652842045,0.7483857274055481
1772721188621984800,5.11598486328125,-0.9080504775047302,-0.3009272515773773,0.8507055640220642
1772721188640581000,5.1345810546875,-1.1881320476531982,-0.4560869038105011,0.8229112029075623
1772721188659177200,5.15317724609375,-1.508836030960083,-0.43867728114128113,0.6491202116012573
1772721188677773300,5.171773193359375,-1.691789984703064,-0.3021489977836609,0.39225155115127563
1772721188696369700,5.19036962890625,-1.8182389736175537,-0.27801984548568726,0.19494222104549408
1772721188714965800,5.2089658203125,-1.8939862251281738,-0.4597521126270294,0.05994110554456711
1772721188733561900,5.227561767578125,-1.92666757106781,-0.6842449307441711,0.059024810791015625
1772721188752158200,5.246158203125,-1.9245294332504272,-0.9084323048591614,0.10697769373655319
1772721188770754300,5.26475439453125,-1.8655810356140137,-1.1112394332885742,0.11369720846414566
1772721188789350400,5.283350341796875,-1.7528765201568604,-1.1613303422927856,0.12102758139371872
1772721188807946500,5.301946533203125,-1.6120721101760864,-1.1188751459121704,0.09476039558649063
1772721188826542600,5.32054248046875,-1.4666863679885864,-0.9792925715446472,0.02237292192876339
1772721188845139000,5.339138916015625,-1.321911334991455,-0.8861356973648071,-0.042073313146829605
1772721188863735000,5.357735107421875,-1.191797137260437,-0.8638391494750977,-0.08269581943750381
1772721188882331100,5.3763310546875,-1.0833686590194702,-0.747469425201416,-0.18806999921798706
1772721188900927500,5.394927490234375,-1.0338886976242065,-0.4365392327308655,-0.33834272623062134
1772721188919523600,5.413523681640625,-1.0968077182769775,-0.07246383279561996,-0.5368737578392029
1772721188938119700,5.43211962890625,-1.2513564825057983,0.25984659790992737,-0.6675988435745239
1772721188956716000,5.450716064453125,-1.424842119216919,0.5130500793457031,-0.6978366374969482
1772721188975312100,5.46931201171875,-1.580001711845398,0.71463543176651,-0.6346121430397034
1772721188993908200,5.487908203125,-1.6887357234954834,0.8893427848815918,-0.5017490386962891
1772721189012504300,5.50650439453125,-1.7040072679519653,0.9348521828651428,-0.46051567792892456
1772721189031100400,5.525100341796875,-1.634368658065796,0.871627688407898,-0.4996110200881958
1772721189049696500,5.543696533203125,-1.508836030960083,0.6862302422523499,-0.5099957585334778
1772721189068292900,5.56229296875,-1.4010183811187744,0.45135271549224854,-0.45043641328811646
1772721189086889000,5.580888916015625,-1.293506145477295,0.2070067971944809,-0.3401753306388855
1772721189105485000,5.599485107421875,-1.2131774425506592,-0.06971494108438492,-0.19204062223434448
1772721189124081400,5.618081298828125,-1.230587124824524,-0.23800818622112274,-0.08697187155485153
1772721189142677500,5.636677490234375,-1.2825106382369995,-0.23831361532211304,-0.08391755074262619
1772721189161273600,5.655273681640625,-1.3176352977752686,-0.13629920780658722,-0.1605810821056366
1772721189179869700,5.67386962890625,-1.3277145624160767,0.02588539570569992,-0.22869250178337097
1772721189198465800,5.6924658203125,-1.3054180145263672,0.10621411353349686,-0.23510658740997314
1772721189217062100,5.711062255859375,-1.2779290676116943,0.06650790572166443,-0.18501566350460052
1772721189235658200,5.729658203125,-1.240666389465332,-0.019013166427612305,-0.10132719576358795
1772721189254254300,5.74825439453125,-1.1661409139633179,-0.11583523452281952,-0.04940368980169296
1772721189272850400,5.766850341796875,-1.0558797121047974,-0.23128867149353027,-0.04909825697541237
1772721189291446500,5.785446533203125,-0.9092722535133362,-0.3672060966491699,-0.07597630470991135
1772721189310043000,5.80404296875,-0.7211259007453918,-0.5321395993232727,-0.07231111824512482
1772721189328639000,5.822638916015625,-0.5262600183486938,-0.6662244200706482,-0.0191658828407526
1772721189347235000,5.841235107421875,-0.3860665261745453,-0.6329322457313538,-0.011530072428286076
1772721189365831200,5.8598310546875,-0.3283398151397705,-0.4707476794719696,-0.07658717036247253
1772721189384427300,5.87842724609375,-0.379347026348114,-0.18119776248931885,-0.17371466755867004
1772721189403023600,5.897023681640625,-0.5632173418998718,0.114460788667202,-0.25984659790992737
1772721189421619700,5.91561962890625,-0.7730493545532227,0.26106834411621094,-0.21036656200885773
1772721189440215800,5.9342158203125,-0.9217949509620667,0.22594361007213593,-0.12759438157081604
1772721189458812200,5.952812255859375,-1.0180062055587769,0.06436987966299057,-0.0781143307685852
1772721189477408300,5.971408203125,-1.0665699243545532,-0.12163844704627991,0.013209951110184193
1772721189496004400,5.99000439453125,-1.0720677375793457,-0.28809911012649536,0.1427132785320282
1772721189514600400,6.008600341796875,-1.047938585281372,-0.43317949771881104,0.2300669401884079
1772721189533196500,6.027196533203125,-0.9880737662315369,-0.4698313772678375,0.2859610617160797
1772721189551792600,6.045792724609375,-0.9117156863212585,-0.4502837061882019,0.28260132670402527
1772721189570388700,6.064388671875,-0.8414662480354309,-0.31467172503471375,0.27985242009162903
1772721189588985000,6.082985107421875,-0.7822123765945435,-0.05261072888970375,0.24594943225383759
1772721189607581200,6.101581298828125,-0.7162389755249023,0.16638429462909698,0.20563235878944397
1772721189626177300,6.12017724609375,-0.6695078015327454,0.37865981459617615,0.2086866796016693
1772721189644773400,6.1387734375,-0.5772672295570374,0.6208676695823669,0.20074543356895447
1772721189663369500,6.157369384765625,-0.4321868419647217,0.7955750226974487,0.14057525992393494
1772721189681965800,6.1759658203125,-0.2770271897315979,0.8682679533958435,0.10270164161920547
1772721189700562000,6.19456201171875,-0.12461641430854797,0.8380300998687744,0.095982126891613
1772721189719158000,6.213157958984375,-0.00946840364485979,0.6978366374969482,0.04528035223484039
1772721189737754000,6.231754150390625,0.03848448023200035,0.500832736492157,-0.030466880649328232
1772721189756350200,6.25035009765625,0.010079269297420979,0.32246023416519165,0.029397867619991302
1772721189774946300,6.2689462890625,-0.09529490768909454,0.20975568890571594,0.13965895771980286
1772721189793542700,6.287542724609375,-0.18173226714134216,0.06772962957620621,0.23861905932426453
1772721189812138800,6.306138671875,-0.2706131041049957,-0.019013166427612305,0.34582582116127014
1772721189830734800,6.32473486328125,-0.3381136655807495,-0.0709366723895073,0.27282747626304626
1772721189849331000,6.3433310546875,-0.3894262909889221,-0.10606139898300171,0.05108356848359108
1772721189867927000,6.361927001953125,-0.4324922561645508,-0.1677587330341339,-0.1602756530046463
1772721189886523100,6.380523193359375,-0.536339282989502,-0.2722166180610657,-0.22563818097114563
1772721189905119200,6.399119140625,-0.6517927050590515,-0.3320813775062561,-0.09949459880590439
1772721189923715600,6.417715576171875,-0.7910698652267456,-0.34490951895713806,0.06330086290836334
1772721189942311700,6.436311767578125,-0.9004147052764893,-0.3015381395816803,0.07796161621809006
1772721189960907800,6.45490771484375,-0.9938769936561584,-0.17539454996585846,-0.027107125148177147
1772721189979503900,6.47350390625,-1.0403027534484863,-0.07796161621809006,-0.21555891633033752
1772721189998100000,6.492099853515625,-1.0650427341461182,-0.07399099320173264,-0.32765260338783264
1772721190016696000,6.510696044921875,-1.0424407720565796,-0.16562071442604065,-0.26626068353652954
1772721190035292200,6.529292236328125,-0.9880737662315369,-0.2554178237915039,-0.10529781877994537
1772721190053888500,6.547888427734375,-0.9309579133987427,-0.260915607213974,0.03581194952130318
1772721190072484600,6.566484619140625,-0.8225294351577759,-0.2144898921251297,0.12499820441007614
1772721190091080700,6.585080810546875,-0.6563742160797119,-0.17081306874752045,0.18272492289543152
1772721190109676800,6.6036767578125,-0.4987711012363434,-0.1839466542005539,0.17203480005264282
1772721190128273000,6.62227294921875,-0.33750277757644653,-0.14698933064937592,0.17172935605049133
1772721190146869000,6.640868896484375,-0.18417572975158691,-0.10697769373655319,0.13141228258609772
1772721190165465000,6.659465087890625,-0.04428769648075104,-0.005268708802759647,0.0703258067369461
1772721190184061400,6.6780615234375,0.03298669680953026,0.07139482349157333,-0.014278964139521122
1772721190202657500,6.696657470703125,0.08460476994514465,0.15263983607292175,-0.07444914430379868
1772721190221253600,6.715253662109375,0.12431098520755768,0.28733551502227783,-0.08269581943750381
1772721190239849700,6.733849609375,0.11728604137897491,0.4073704481124878,-0.11629338562488556
1772721190258445800,6.75244580078125,0.05742128938436508,0.5084685683250427,-0.17951788008213043
1772721190277042000,6.7710419921875,-0.0030543238390237093,0.6440805792808533,-0.19356778264045715
1772721190295638000,6.789637939453125,-0.05070177838206291,0.7421243786811829,-0.2118937224149704
1772721190314234000,6.808234130859375,-0.11698060482740402,0.8126792311668396,-0.2176969349384308
1772721190332830200,6.826830322265625,-0.22693626582622528,0.8013782501220703,-0.2375500351190567
1772721190351426300,6.84542626953125,-0.35155269503593445,0.7546470761299133,-0.2515999376773834
1772721190370022400,6.8640224609375,-0.4923570156097412,0.6159807443618774,-0.28214317560195923
1772721190388618500,6.882618408203125,-0.6417134404182434,0.427528977394104,-0.23021966218948364
1772721190407214800,6.90121484375,-0.749531090259552,0.24885104596614838,-0.1401171088218689
1772721190425811000,6.91981103515625,-0.776103675365448,0.11659881472587585,-0.10346522182226181
1772721190444407000,6.938406982421875,-0.7287616729736328,0.08513928204774857,-0.11873684078454971
1772721190463003100,6.957003173828125,-0.656679630279541,0.09216422587633133,-0.13858994841575623
1772721190481599200,6.97559912109375,-0.5626064538955688,0.1251509189605713,-0.13156500458717346
1772721190500195300,6.9941953125,-0.4740310609340668,0.15630502998828888,-0.1346193253993988
1772721190518791400,7.01279150390625,-0.40714138746261597,0.19265148043632507,-0.1553887277841568
1772721190537387500,7.031387451171875,-0.41386088728904724,0.1856265366077423,-0.1764635592699051
1772721190555983600,7.049983642578125,-0.5119046568870544,0.12759438157081604,-0.16943861544132233
1772721190574579700,7.068579833984375,-0.6801979541778564,0.027717988938093185,-0.11354449391365051
1772721190593175800,7.08717578125,-0.9040798544883728,-0.13416117429733276,0.003741546766832471
1772721190611772200,7.105772216796875,-1.0787872076034546,-0.21235187351703644,0.1164461001753807
1772721190630368300,7.1243681640625,-1.1603376865386963,-0.1326340138912201,0.11033745110034943
1772721190648964400,7.14296435546875,-1.1557561159133911,-0.17203480005264282,0.10911571979522705
1772721190667560400,7.161560546875,-1.0262528657913208,-0.45364347100257874,0.21662792563438416
1772721190686156500,7.180156494140625,-0.7550288438796997,-0.7300597429275513,0.3384954333305359
1772721190704752600,7.198752685546875,-0.46883872151374817,-0.765489935874939,0.3983601927757263
1772721190723348700,7.2173486328125,-0.30970844626426697,-0.49273881316185,0.41699156165122986
1772721190741944800,7.23594482421875,-0.25381430983543396,-0.12591449916362762,0.4554760456085205
1772721190760541000,7.254541015625,-0.22663083672523499,0.19509494304656982,0.4466184973716736
1772721190779137000,7.273136962890625,-0.2608392536640167,0.3407861888408661,0.3116174042224884
1772721190797733000,7.291733154296875,-0.3298669755458832,0.3603338599205017,0.1842520833015442
1772721190816329500,7.31032958984375,-0.3814850449562073,0.34842199087142944,0.11766783148050308
1772721190834925300,7.32892529296875,-0.34238970279693604,0.26167920231819153,0.12469277530908585
1772721190853521400,7.347521484375,-0.23762640357017517,0.1349247545003891,0.2135736048221588
1772721190872117800,7.36611767578125,-0.12064579129219055,-0.02176205813884735,0.33941173553466797
1772721190890713600,7.384713623046875,-0.07269290834665298,-0.1582903414964676,0.3879754841327667
1772721190909310000,7.40331005859375,-0.1081230640411377,-0.3012326955795288,0.3485747277736664
1772721190927906000,7.421906005859375,-0.24923282861709595,-0.33421939611434937,0.24197880923748016
1772721190946502100,7.440502197265625,-0.4676169753074646,-0.1931096315383911,0.11736239492893219
1772721190965098200,7.45909814453125,-0.6707295179367065,-0.05474875494837761,0.06360629200935364
1772721190983694300,7.4776943359375,-0.7449495792388916,-0.0031306820455938578,0.11430807411670685
1772721191002290400,7.49629052734375,-0.6698132157325745,-0.03886627033352852,0.19738568365573883
1772721191020886500,7.514886474609375,-0.5100721120834351,-0.05413788929581642,0.2303723841905594
1772721191039482600,7.533482666015625,-0.3381136655807495,-0.05780307948589325,0.1421024203300476
1772721191058078700,7.55207861328125,-0.2513708472251892,-0.051389001309871674,0.005574141163378954
1772721191076674800,7.5706748046875,-0.231212317943573,-0.06727148592472076,-0.00847574882209301
1772721191095271000,7.58927099609375,-0.2263254076242447,-0.13660463690757751,0.03367391973733902
1772721191113867000,7.607866943359375,-0.22235478460788727,-0.2658025324344635,0.06330086290836334
1772721191132463000,7.626463134765625,-0.2263254076242447,-0.40721774101257324,0.08987347781658173
1772721191151059500,7.6450595703125,-0.23182319104671478,-0.4652498960494995,0.147905632853508
1772721191169655300,7.6636552734375,-0.21838416159152985,-0.38217228651046753,0.12927426397800446
1772721191188251600,7.682251708984375,-0.20769402384757996,-0.25266894698143005,-0.055512335151433945
1772721191206847500,7.700847412109375,-0.17867794632911682,-0.1778380125761032,-0.2876409590244293
1772721191225443800,7.71944384765625,-0.07422006875276566,0.14744748175144196,-0.38996079564094543
1772721191244040000,7.7380400390625,0.11178825795650482,-0.20288346707820892,-0.6709585785865784
1772721191262636000,7.756635986328125,0.1545487940311432,-0.41668614745140076,-0.3551415205001831
1772721191281232100,7.775232177734375,0.08368847519159317,-0.6097193956375122,-0.01977674663066864
1772721191299828200,7.793828125,-0.036651886999607086,-0.6766090989112854,0.116751529276371
1772721191318424300,7.81242431640625,-0.11331541836261749,-0.7102066874504089,0.06727148592472076
1772721191337020400,7.8310205078125,-0.1490510106086731,-0.7257837057113647,-0.0057268571108579636
1772721191355616500,7.849616455078125,-0.17531819641590118,-0.6289616227149963,-0.09644027799367905
1772721191374212600,7.868212646484375,-0.11881320178508759,-0.492127925157547,-0.1758527010679245
1772721191392808700,7.88680859375,-0.08582650125026703,-0.3223075270652771,-0.1654679924249649
1772721191411404800,7.90540478515625,-0.09529490768909454,-0.19646938145160675,-0.06436987966299057
1772721191430001000,7.9240009765625,-0.11698060482740402,-0.14118611812591553,-0.002672533504664898
1772721191448597000,7.942596923828125,-0.09682206809520721,-0.11217004805803299,0.0016035200096666813
1772721191467193000,7.961193115234375,-0.032681263983249664,-0.10911571979522705,0.007101302966475487
1772721191485789200,7.9797890625,0.04673115536570549,-0.1476002037525177,0.03153589367866516
1772721191504385300,7.99838525390625,0.12217295914888382,-0.20074543356895447,0.070631243288517
1772721191522981400,8.0169814453125,0.15699224174022675,-0.08162680268287659,0.07215840369462967
1772721191541577500,8.035577392578125,0.14538581669330597,0.18471023440361023,-0.030466880649328232
1772721191560173600,8.054173583984374,0.14049890637397766,0.39942920207977295,-0.03810269013047218
1772721191578769700,8.072769775390626,0.16187916696071625,0.6086503863334656,0.05352702736854553
1772721191597365800,8.09136572265625,0.22296564280986786,0.7940478324890137,0.09017891436815262
1772721191615961900,8.1099619140625,0.32528549432754517,0.845360517501831,0.04130972921848297
1772721191634558200,8.12855810546875,0.3787361681461334,0.6737074851989746,0.01259908638894558
1772721191653154000,8.147154052734376,0.3546070158481598,0.46173742413520813,0.01626427471637726
1772721191671750400,8.16575048828125,0.30085089802742004,0.19356778264045715,0.012293653562664986
1772721191690346200,8.18434619140625,0.18142683804035187,-0.1579848974943161,0.09873101860284805
1772721191708942600,8.202942626953124,0.03787361457943916,-0.4563923478126526,0.14943279325962067
1772721191727538700,8.22153857421875,-0.1029307171702385,-0.672638475894928,0.13355031609535217
1772721191746134800,8.240134765625,-0.21258094906806946,-0.7395281791687012,0.07918334752321243
1772721191764731000,8.25873095703125,-0.231212317943573,-0.6876046657562256,-0.00511599238961935
1772721191783326700,8.27732666015625,-0.24281874299049377,-0.5382482409477234,-0.03474293276667595
1772721191801923000,8.295923095703126,-0.25931209325790405,-0.39194610714912415,0.010155626572668552
1772721191820519000,8.314518798828125,-0.22388194501399994,-0.26396992802619934,0.0651334598660469
1772721191839115300,8.333115234375,-0.19669845700263977,-0.14943279325962067,0.07765618711709976
1772721191857711000,8.351711181640624,-0.17226386070251465,-0.0022143847309052944,0.004657844081521034
1772721191876307500,8.370307373046876,-0.13255766034126282,0.170965775847435,-0.10163262486457825
1772721191894903300,8.3889033203125,-0.10537417232990265,0.3093266487121582,-0.17279838025569916
1772721191913499600,8.407499755859375,-0.1328630894422531,0.367053359746933,-0.26534438133239746
1772721191932095500,8.426095458984374,-0.2003636509180069,0.4223366379737854,-0.3664425015449524
1772721191950691800,8.44469189453125,-0.2910770773887634,0.38415759801864624,-0.37377288937568665
1772721191969288000,8.463287841796875,-0.3555232882499695,0.2677878439426422,-0.37774351239204407
1772721191987884000,8.481884033203125,-0.33536475896835327,0.1407279670238495,-0.3756054937839508
1772721192006480000,8.50047998046875,-0.25870123505592346,0.13858994841575623,-0.30718863010406494
1772721192025076200,8.519076171875,-0.18081597983837128,-0.0019089524867013097,-0.20028728246688843
1772721192043672000,8.537672119140625,-0.21288637816905975,0.11843141168355942,-0.24152065813541412
1772721192062268400,8.556268310546875,-0.2617555558681488,0.04329504072666168,-0.26595523953437805
1772721192080864300,8.5748642578125,-0.3491092324256897,-0.025732679292559624,-0.2946659028530121
1772721192099460600,8.593460693359376,-0.3790415823459625,-0.05841394513845444,-0.12331832945346832
1772721192118056400,8.612056396484375,-0.34147340059280396,-0.037033677101135254,0.10392337292432785
1772721192136652800,8.63065283203125,-0.23854269087314606,0.08666644245386124,0.14698933064937592
1772721192155248600,8.64924853515625,-0.031154103577136993,0.19326233863830566,0.06207913160324097
1772721192173845000,8.667844970703126,0.07880155742168427,0.35391977429389954,-0.05367974191904068
1772721192192440800,8.68644091796875,-0.03298669680953026,0.4583776593208313,-0.22991423308849335
1772721192211037000,8.705036865234375,-0.029626941308379173,0.46112653613090515,-0.27175846695899963
1772721192229633000,8.723633056640624,0.010690134018659592,0.4324159026145935,-0.17921245098114014
1772721192248229000,8.74222900390625,-0.010079269297420979,0.344451367855072,-0.06742420047521591
1772721192266825200,8.7608251953125,-0.059864748269319534,0.21983496844768524,0.03245219215750694
1772721192285421300,8.77942138671875,-0.1127045527100563,0.11049016565084457,0.11461350321769714
1772721192304017400,8.798017333984374,-0.18081597983837128,0.022220205515623093,0.13904809951782227
1772721192322613500,8.816613525390625,-0.25534147024154663,-0.013820815831422806,0.11797326058149338
1772721192341209600,8.835209716796875,-0.3017672002315521,-0.019624030217528343,0.06696604937314987
1772721192359805700,8.8538056640625,-0.35216355323791504,0.03138317912817001,-0.014584396965801716
1772721192378401800,8.87240185546875,-0.4172206521034241,0.0628427118062973,-0.13095413148403168
1772721192396998000,8.890997802734375,-0.481361448764801,0.13736821711063385,-0.22869250178337097
1772721192415594000,8.909593994140625,-0.5409207344055176,0.20914483070373535,-0.24946190416812897
1772721192434190000,8.928190185546875,-0.602007269859314,0.2008981555700302,-0.21281002461910248
1772721192452786200,8.9467861328125,-0.7092140316963196,0.16455170512199402,-0.1553887277841568
1772721192471382300,8.96538232421875,-0.8219185471534729,0.124845489859581,-0.11873684078454971
1772721192489978400,8.983978271484375,-0.9279035925865173,0.013362666592001915,-0.057955797761678696
1772721192508574500,9.002574462890625,-1.0699297189712524,-0.06452259421348572,0.07246383279561996
1772721192527170600,9.021170654296874,-1.2134828567504883,-0.13477204740047455,0.2722166180610657
1772721192545766700,9.0397666015625,-1.3115266561508179,-0.14485131204128265,0.44386962056159973
1772721192564362800,9.05836279296875,-1.3350449800491333,-0.13385574519634247,0.5303069949150085
1772721192582958600,9.07695849609375,-1.3151918649673462,-0.10056361556053162,0.4857138693332672
1772721192601554700,9.0955546875,-1.2446370124816895,-0.043753188103437424,0.3638463318347931
1772721192620150800,9.11415087890625,-1.2021819353103638,-0.08498656004667282,0.2929860055446625
1772721192638747000,9.132746826171875,-1.2253947257995605,-0.07673988491296768,0.27771440148353577
1772721192657343000,9.151343017578125,-1.3292417526245117,-0.06268999725580215,0.27343833446502686
1772721192675939000,9.16993896484375,-1.4914263486862183,-0.023594651371240616,0.28473934531211853
1772721192694535200,9.18853515625,-1.5851941108703613,0.04390590637922287,0.2496146261692047
1772721192713131300,9.20713134765625,-1.590080976486206,0.06895136088132858,0.1369100660085678
1772721192731727400,9.225727294921874,-1.517388105392456,-0.0006872228696011007,0.04802924394607544
1772721192750323500,9.244323486328126,-1.3616175651550293,-0.055970486253499985,0.046196650713682175
1772721192768919600,9.26291943359375,-1.1670571565628052,0.044211339205503464,0.05169443041086197
1772721192787515600,9.281515625,-1.0225876569747925,0.2525162398815155,0.10025817900896072
1772721192806111700,9.30011181640625,-0.9312633275985718,0.39454227685928345,0.24320054054260254
1772721192824707600,9.31870751953125,-0.8475748896598816,0.3105483949184418,0.43165233731269836
1772721192843303700,9.3373037109375,-0.8090903759002686,0.19295690953731537,0.5025126338005066
1772721192861899800,9.355899658203125,-0.8298597931861877,0.0423787422478199,0.4145480990409851
1772721192880495900,9.374495849609374,-0.8610138893127441,-0.17020219564437866,0.2822958827018738
1772721192899092000,9.393092041015626,-0.8830050230026245,-0.343993216753006,0.2086866796016693
1772721192917688000,9.41168798828125,-0.8686497211456299,-0.5452731847763062,0.21021384000778198
1772721192936284200,9.4302841796875,-0.8762855529785156,-0.6595048904418945,0.2502254843711853
1772721192954880300,9.44888037109375,-0.9660826325416565,-0.7129555344581604,0.22212570905685425
1772721192973476000,9.46747607421875,-1.0800089836120605,-0.6262127757072449,0.09384410083293915
1772721192992072400,9.486072509765625,-1.2052361965179443,-0.4365392327308655,-0.12270746380090714
1772721193010668300,9.504668212890625,-1.3674207925796509,-0.19097159802913666,-0.2625955045223236
1772721193029264400,9.523264404296874,-1.517082691192627,0.032910339534282684,-0.29649847745895386
1772721193047860500,9.541860595703126,-1.6068798303604126,0.12545634806156158,-0.2625955045223236
1772721193066456600,9.56045654296875,-1.6019928455352783,0.11384992301464081,-0.22380557656288147
1772721193085052700,9.579052734375,-1.49081552028656,-0.03367391973733902,-0.15202897787094116
1772721193103648800,9.597648681640624,-1.3096940517425537,-0.21723878383636475,-0.07719803601503372
1772721193122244900,9.616244873046876,-1.0720677375793457,-0.409050315618515,-0.0322994738817215
1772721193140841000,9.634841064453125,-0.8558215498924255,-0.5736783742904663,-0.02496909722685814
1772721193159437000,9.65343701171875,-0.6792816519737244,-0.6515636444091797,-0.06925679743289948
1772721193178033000,9.672032958984374,-0.6065887212753296,-0.5825359225273132,-0.12576179206371307
1772721193196629000,9.69062890625,-0.6921098232269287,-0.4032471179962158,-0.14866921305656433
1772721193215225000,9.70922509765625,-0.8512400984764099,-0.1118646115064621,-0.1443931609392166
1772721193233821200,9.7278212890625,-0.9877683520317078,0.11507165431976318,-0.16302454471588135
1772721193252417300,9.746417236328124,-1.0864230394363403,0.23571744561195374,-0.20242531597614288
1772721193271013400,9.765013427734376,-1.0937533378601074,0.30199626088142395,-0.23877176642417908
1772721193289609500,9.783609375,-0.988990068435669,0.30596688389778137,-0.2638172209262848
1772721193308205300,9.802205322265625,-0.8127555847167969,0.2326631247997284,-0.2876409590244293
1772721193326801400,9.820801513671874,-0.6630937457084656,0.13095413148403168,-0.2528216540813446
1772721193345397500,9.8393974609375,-0.554665207862854,0.0023671009112149477,-0.15263983607292175
1772721193363993600,9.85799365234375,-0.4584540128707886,-0.13355031609535217,-0.07933606207370758
1772721193382589700,9.876589599609375,-0.43004879355430603,-0.18089233338832855,-0.039018988609313965
1772721193401185800,9.895185791015624,-0.4834994673728943,-0.17722713947296143,-0.03352120518684387
1772721193419781600,9.91378173828125,-0.5119046568870544,-0.14332415163516998,-0.039018988609313965
1772721193438377700,9.932377685546875,-0.4663952589035034,-0.08712458610534668,-0.08208495378494263
1772721193456973800,9.950973876953125,-0.4312705397605896,-0.0019089524867013097,-0.13248129189014435
1772721193475570000,9.96956982421875,-0.4517345130443573,0.08391755074262619,-0.1611919403076172
1772721193494166000,9.988166015625,-0.5360338687896729,0.12362375855445862,-0.15325069427490234
1772721193512762000,10.00676220703125,-0.6227766275405884,0.13064870238304138,-0.12392919510602951
1772721193531358200,10.025358154296875,-0.618806004524231,0.19051344692707062,-0.12759438157081604
1772721193549954000,10.0439541015625,-0.583375871181488,0.3701077103614807,-0.09338594973087311
1772721193568550100,10.062550048828125,-0.4987711012363434,0.46601346135139465,-0.012446369975805283
1772721193587146200,10.081146240234375,-0.4379900395870209,0.529543399810791,0.0807105079293251
1772721193605742300,10.099742431640625,-0.34666576981544495,0.5738310813903809,0.03550651669502258
1772721193624338400,10.11833837890625,-0.22815799713134766,0.47639816999435425,-0.09827287495136261
1772721193642934300,10.136934326171875,-0.1182023361325264,0.20028728246688843,-0.16332997381687164
1772721193661530400,10.1555302734375,-0.010384701192378998,-0.18700097501277924,-0.011224640533328056
1772721193680126500,10.17412646484375,0.032070402055978775,-0.533666729927063,0.2923751473426819
1772721193698722600,10.19272265625,-0.001832594396546483,-0.775263786315918,0.514729917049408
1772721193717318700,10.211318603515625,-0.10140355676412582,-0.9725731015205383,0.5480220913887024
1772721193735914800,10.229914794921875,-0.22327107191085815,-1.1109340190887451,0.4563923478126526
1772721193754510600,10.248510498046874,-0.32681265473365784,-1.2285254001617432,0.38064512610435486
1772721193773106700,10.267106689453126,-0.40897396206855774,-1.0855830907821655,0.21326816082000732
1772721193791702800,10.285702880859375,-0.4825831651687622,-0.7874810695648193,-0.015806125476956367
1772721193810299000,10.304298828125,-0.6704241037368774,-0.45364347100257874,-0.1407279670238495
1772721193828895000,10.32289501953125,-0.8848376274108887,-0.03306305781006813,-0.10987929999828339
1772721193847490800,10.34149072265625,-1.0189224481582642,0.34811657667160034,-0.13828451931476593
1772721193866087000,10.3600869140625,-1.0421353578567505,0.612621009349823,-0.34781113266944885
1772721193884683000,10.37868310546875,-0.9511164426803589,0.6477457284927368,-0.5933787822723389
1772721193903279000,10.397279052734374,-0.7846558094024658,0.5891027450561523,-0.750981867313385
1772721193921875200,10.415875244140626,-0.6062833070755005,0.42508551478385925,-0.7543416619300842
1772721193940471000,10.434470947265625,-0.457843154668808,0.2925278842449188,-0.6630173325538635
1772721193959067100,10.453067138671875,-0.38728827238082886,0.24488042294979095,-0.4369973838329315
1772721193977663200,10.471663330078124,-0.4111120104789734,0.08239039033651352,-0.12789981067180634
1772721193996259300,10.49025927734375,-0.42088583111763,-0.16470441222190857,0.06788235157728195
1772721194014855200,10.508855224609375,-0.41294458508491516,-0.4032471179962158,0.0910952091217041
1772721194033451300,10.527451171875,-0.4841103255748749,-0.6005564332008362,-0.003283398225903511
1772721194052047400,10.54604736328125,-0.5965094566345215,-0.6839394569396973,-0.08269581943750381
1772721194070643500,10.5646435546875,-0.6313287615776062,-0.49334967136383057,-0.029856016859412193
1772721194089239600,10.583239501953125,-0.6084213256835938,-0.07185296714305878,-0.010919207707047462
1772721194107835400,10.60183544921875,-0.6817250847816467,0.1700494885444641,-0.10651954263448715
1772721194126431500,10.620431396484374,-0.8017600178718567,0.30627232789993286,-0.2622900605201721
1772721194145027600,10.639027587890626,-0.8903354406356812,0.44035714864730835,-0.3823249936103821
1772721194163623700,10.657623779296875,-0.916602611541748,0.46540260314941406,-0.3951531648635864
1772721194182219800,10.6762197265625,-0.9669989347457886,0.5793288946151733,-0.3447568118572235
1772721194200815600,10.694815673828124,-0.9388991594314575,0.576274573802948,-0.3300960659980774
1772721194219411700,10.71341162109375,-0.9025527238845825,0.48036879301071167,-0.32215481996536255
1772721194238007800,10.7320078125,-0.9025527238845825,0.45013099908828735,-0.23083053529262543
1772721194256604000,10.75060400390625,-0.8610138893127441,0.4171442985534668,-0.22380557656288147
1772721194275199700,10.76919970703125,-0.767551600933075,0.3304014801979065,-0.2317468225955963
1772721194293795800,10.7877958984375,-0.814588189125061,0.08300124853849411,-0.320933073759079
1772721194312392000,10.806391845703125,-0.8952223062515259,0.012140937149524689,-0.3239873945713043
1772721194330988000,10.824988037109375,-0.9159917235374451,-0.043142326176166534,-0.2900844216346741
1772721194349584100,10.843584228515626,-0.9230166673660278,0.08788817375898361,-0.023441936820745468
1772721194368180000,10.862179931640625,-0.9645555019378662,0.29680392146110535,0.2926805913448334
1772721194386776000,10.880776123046875,-1.043662428855896,0.2479347437620163,0.3995819091796875
1772721194405372200,10.8993720703125,-1.1979057788848877,0.12851068377494812,0.2813795804977417
1772721194423968000,10.917968017578126,-1.4196497201919556,-0.019013166427612305,0.08254310488700867
1772721194442564000,10.936564208984375,-1.5286891460418701,-0.1842520833015442,-0.04787652567028999
1772721194461160200,10.95516015625,-1.5225805044174194,-0.2746600806713104,-0.029856016859412193
1772721194479756300,10.97375634765625,-1.5360194444656372,-0.3690386712551117,0.21754421293735504
1772721194498352400,10.992352294921876,-1.5262455940246582,-0.36659523844718933,0.4600575268268585
1772721194516948200,11.0109482421875,-1.451414704322815,-0.44325876235961914,0.5202277302742004
1772721194535544300,11.02954443359375,-1.3655881881713867,-0.38705918192863464,0.4930442273616791
1772721194554140400,11.048140380859374,-1.3380992412567139,-0.34002259373664856,0.4093557596206665
1772721194572736500,11.066736572265626,-1.3368775844573975,-0.28412848711013794,0.28932082653045654
1772721194591332400,11.085332275390625,-1.3127484321594238,-0.23098324239253998,0.2041051983833313
1772721194609928400,11.103928466796875,-1.2608249187469482,-0.16012293100357056,0.13049599528312683
1772721194628524500,11.122524658203124,-1.1658353805541992,-0.09445496648550034,0.13080142438411713
1772721194647120400,11.141120361328126,-1.0060943365097046,-0.060551971197128296,0.20074543356895447
1772721194665716500,11.159716552734375,-0.9159917235374451,-0.13049599528312683,0.31009024381637573
1772721194684312600,11.1783125,-0.8631519079208374,-0.17753258347511292,0.32352927327156067
1772721194702908700,11.19690869140625,-0.6346884965896606,-0.14637847244739532,0.2813795804977417
1772721194721504800,11.2155048828125,-0.3503309488296509,-0.034895651042461395,0.12499820441007614
1772721194740100600,11.2341005859375,0.11667517572641373,0.0784197673201561,0.05871937796473503
