time,seconds_elapsed,z,y,x
1772795502169331700,0.073331787109375,0.0817950706332922,-0.09248612212613225,0.08044909938443452
1772795502179323600,0.08332373046875,0.022687632626295088,-0.105929541067034,0.04972173349168151
1772795502189315800,0.09331591796875,-0.04252221390902996,-0.10302147160060703,0.03276647050492465
1772795502199307800,0.103307861328125,-0.05677753375470638,-0.09773337512984871,-0.015645349431969224
1772795502209300700,0.11330078125,-0.0568073443710804,-0.061655368924140926,-0.051089880039729176
1772795502219292700,0.123292724609375,-0.009275193345546722,-0.03406739703565836,-0.091946425758861
1772795502229284900,0.133284912109375,0.019500234761834143,-0.028196897567063568,-0.09494140632376075
1772795502239276500,0.143276611328125,0.02239478715956211,-0.030579043463245033,-0.060467620444297786
1772795502249268700,0.153268798828125,0.019648118799924848,-0.012273644509166478,-0.0467931326938793
1772795502259260700,0.1632607421875,0.0024468086302280425,-0.036335999554768204,-0.016777860593236982
1772795502269253600,0.173253662109375,-0.004671498942375183,-0.01792567892149091,0.0014240779863670468
1772795502279245600,0.18324560546875,0.00865267753303051,-0.007918444974347948,-0.02190338691342622
1772795502289237800,0.19323779296875,0.02394552373290062,-0.001274696110934019,-0.02049151082150638
1772795502299229700,0.203229736328125,0.000045592707395553586,-0.03853548236042261,-0.0027253333106637
1772795502309221600,0.2132216796875,-0.06961304993033408,-0.03890037015005946,-0.07497446736562996
1772795502319213600,0.223213623046875,-0.07383914319276809,-0.004967340083792806,-0.06064867609962821
1772795502329206800,0.233206787109375,-0.028867782565951346,-0.0008620967220515012,-0.07571217052303254
1772795502339198500,0.243198486328125,-0.013864274701476097,0.03508336914516985,-0.08104213337413967
1772795502349190700,0.253190673828125,-0.003708791390061378,0.04717150101959705,-0.01860982526075095
1772795502359182600,0.2631826171875,-0.0012000234395265579,0.03409896121770143,-0.011460903354175388
1772795502369174800,0.2731748046875,-0.001005962172150612,0.0054077042624354355,-0.0017731836849823593
1772795502379166700,0.283166748046875,0.018668460112810134,-0.0003958674497902393,-0.029016214593313633
1772795502389159700,0.29315966796875,0.0043278000712394715,0.00103599198423326,-0.07022281585913151
1772795502399151900,0.30315185546875,-0.017696400210261344,-0.010579846203327178,-0.06857921337056905
1772795502409143800,0.313143798828125,-0.02822890014052391,-0.03913973186388611,-0.07774396861158311
1772795502419135500,0.323135498046875,0.0032820904105901718,-0.05457607818767428,-0.03371960651129484
1772795502429127700,0.333127685546875,-0.0050192894667387,-0.07303155313692987,0.002797485231421888
1772795502439119600,0.34311962890625,0.019151275193691253,-0.10480324045084416,0.03020962562896311
1772795502449112600,0.353112548828125,0.017450316494703293,-0.12116525025218725,0.05392875672746449
1772795502459104800,0.363104736328125,0.007109539744257927,-0.1415168411463499,0.058780544140189885
1772795502469096700,0.3730966796875,0.007910919255018235,-0.15985124699920414,0.04694678888563066
1772795502479089000,0.3830888671875,0.00999590883553028,-0.1703261715233326,0.024906806513108313
1772795502489080600,0.39308056640625,0.019203882163763047,-0.18150084181465206,-0.0045180619463324545
1772795502499073800,0.40307373046875,0.012011340311169624,-0.17459245066568255,-0.014671207170188426
1772795502509065700,0.413065673828125,-0.003850830209255218,-0.13380962776988745,-0.019282719553634524
1772795502519057700,0.4230576171875,0.01900456019937992,-0.08724223012328147,-0.04960629041846841
1772795502529049600,0.433049560546875,-0.003135375416278839,-0.038020080184191465,-0.04238430327568203
1772795502539041800,0.443041748046875,0.011716741278767585,0.024111381819099185,-0.034216559715382754
1772795502549033700,0.45303369140625,0.0021557167291641234,0.07341916421502828,-0.03448580511081963
1772795502559026700,0.463026611328125,-0.008604162216186522,0.09971249318309128,-0.031145043315552172
1772795502569018600,0.4730185546875,-0.009168225839734078,0.1139786266837269,-0.03286474324762821
1772795502579010800,0.4830107421875,-0.013400164321064948,0.09925240139067172,-0.029842180556058882
1772795502589002500,0.49300244140625,-0.035037411111593246,0.09131174458451569,-0.02812668187506497
1772795502598994700,0.50299462890625,-0.025941081464290618,0.038415436177328226,-0.032699067824520166
1772795502608986600,0.512986572265625,-0.003118424281477928,0.004731193240359425,-0.02800597810484469
1772795502618979600,0.5229794921875,0.01580956355035305,-0.04724427399486303,-0.01956719905082136
1772795502628971500,0.532971435546875,0.003940262058377266,-0.10150317599214613,-0.012568426204659044
1772795502638963700,0.542963623046875,-0.0151145670235157,-0.12713701813817024,-0.01476345203090459
1772795502648955600,0.55295556640625,-0.0039987142473459246,-0.18602241089232266,-0.034119419483840466
1772795502658947600,0.562947509765625,0.0014934534281492232,-0.18443521476611494,-0.050850700988993046
1772795502668940800,0.57294091796875,0.013389058405160904,-0.17252923452556132,-0.02787467987537384
1772795502678932700,0.5829326171875,-0.008439911565184593,-0.1585756741054356,-0.03263824101537466
1772795502688924700,0.592924560546875,-0.03531681257486343,-0.13045271855741739,-0.027994799123704433
1772795502698916600,0.60291650390625,-0.02178746891617775,-0.1211473492693156,-0.02719623262453824
1772795502708908800,0.61290869140625,-0.007027706679701804,-0.12024893912486731,-0.018021248250454664
1772795502718900700,0.622900634765625,0.006556582036614417,-0.08796024219952524,-0.02574464557673782
1772795502728893700,0.632893798828125,0.00298632233440876,-0.06280037424080073,-0.03448492832798511
1772795502738885600,0.6428857421875,-0.006619710400700569,-0.052548737078532574,0.0049855333276093
1772795502748877800,0.6528779296875,-0.01109480998814106,-0.05267806254662573,0.016679514785297216
1772795502758869800,0.662869873046875,-0.02549216865301132,-0.02665573253966868,0.0234789291344583
1772795502768861700,0.67286181640625,-0.016529109996557236,-0.008593860017880798,0.011066460676491259
1772795502778853600,0.682853515625,0.001755319234728813,-0.001339504975453019,0.019387933493778108
1772795502788846800,0.692846923828125,0.008819850793480872,0.0010788082126528024,0.01806158026084304
1772795502798838500,0.702838623046875,0.005647650498151779,-0.0023184330102056262,-0.0025485519716516134
1772795502808830700,0.712830810546875,0.009670330142974854,0.007671338345482945,0.0008547536658123135
1772795502818822700,0.72282275390625,0.008859013760089874,-0.017217165325954555,-0.007362345461547374
1772795502828814800,0.73281494140625,0.006269581788778305,-0.01329465811997652,-0.013426796599663794
1772795502838806500,0.742806640625,-0.008109072175621986,-0.011280249557644128,0.00361132236495614
1772795502848799700,0.7527998046875,-0.005562310302257538,-0.03752542853504419,0.00291084594540298
1772795502858791700,0.762791748046875,-0.011822539740800856,-0.02368994153663516,-0.0028977672681212425
1772795502868783600,0.77278369140625,-0.01411503459215164,-0.011467515758052467,-0.0007464709857478738
1772795502878775600,0.782775634765625,-0.015844050341844558,0.0018087299223989246,-0.009750957631133495
1772795502888767700,0.792767822265625,-0.025122166296839714,0.009856208103895188,-0.02143076443299651
1772795502898760700,0.8027607421875,-0.00020925883650779723,0.060678925107419485,-0.020568558113090694
1772795502908752600,0.812752685546875,-0.01375730719566345,0.07254639996849,0.004338686791434884
1772795502918744800,0.822744873046875,0.0015741174489259718,0.06466799474358559,-0.0050785819059237835
1772795502928736800,0.83273681640625,-0.025600889724493026,0.07079933710545301,0.006510550937801599
1772795502938728400,0.842728515625,-0.01103109710216522,0.040819866970553995,0.017362126754596828
1772795502948720600,0.852720703125,-0.022694646888971326,0.02759133288934827,0.027621581897139546
1772795502958713900,0.8627138671875,-0.009341828840970992,-0.0029287469282746315,0.0031403073197230694
1772795502968705500,0.87270556640625,-0.01322188514471054,-0.05536839760914444,0.003955167366564274
1772795502978697700,0.88269775390625,0.010970306825637816,-0.084286156796664,-0.03026800475269556
1772795502988689700,0.892689697265625,0.007386018598079681,-0.11376885639056562,-0.050676257737539705
1772795502998681900,0.902681884765625,0.0036520927667617795,-0.10722951774969697,-0.06230177706889808
1772795503008673800,0.912673828125,-0.008894085073471069,-0.12324585591852665,-0.05706150179523974
1772795503018666800,0.922666748046875,-0.0037806875824928283,-0.11867036469653248,-0.05767897610645741
1772795503028658700,0.93265869140625,-0.00312660758793354,-0.10776223638691007,-0.04496018164567649
1772795503038650600,0.942650634765625,0.0013519991308450698,-0.08193528282158076,-0.04486863090470433
1772795503048642600,0.952642578125,0.018814006063342093,-0.06987922658585012,-0.037428507499210534
1772795503058634800,0.962634765625,0.0008276829957962036,-0.06466499906890094,-0.01736504936404526
1772795503068627700,0.972627685546875,-0.01637304265201092,-0.05038600608669221,-0.003642265492491424
1772795503078619600,0.98261962890625,-0.011961071428656577,-0.05223302219286561,0.029410839934088287
1772795503088611600,0.992611572265625,-0.009825228443741799,-0.04658201069384813,0.02730889921877533
1772795503098603800,1.002603759765625,0.000050268882513046264,-0.05136873351372778,0.022400157454423607
1772795503108595700,1.012595703125,0.014933365237712859,-0.06702310650236905,0.022371662012301383
1772795503118587100,1.022587158203125,0.007133505141735077,-0.0764227299451828,0.01877740038000047
1772795503128580000,1.032580078125,-0.0015624270111322402,-0.07639291932880878,0.03351162631642073
1772795503138572000,1.042572021484375,-0.015690321084856986,-0.07103855268880724,0.03984327702336013
1772795503148564000,1.05256396484375,-0.016398761615157128,-0.0536857782844454,0.023414412530884145
1772795503158556000,1.062555908203125,-0.022696400454640386,-0.06297017784975469,0.038641792279109355
1772795503168547800,1.0725478515625,-0.012577157500386238,-0.02877403986789286,0.02166913976613432
1772795503178540000,1.0825400390625,0.008732757031917572,-0.031112785013765094,0.033245266997814174
1772795503188533000,1.092532958984375,-0.006064999127388,-0.029464579415321348,0.024453363657183945
1772795503198525000,1.10252490234375,-0.009420154774188994,-0.0018715660255402325,0.015652729020826518
1772795503208517000,1.11251708984375,-0.01574585066437721,-0.011964432429522276,0.005063420869410038
1772795503218509000,1.122509033203125,-0.014076456147432326,-0.02159523427970707,0.03460818938147277
1772795503228501000,1.1325009765625,-0.0019610709398984907,-0.025130422668531535,0.024306612130254507
1772795503238493000,1.142492919921875,-0.02195464217662811,-0.03268485663607716,0.010941665253043175
1772795503248486100,1.152486083984375,0.00488075777888298,-0.053633098249137395,0.005848324169404805
1772795503258477800,1.162477783203125,0.020389292556047437,-0.05853307218514382,0.004614581123366952
1772795503268470000,1.172469970703125,0.001059153664112091,-0.07977364780828357,-0.010201112551428377
1772795503278462000,1.1824619140625,0.005223872128129005,-0.0745932494957,-0.027385215857997535
1772795503288454100,1.1924541015625,-0.0042670097947120665,-0.08451521631218492,-0.025666502306610346
1772795503298445800,1.20244580078125,0.009673252752423285,-0.0721527975410223,-0.014672339681349693
1772795503308439000,1.21243896484375,-0.0036567689418792724,-0.06406359910964965,-0.032555786896310744
1772795503318431000,1.222430908203125,-0.005223872128129005,-0.0625517332419753,-0.059655244615487754
1772795503328423000,1.2324228515625,-0.0033832126975059506,-0.01817738866023719,-0.07956961313616484
1772795503338414800,1.242414794921875,-0.023290274694561956,0.008177461236715316,-0.08038597102034836
1772795503348407000,1.252406982421875,-0.020198153898119926,0.005638152017444372,-0.09217033417522907
1772795503358399700,1.262399658203125,-0.0265431390106678,0.04153159543648362,-0.0898901508161798
1772795503368392000,1.272391845703125,-0.011975099954009055,0.05107296543754637,-0.07039524981658905
1772795503378384000,1.2823837890625,-0.009979542222619056,0.046960780878365034,-0.06670165599565953
1772795503388376000,1.2923759765625,-0.004257657444477081,0.029498116358742117,-0.07102708144672215
1772795503398368000,1.302367919921875,-0.003771335232257843,0.038360198858752845,-0.04301211631782353
1772795503408360000,1.31235986328125,-0.008061141380667686,0.0010512626186013221,-0.0422322179865092
1772795503418353200,1.322353271484375,-0.02385316927433014,-0.010448328778147697,-0.036826121159270406
1772795503428345000,1.332344970703125,-0.014622399592399596,-0.03400792193338275,-0.019706644054129717
1772795503438337000,1.3423369140625,-0.011941197684407233,-0.06637348348721861,-0.007403188928589224
1772795503448329000,1.352328857421875,-0.022376666980981827,-0.07184964987598359,-0.0102924075640738
1772795503458321200,1.362321044921875,-0.0012076222240924835,-0.0833835819337517,-0.0013821020081639288
1772795503468313000,1.37231298828125,0.0017313538372516631,-0.07314582716636359,0.026768326068669555
1772795503478306000,1.38230615234375,-0.0023801731348037716,-0.06913702991642058,0.019721220568753778
1772795503488298000,1.392298095703125,-0.007257423782348633,-0.07847220982089638,0.005657295109331608
1772795503498290200,1.402290283203125,-0.02231412313878536,-0.057941682163253426,-0.005412891894206405
1772795503508281900,1.41228173828125,-0.018384382474422454,-0.037467268607020376,-0.002935030538588762
1772795503518274000,1.422274169921875,-0.0010083002597093581,-0.05353606761544943,-0.016424590176157654
1772795503528266000,1.432265869140625,0.0005102876096963882,-0.05515665455460548,-0.012115933196805416
1772795503538259000,1.442259033203125,0.010703180322051047,-0.0509935435257852,0.01333239631447941
1772795503548251000,1.4522509765625,0.0008639233529567718,-0.07343034319616853,-0.011762370518781245
1772795503558243000,1.4622431640625,0.007611644047498703,-0.08472725162766874,0.0040233737645670765
1772795503568235000,1.472235107421875,-0.01260229194164276,-0.08104965909346938,-0.0014988602556288242
1772795503578227000,1.48222705078125,-0.00461713840663433,-0.0690237788002938,-0.011997896307706831
1772795503588220000,1.492219970703125,-0.009889525851607323,-0.06756130503229796,-0.006936082873493433
1772795503598212000,1.502212158203125,-0.030199323430657385,-0.03715045774281025,-0.025516353246197103
1772795503608203800,1.512203857421875,-0.01485445478260517,-0.017134747739508748,-0.046661359540373086
1772795503618196000,1.522196044921875,-0.010921206986904144,-0.0017273352492600679,-0.02806256713028997
1772795503628188000,1.53218798828125,-0.004637012150883675,0.01868614189997315,-0.03995093864891678
1772795503638180000,1.54218017578125,0.0024719430714845655,0.009875570391491055,-0.042684089939855036
1772795503648173000,1.552173095703125,-0.012201309925317764,0.0169555187150836,-0.04374850430097431
1772795503658165000,1.5621650390625,0.010582184290885924,0.013825769321992993,-0.01494187733773142
1772795503668157000,1.572156982421875,0.01849310354590416,0.023829861463978884,-0.0017682517815381287
1772795503678148900,1.58214892578125,-0.02414893735051155,-0.0016200754825025797,0.020885332444682717
1772795503688140800,1.592140869140625,-0.009433598777651786,-0.0146690152131021,0.03447860818505287
1772795503698133000,1.602133056640625,-0.026791560813784598,-0.015764847625792024,0.023497451171837744
1772795503708126000,1.6121259765625,-0.013833295041322708,-0.03450805347524583,0.05539177848473191
1772795503718118000,1.622117919921875,-0.004051321217417717,-0.028302257637679577,0.02474281159043312
1772795503728110000,1.632110107421875,-0.003583703705668449,-0.03665229896232486,0.02775467022489756
1772795503738102000,1.64210205078125,-0.0018248773396015165,-0.03458250695094466,0.042305502418428655
1772795503748094200,1.65209423828125,0.0010363573104143142,-0.02924633355475962,0.010612360233440995
1772795503758086000,1.6620859375,-0.010136778610944747,-0.0325629107568413,0.001870287383906543
1772795503768079000,1.6720791015625,0.0006558335602283477,-0.04314136872068047,-0.014274170676618814
1772795503778071000,1.682071044921875,0.004205050474405289,-0.027912819928675888,-0.040845768596790726
1772795503788063000,1.69206298828125,0.012454407903552055,-0.043413463660329575,-0.05621357972901314
1772795503798055000,1.702054931640625,0.009988310050964355,-0.038746421697363254,-0.05068729058820754
1772795503808047000,1.712047119140625,0.0029302082329988478,-0.025490707348287105,-0.05391107494030147
1772795503818039800,1.722039794921875,-0.011550737062096595,-0.020305559795349835,-0.05356047140434384
1772795503828032000,1.732031982421875,-0.05604980400204658,-0.005678703223541378,-0.06384882384780793
1772795503838024000,1.74202392578125,-0.037729134413599964,-0.017759455509111285,-0.07127228837944567
1772795503848016100,1.75201611328125,-0.02402735679745674,-0.023733780678361655,-0.04906337918080389
1772795503858007800,1.7620078125,-0.01520867504775524,-0.018482070695236323,-0.06623122547231614
1772795503868000000,1.772,-0.004660977548360824,-0.012932035352662205,-0.06672401395794003
1772795503877993000,1.781992919921875,0.00011924246549606323,-0.020650135449320078,-0.051714733939804136
1772795503887985000,1.79198486328125,-0.0007329904496669769,-0.009086173579469323,-0.04034066861886531
1772795503897976800,1.801976806640625,0.005167758026719093,-0.03604373860992491,-0.039307014722190795
1772795503907969000,1.811968994140625,0.011376549538969993,-0.043637116348370905,-0.024019831078127024
1772795503917961000,1.8219609375,-0.0018570260435342787,-0.03620557810813188,-0.040238669549115
1772795503927953000,1.831952880859375,0.003355740168690681,-0.02379668984673917,-0.0016214271893724799
1772795503937946000,1.841946044921875,-0.0006043956339359284,-0.033270328373834486,0.005844122918322682
1772795503947938000,1.85193798828125,-0.011145078870654105,-0.037480566480010746,0.018134170573018492
1772795503957930000,1.861929931640625,-0.029804186633229254,-0.04865538290180266,0.019383257318660616
1772795503967922000,1.871921875,-0.0176589908093214,-0.04196289952583611,0.019566212670132515
1772795503977914000,1.8819140625,-0.004776128360629081,-0.04433072463572025,0.014990575317665934
1772795503987906000,1.891906005859375,0.010648235264420509,-0.07143003622442483,0.040262488816119726
1772795503997899000,1.90189892578125,-0.0137421096265316,-0.06354900065101683,0.02739752735029906
1772795504007891000,1.911890869140625,0.0009171148449182509,-0.058001376461237666,0.018564561346918345
1772795504017883100,1.921883056640625,-0.005041501298546791,-0.042655265704169866,0.025312464704550803
1772795504027875000,1.931875,0.0028191490739583967,-0.02826813617236912,0.03133541478849947
1772795504037867000,1.941866943359375,-0.008726911813020705,-0.000545870379731059,0.03384600936993956
1772795504047859000,1.95185888671875,-0.01919628337919712,0.0007392009947448969,0.04987056737784296
1772795504057852000,1.961851806640625,-0.032601708397269245,0.02705802973024547,0.05106701062079519
1772795504067843800,1.97184375,-0.009290390914678573,0.053973436119407414,0.05318670618850738
1772795504077836000,1.9818359375,-0.0004033201038837433,0.05891754145808518,0.028200258567929265
1772795504087828000,1.991827880859375,-0.0005453589230775832,0.05110043796636164,0.00008281944524496794
1772795504097820200,2.001820068359375,-0.003435819667577743,0.053394101861491794,-0.009639167819730936
1772795504107812900,2.011812744140625,-0.00015548282265663146,0.043026071777939795,-0.028816527302749452
1772795504117805300,2.021805419921875,-0.0018400749087333678,0.027858313262462613,-0.07248422145247459
1772795504127797200,2.03179736328125,-0.00897591813802719,-0.008890358746424317,-0.08902546027824282
1772795504137789200,2.0417890625,-0.002591185536980629,-0.031106574468687174,-0.10725691721327603
1772795504147781400,2.051781494140625,0.00697217710018158,-0.0701836163599044,-0.0933121611541137
1772795504157773300,2.061773193359375,0.0008726911813020706,-0.09439809322729706,-0.08694375863336026
1772795504167766300,2.071766357421875,-0.0003898761004209518,-0.10668393963091075,-0.08884553713407367
1772795504177758200,2.08175830078125,-0.0032487726628780363,-0.1079170616224408,-0.08996135288886725
1772795504187750400,2.09175048828125,-0.012322305956482886,-0.09519728078097105,-0.07430920838993042
1772795504197742300,2.101742431640625,-0.018458032232522962,-0.083199311408028,-0.042250484295561906
1772795504207734300,2.111734375,-0.018947861576080322,-0.05682100757025182,-0.03647248541601002
1772795504217726200,2.121726318359375,-0.013154665127396582,-0.05101210209578275,-0.02574026166256517
1772795504227719400,2.131719482421875,0.00734510206580162,-0.024940818380564448,-0.007970175161585212
1772795504237711000,2.141711181640625,-0.013106149810552596,0.005126256972551346,0.008654394566081464
1772795504247703300,2.151703369140625,-0.0015904840618371963,0.019467136209830642,0.02316485821660608
1772795504257695200,2.1616953125,-0.011992635610699652,0.02608268189206719,0.02259272088445723
1772795504267687400,2.1716875,-0.014973697248101233,0.0112030926682055,0.028447584392502903
1772795504277679000,2.18167919921875,-0.006525602376461028,0.0020041063640266654,0.02850461180936545
1772795504287672300,2.19167236328125,-0.004459317496418953,-0.017982231414318085,0.033241321475058795
1772795504297664500,2.20166455078125,0.0010907178461551665,-0.02604176535978913,0.03213968037609011
1772795504307656200,2.21165625,-0.01232347500026226,-0.03037760260701179,0.023289361379109322
1772795504317648400,2.2216484375,-0.002515197691321373,-0.05535604958422482,0.005665368817932903
1772795504327640300,2.231640380859375,-0.008733341553807257,-0.03346555868498981,0.006049728493019938
1772795504337632500,2.241632568359375,-0.022925533035397527,-0.050230011807382104,-0.012469057483412324
1772795504347625200,2.251625244140625,0.002013093388080597,-0.044147623153775926,-0.03245470114201307
1772795504357617400,2.261617431640625,-0.008277999001741409,-0.03980002240352332,-0.029322613661363718
1772795504367609300,2.271609375,-0.010109306082129477,-0.05259973661340773,-0.027867556014843285
1772795504377601300,2.281601318359375,-0.006751812347769737,-0.03952792746387422,-0.034746063482202584
1772795504387593200,2.29159326171875,0.0028460370808839797,-0.0421741311237216,-0.021119177733175454
1772795504397586400,2.30158642578125,0.001356090784072876,-0.0421019426703453,-0.012912198141030966
1772795504407578000,2.311578125,-0.0037467853128910064,-0.05295300703048706,-0.016733108136057852
1772795504417570300,2.3215703125,-0.0013999299257993697,-0.039909620257839555,-0.01191829173285514
1772795504427562200,2.331562255859375,-0.012669511958956717,-0.03432502505853772,0.0031995997589081525
1772795504437554400,2.341554443359375,-0.01913432405889034,-0.015950287195295093,0.017707981050200758
1772795504447546400,2.35154638671875,-0.028549802657961844,-0.006482932278513908,0.023229995874688027
1772795504457539300,2.361539306640625,-0.023220132067799566,-0.0011035773277282715,0.009961531641893088
1772795504467531300,2.37153125,-0.0019505495458841324,-0.005096884747594595,0.002560753866098821
1772795504477523200,2.381523193359375,0.000675122782588005,-0.00926803295239806,-0.005446246174536645
1772795504487515100,2.39151513671875,-0.0015823007553815841,-0.021481106380745768,0.012245185599662364
1772795504497507300,2.40150732421875,-0.012059271106123924,-0.033416312715783714,0.0027678207455202938
1772795504507499300,2.411499267578125,0.0025841712743043897,-0.04369228060171008,0.007258592826128006
1772795504517492200,2.4214921875,0.0005897825866937637,-0.030751550485938785,0.014100129283964632
1772795504527484400,2.431484375,0.007539163333177566,-0.03187419784031808,0.006373992011323571
1772795504537476400,2.441476318359375,-0.004715922605991363,-0.022749665011838078,0.002892141244933009
1772795504547468500,2.451468505859375,-0.0032329905718564986,-0.005345598811656236,0.014242533429339527
1772795504557460200,2.461460205078125,-0.008006780844926833,0.01953340637907386,-0.003158829357102513
1772795504567452200,2.4714521484375,-0.009520108017325401,0.018319865870848297,-0.030959749876521527
1772795504577445400,2.4814453125,0.003950198930501938,0.015457389111816882,-0.025886720928549763
1772795504587437300,2.491437255859375,0.00005552957952022552,0.0014870236873626708,-0.03146170804928988
1772795504597429200,2.50142919921875,-0.0045627778708934785,-0.022768442777544258,-0.03554397239424288
1772795504607421400,2.51142138671875,-0.014126140508055687,-0.0499943764206022,-0.04654704897832125
1772795504617413400,2.521413330078125,-0.017559037566184998,-0.06539097525589167,-0.04176324876789003
1772795504627406300,2.53140625,-0.015576923838257789,-0.07191643150188029,-0.03468976671770215
1772795504637398300,2.541398193359375,-0.013574936366081237,-0.08523249773606657,-0.022276969466172157
1772795504647390500,2.551390380859375,-0.005295183798670769,-0.06857223564051092,-0.02184756507296115
1772795504657382100,2.561382080078125,-0.008282090654969215,-0.04968764855898916,0.0041218657029792665
1772795504667374300,2.571374267578125,0.004687281033396721,-0.009912103009596466,-0.0012999766826629637
1772795504677366300,2.5813662109375,0.002049333745241165,-0.0030818916633725164,-0.0008272080717608332
1772795504687359200,2.591359130859375,0.0015004676908254623,-0.0013574059583246708,0.019762721622921524
1772795504697351200,2.60135107421875,0.007572481080889701,0.027048458184301852,0.00875043881908059
1772795504707343400,2.61134326171875,-0.014732874229550361,0.03286203983388841,-0.001918291244097054
1772795504717335300,2.621335205078125,-0.007198971593379974,0.027493352407589555,0.0037041152149438856
1772795504727327200,2.6313271484375,-0.027300094857811926,0.014002806389331816,-0.01939969699680805
1772795504737319200,2.641319091796875,-0.009800094002485275,-0.0023566461287438866,-0.020245427105948326
1772795504747312400,2.6513125,0.0032569559693336487,-0.003032645694166422,-0.03255176830831915
1772795504757304000,2.661303955078125,0.008533435067534446,-0.0221017224971205,-0.024305991075746713
1772795504767296300,2.671296142578125,0.007954173874855041,-0.0492591940138489,-0.009964600381813942
1772795504777288200,2.6812880859375,-0.0028518822997808456,-0.0608842384211719,0.005116320100426674
1772795504787280400,2.6912802734375,-0.01953472155332565,-0.062182534603402013,-0.002573065358400345
1772795504797272300,2.701272216796875,-0.02832125459909439,-0.07041603687629103,-0.01117514521535486
1772795504807265300,2.711265380859375,-0.0025444237858057023,-0.05887815929576754,-0.0005443360097706318
1772795504817257500,2.721257568359375,-0.001315174251794815,-0.06372114234752953,-0.0017078633638098835
1772795504827249400,2.73124951171875,0.011723171019554137,-0.04468516409657895,-0.023180969101190566
1772795504837241300,2.741241455078125,0.004105681753158569,-0.015579992578178643,-0.04112016509138047
1772795504847233300,2.7512333984375,-0.009364040672779083,-0.0009181377582252025,-0.06112433078736067
1772795504857225500,2.7612255859375,-0.00192015440762043,0.010664748007804155,-0.029194274573959407
1772795504867218200,2.77121826171875,-0.009900047245621681,0.028039588113501667,-0.0462516462283209
1772795504877210400,2.78121044921875,-0.016544892087578773,0.03289674582108855,-0.05632635592110455
1772795504887202300,2.791202392578125,0.0019499650239944457,0.021752835994213817,-0.022894480310007927
1772795504897194500,2.801194580078125,0.0022077391773462295,0.010694047167524695,-0.010288462041318416
1772795504907186200,2.811186279296875,-0.005321487283706665,-0.015290508112311363,-0.0004715995671227574
1772795504917179400,2.821179443359375,-0.0013227730363607406,-0.03792195357196033,-0.003391213340871036
1772795504927171300,2.83117138671875,-0.00032090251743793486,-0.043633682282269,-0.015381510864011943
1772795504937163300,2.841163330078125,0.0023316578179597854,-0.047187867632508276,0.00354516179356724
1772795504947155200,2.8511552734375,-0.0018605331748723982,-0.046043666033446784,0.0009360752737149595
1772795504957147400,2.8611474609375,-0.010364742147922516,-0.048064869662746784,0.0067967840006574985
1772795504967139300,2.871139404296875,-0.015395722052454947,-0.0330867885004729,-0.014556056357920169
1772795504977132300,2.88113232421875,-0.010962123519182205,-0.009040800067782401,-0.02783062153793871
1772795504987124200,2.891124267578125,0.007113046875596046,-0.005451762599870562,-0.009825082313269376
1772795504997116400,2.901116455078125,0.004548749345541,-0.0002587240014225244,-0.03611241993196308
1772795505007108000,2.911108154296875,0.00613338818848133,0.009684723994508385,-0.05289941367972642
1772795505017100300,2.921100341796875,0.007348609197139739,-0.009836480490118265,-0.02652114637456834
1772795505027092200,2.93109228515625,-0.0075134443700313564,-0.004069149135053157,-0.026290479423850772
1772795505037085200,2.941085205078125,-0.03321136472821235,-0.018346534682065246,0.008194887295551597
1772795505047077400,2.951077392578125,-0.023168694141507146,-0.04129712909348309,0.002497990828193724
1772795505057069300,2.9610693359375,-0.012642623952031135,-0.0374890420474112,-0.012719305917434394
1772795505067061500,2.9710615234375,-0.021420389169454573,-0.03261398335695267,0.0023290274694561957
1772795505077053200,2.98105322265625,0.0031061493217945098,-0.044157998417317865,-0.005880509405955672
1772795505087045000,2.991045166015625,-0.00014905308187007903,-0.04778671030849218,-0.016187858810834586
1772795505097038300,3.001038330078125,0.01227729777097702,-0.058415656350553034,-0.03511657729502767
1772795505107030300,3.0110302734375,0.006306991189718246,-0.07027078318670392,-0.03315382585469633
1772795505117021700,3.021021728515625,0.005531330642104149,-0.07999481627829372,-0.012185929693095385
1772795505127014000,3.031013916015625,-0.007986322578787803,-0.06967734733819961,0.0014419789692386984
1772795505137005800,3.041005859375,-0.018356909945607184,-0.03780504919402301,0.029765315927565095
1772795505146998000,3.050998046875,-0.0159989486426115,-0.029286519434675574,-0.002328808273747563
1772795505156990700,3.06099072265625,0.0004717091649770736,0.005127133755385875,0.0017241934441030024
1772795505166983000,3.07098291015625,-0.0005547112733125686,0.0259652660574764,0.002883629144914448
1772795505176974800,3.080974853515625,0.025817747345566747,0.024769334271177647,-0.004218238749541342
1772795505186966800,3.090966796875,0.0037070378243923186,0.03579970072098076,-0.0028358079478144646
1772795505196958700,3.100958740234375,0.0013379706054925918,0.030233079569786787,-0.01310724578909576
1772795505206952000,3.110951904296875,0.00495440753698349,0.02596972303688526,-0.011443258099630474
1772795505216943600,3.120943603515625,-0.005199906730651855,0.004504106486216187,-0.008995463088713586
1772795505226935800,3.130935791015625,0.002163315513730049,-0.0054383185964077705,-0.021090280432254076
1772795505236927700,3.140927734375,0.0020540099203586576,-0.0296687967505306,-0.02260704167075455
1772795505246920000,3.150919921875,-0.00956628524661064,-0.025362843184918164,-0.01250628422126174
1772795505256912000,3.160911865234375,-0.008657353708148002,-0.04458871798478067,-0.013512684784829615
1772795505266904800,3.17090478515625,-0.0071843585461378095,-0.03334156697914004,-0.018365531643480062
1772795505276896800,3.180896728515625,-0.018609423401951788,-0.01593026732057333,-0.02431391865387559
1772795505286889000,3.190888916015625,0.0007867664635181426,-0.016047025568038224,-0.005368687426298856
1772795505296880600,3.200880615234375,-0.005857493856549263,-0.011778262207657098,-0.016640424883924424
1772795505306872800,3.210872802734375,-0.0006593406915664673,0.006072963238134979,-0.013457009074836969
1772795505316864800,3.22086474609375,-0.010557634371519088,-0.006052943363413214,-0.023444186614640056
1772795505326857700,3.230857666015625,-0.009504325926303863,0.004597776119038463,-0.019103892388008532
1772795505336850000,3.240849853515625,0.0002256254494190216,-0.006003112872317433,-0.0179911088405177
1772795505346841900,3.250841796875,-0.0036462475478649136,-0.010526800841838121,-0.014022022546455263
1772795505356833800,3.260833740234375,0.0001537292569875717,-0.020695655091479418,-0.003571099952422082
1772795505366825700,3.27082568359375,-0.006108838269114494,-0.016949746561422945,-0.0006056742755696177
1772795505376817700,3.280817626953125,0.006526771420240402,-0.040252880737558006,0.015126220928691326
1772795505386811000,3.290810791015625,-0.012516367223858833,-0.04069010311104357,-0.0021987886859104037
1772795505396802800,3.300802734375,-0.0030126258194446563,-0.058851198223605745,-0.004932195705175399
1772795505406794800,3.310794677734375,-0.010295184043049811,-0.0497641478613019,0.001229614860191941
1772795505416787000,3.320786865234375,-0.008334113103151321,-0.0528993040818721,-0.012020254269987344
1772795505426779000,3.33077880859375,-0.00684182871878147,-0.034022534980624915,-0.021186872674524782
1772795505436770800,3.340770751953125,0.006271919876337051,-0.01855718175806105,-0.029453217771090567
1772795505446763800,3.350763671875,0.00035948096215724946,0.006315101430937648,-0.0211579753736034
1772795505456756000,3.360755859375,-0.013674889609217642,0.02166325801461935,-0.027669110833294687
1772795505466747600,3.37074755859375,-0.01845394057929516,0.020757687477022408,-0.003426649980433285
1772795505476739800,3.38073974609375,-0.017581833919882772,0.015153876120597123,0.017533939657546578
1772795505486731800,3.390731689453125,-0.005782090532779693,-0.004197670885547996,0.007734612840041517
1772795505496724000,3.400723876953125,-0.012684125006198883,-0.026819983190670606,0.013360489897802471
1772795505506716700,3.410716552734375,-0.007726794859766959,-0.04964994689710438,0.042548773122392594
1772795505516708900,3.420708984375,-0.01766132889688015,-0.05432670653648674,0.04873473174832761
1772795505526700800,3.43070068359375,-0.011205284625291823,-0.057882353191450235,0.04689699492715299
1772795505536692700,3.440692626953125,-0.015017536389827727,-0.06338906084895134,0.038792452796176075
1772795505546684700,3.4506845703125,-0.010102876341342925,-0.052132411362603305,0.01553271937035024
1772795505556678000,3.460677978515625,-0.006945873615145683,-0.025598990028351545,0.0039720089035108685
1772795505566669800,3.470669921875,0.007147533667087555,-0.009345847428962589,0.007280402799136936
1772795505576661800,3.480661865234375,0.013017302483320236,0.008847761713713407,0.0007016089307144284
1772795505586653700,3.49065380859375,-0.0015057283878326415,0.02585325705036521,-0.009774484637193381
1772795505596646000,3.50064599609375,-0.017430442750453946,0.03127849696949124,-0.0018178265443071723
1772795505606637800,3.510637939453125,-0.010666355443000793,0.01814443623870611,-0.007899703741259872
1772795505616630800,3.520630859375,0.00817863028049469,0.02228292428292334,-0.016392295341752468
1772795505626623000,3.530623046875,0.0000637128859758377,0.014602598913386463,-0.03812894738614559
1772795505636615000,3.540614990234375,0.01317044721841812,-0.02520962538458407,-0.040825894852541386
1772795505646606800,3.55060693359375,0.0005313303977251052,-0.03721650871634483,-0.02552559599857777
1772795505656598800,3.560598876953125,-0.02397416530549526,-0.03883724178597331,-0.01356941994074732
1772795505666590700,3.5705908203125,-0.038160511568188664,-0.0433373296841979,-0.027892726988717913
1772795505676583700,3.580583740234375,-0.008645078748464584,-0.0362630804490298,-0.009979797950945795
1772795505686575900,3.590575927734375,-0.015310381856560706,-0.0402764808088541,-0.039236945160664616
1772795505696567800,3.60056787109375,-0.025642975300550458,-0.039871772465482354,-0.01612542456649244
1772795505706560000,3.61056005859375,-0.016024083083868025,-0.04335932232029736,-0.021950477458164093
1772795505716551700,3.6205517578125,-0.009079378512501715,-0.04560330185480416,-0.004468962107598781
1772795505726544000,3.6305439453125,-0.01023556281030178,-0.05578684221692383,0.0016072160009294747
1772795505736536800,3.640536865234375,0.00953881271779537,-0.06615976767130195,0.009313260333612561
1772795505746528800,3.65052880859375,0.01699906559586525,-0.058899640475213524,0.00821731832306832
1772795505756520700,3.660520751953125,0.0006149170279502868,-0.025084537700191138,0.013838555738329886
1772795505766513000,3.670512939453125,0.008473229312896728,-0.022659064118936655,0.023859087558463214
1772795505776504800,3.6805048828125,0.008995207360386849,-0.005811828083917499,0.029141411875560876
1772795505786496800,3.690496826171875,0.011786883905529975,0.0333960005801171,0.03191116884984076
1772795505796489700,3.70048974609375,-0.002884615525603294,0.038707916317880155,0.019355054137483237
1772795505806482000,3.71048193359375,-0.00523848517537117,0.056281932257488364,0.016721052372083066
1772795505816473600,3.7204736328125,-0.022231121030449864,0.05754742214865982,0.009646620473824441
1772795505826465800,3.7304658203125,0.0015139116942882538,0.05060439807772636,-0.0039652869017794724
1772795505836457700,3.740457763671875,-0.018409516915678978,0.03313340412117541,-0.00020235417168587444
1772795505846450700,3.75045068359375,0.007770049479603767,0.001458455180004239,-0.02207330012023449
1772795505856443000,3.76044287109375,-0.00046878655552864073,-0.01395969789996743,-0.02314144080840051
1772795505866434800,3.770434814453125,-0.012332242828607558,-0.04020451155118644,-0.02859601641986519
1772795505876426800,3.7804267578125,-0.014980711510777473,-0.07507781814225017,-0.027554252281971274
1772795505886419000,3.7904189453125,-0.003633388066291809,-0.0931912747208029,-0.010441022254526615
1772795505896410600,3.80041064453125,-0.0076268416166305536,-0.09753726803585887,-0.016516433178074656
1772795505906403800,3.81040380859375,-0.0007534487158060073,-0.09069295509904622,-0.024016068218462167
1772795505916395800,3.820395751953125,-0.004513678032159805,-0.06609941578619181,-0.017954685820266603
1772795505926387700,3.8303876953125,-0.0021206454157829285,-0.060907546231523155,-0.015468568092957139
1772795505936380000,3.8403798828125,-0.012115969729423522,-0.03166661950424313,-0.006911752149835229
1772795505946371800,3.850371826171875,-0.027779987329244613,-0.003457008586078882,-0.002467266896367073
1772795505956364000,3.860364013671875,-0.023047113588452336,0.007413710322603583,-0.0033839068172499534
1772795505966356700,3.870356689453125,-0.015126257461309432,0.0034399113208055496,-0.013306896547041832
1772795505976349000,3.880348876953125,0.007950666743516922,-0.0024158289700746535,-0.01344553783275187
1772795505986340900,3.8903408203125,0.0030821839243173597,-0.008204933765530586,-0.022512276059389113
1772795505996332800,3.900332763671875,0.002443301498889923,-0.009495338902249932,-0.0036245106400921937
1772795506006324700,3.91032470703125,0.005823591586947441,-0.018481266977638005,-0.0017248875638470054
1772795506016317000,3.92031689453125,-0.0044458734929561615,-0.024498043049126863,-0.014521313838101922
1772795506026309600,3.9303095703125,-0.03286182063817978,-0.02643120306879282,-0.013932298436388373
1772795506036301800,3.9403017578125,-0.01690612661540508,-0.011460866821557282,-0.019825375062972307
1772795506046293800,3.950293701171875,-0.006859364375472068,0.0029059505745768544,-0.015013810062780976
1772795506056286000,3.960285888671875,-0.0088578447163105,0.023537527453899382,0.00511595477424562
1772795506066277600,3.970277587890625,-0.013171031740307808,0.038423984809964895,0.019648630256578325
1772795506076269800,3.980269775390625,0.0064209729582071304,0.0449723835401237,0.027633235802315175
1772795506086262800,3.9902626953125,0.013289105162024497,0.03281571647413075,0.032077136533893644
1772795506096254700,4.000254638671875,0.010614917516708374,0.025719912994280458,0.04602196565829217
1772795506106246700,4.01024658203125,-0.001121112984418869,0.01696370202153921,0.047733664947003124
1772795506116239600,4.020239501953125,-0.008548048114776611,-0.0070282181363552805,0.025837219231016933
1772795506126231600,4.0302314453125,0.008227730119228362,-0.022457038740813732,0.02702840177696198
1772795506136224500,4.040224609375,-0.008259294301271439,-0.014501549691706896,0.02050407804213464
1772795506146216700,4.050216796875,0.0005243161350488662,-0.018197993056848643,0.015811170985549686
1772795506156208600,4.060208740234375,-0.01407937875688076,-0.032427740069851274,-0.01454242969136685
1772795506166200600,4.07020068359375,-0.011734861457347869,-0.05025580383576452,-0.00008329436928033829
1772795506176192500,4.080192626953125,-0.01776245118379593,-0.05709061829186975,0.00966247563008219
1772795506186184700,4.090184814453125,-0.011702712753415107,-0.05819032316207885,-0.020765541989915072
1772795506196177400,4.100177490234375,0.0029331308424472807,-0.06672405049055814,-0.02701382526233792
1772795506206169600,4.110169677734375,0.0038473230779170987,-0.060779024481028315,-0.044956966775283214
1772795506216161500,4.12016162109375,0.004053074783086776,-0.053331631084531546,-0.03207680774033069
1772795506226153700,4.13015380859375,-0.0009387421548366546,-0.058241614957898855,-0.05399608634263277
1772795506236145400,4.1401455078125,0.01551321095228195,-0.03995426311716437,-0.06392557887844741
1772795506246137600,4.1501376953125,0.018444003707170486,-0.03167904059439897,-0.06345412544179707
1772795506256130600,4.160130615234375,0.011449614775180816,-0.005354293574765324,-0.03350625602155924
1772795506266122500,4.17012255859375,-0.0071212301820516586,0.0040555590011179445,-0.019130415068753064
1772795506276114400,4.180114501953125,-0.010286416214704512,0.017291764932125805,-0.014412958092801272
1772795506286106600,4.190106689453125,0.0020008184283971785,0.021880480961874126,0.003113090519234538
1772795506296098600,4.2000986328125,-0.010649988830089569,0.026625994988530872,0.006759411132335662
1772795506306090500,4.210090576171875,-0.0007587094128131866,0.044404666654765605,0.03085351302307099
1772795506316083700,4.220083740234375,-0.014865560698509216,0.028302111507207153,0.007274484515003859
1772795506326075600,4.23007568359375,0.002502338209748268,0.0161035780608654,0.01378247816953808
1772795506336067600,4.240067626953125,0.007927285867929458,-0.017970029519870877,0.015701500065997243
1772795506346059500,4.2500595703125,-0.00030336686074733735,-0.04416048263534903,0.03189549635667354
1772795506356051500,4.260051513671875,-0.008097381737828254,-0.05920293427072465,0.045128122091107066
1772795506366043600,4.270043701171875,0.015357143607735633,-0.0673272770807147,0.047947417295537885
1772795506376036600,4.28003662109375,-0.006384732601046562,-0.06542685028687119,0.06240947522707283
1772795506386028500,4.290028564453125,-0.016426818665862084,-0.06700608230233192,0.05595536718424409
1772795506396020700,4.300020751953125,-0.00996200656592846,-0.03177665574997663,0.021057547206431625
1772795506406012400,4.310012451171875,0.0007318214058876037,-0.017125541519746185,0.008507387310825287
1772795506416004600,4.320004638671875,-0.005876198557019234,0.005222703084349632,0.0031618250317871567
1772795506425997600,4.32999755859375,0.009252396991848945,0.03958477221764624,-0.01264536389838904
1772795506435989500,4.339989501953125,-0.0016010054558515548,0.054986485619470477,-0.019265804951451717
1772795506445981400,4.3499814453125,0.000009352350234985351,0.05159107102751732,-0.02559902656096965
1772795506455973600,4.3599736328125,-0.013652677777409552,0.041562428966164584,-0.026969839990139004
1772795506465965600,4.369965576171875,-0.011335633006691931,0.020226503209769726,-0.05035338245872408
1772795506475957800,4.379957763671875,-0.012815057909488677,-0.008516118606552481,-0.031041765604168176
1772795506485950500,4.389950439453125,0.0020937574088573455,-0.03585186929963529,-0.04126644169427454
1772795506495942700,4.399942626953125,0.0035831191837787627,-0.053724429794400924,-0.019695063214190303
1772795506505934600,4.4099345703125,-0.011049801802635192,-0.07613843311108648,-0.04505144012570381
1772795506515926500,4.419926513671875,0.002049333745241165,-0.07957732151858508,-0.024311763229407368
1772795506525918500,4.42991845703125,-0.004195113602280616,-0.07789229104109108,-0.03244147633425891
1772795506535910700,4.43991064453125,0.009315525355935095,-0.041373847591504455,-0.004354943806491792
1772795506545903400,4.4499033203125,-0.0024327801048755642,-0.02010287683010101,-0.017928017009049654
1772795506555895600,4.4598955078125,-0.015161328774690628,-0.0009313625659793615,0.01308971013240516
1772795506565887500,4.469887451171875,-0.026788638204336166,0.027506942541524766,0.02249835713189095
1772795506575879700,4.479879638671875,-0.007377835291624069,0.03538710133209824,0.007365121940523385
1772795506585871400,4.489871337890625,0.004929857617616653,0.029659444400295613,0.03137932699546218
1772795506595863600,4.499863525390625,0.014321370819211005,0.019885800013318657,0.0226519402584061
1772795506605856800,4.509856689453125,0.01987549781501293,0.003865297126024961,0.011804857953637837
1772795506615848400,4.519848388671875,-0.0034323125362396237,-0.034050372835621234,-0.007555712609179317
1772795506625840600,4.529840576171875,-0.023587796336412427,-0.06301299407817423,0.01681282230876386
1772795506635832600,4.53983251953125,-0.027467852640151978,-0.06354403221495449,-0.00399206531085074
1772795506645824800,4.54982470703125,-0.017595277923345566,-0.07371602826975286,-0.010095021828450262
1772795506655816400,4.55981640625,0.003763736447691917,-0.06486432103328406,-0.018886194516718385
1772795506665809700,4.5698095703125,0.004115618625283241,-0.05272906208150088,-0.015205058318562805
1772795506675801600,4.579801513671875,-0.005916530567407608,-0.031130393735691902,-0.03701357002276927
1772795506685793500,4.58979345703125,-0.011533785927295684,-0.020741540059819815,-0.026489143801108003
1772795506695785500,4.599785400390625,0.012108955466747283,0.02073993262462318,-0.013173735154047607
1772795506705777700,4.609777587890625,-0.013568506625294685,0.03788293673582375,-0.02165807038284838
1772795506715769600,4.61976953125,0.00009176993668079376,0.0356116308029741,0.023228132711164654
1772795506725762600,4.629762451171875,-0.00552256281375885,0.030835721638053655,0.030181970437057313
1772795506735754500,4.63975439453125,-0.013927987587451934,0.04366086255013942,0.02021857563164085
1772795506745746700,4.64974658203125,-0.017004910814762113,0.016691022560000417,0.021541494798474014
1772795506755738600,4.659738525390625,-0.015052023181319235,0.012799641144648193,0.02256437157280743
1772795506765730600,4.66973046875,-0.008501286363601684,-0.01892389617860317,0.011065693491511047
1772795506775723500,4.6797236328125,-0.008785364001989364,-0.03288717427514493,0.007019413775391876
1772795506785715500,4.689715576171875,-0.006483516800403595,-0.034808936117962,0.01317874012272805
1772795506795707400,4.699707275390625,0.0015203414350748062,-0.035135829984769225,0.003120725836418569
1772795506805699600,4.709699462890625,0.002198386827111244,-0.05571085437126457,-0.008402940555661917
1772795506815691500,4.71969140625,0.01092179150879383,-0.0362063818257302,-0.015604579030163586
1772795506825683700,4.72968359375,-0.00002396539747714996,-0.026945728462189435,-0.02599273858629167
1772795506835676700,4.7396767578125,-0.0168617029517889,-0.028089418604597446,-0.00550791323389858
1772795506845668600,4.749668701171875,-0.009075871381163596,-0.01948313749656081,-0.024622875005193053
1772795506855660800,4.759660888671875,0.004175239858031273,-0.017945991057157516,-0.05262227723877877
1772795506865652500,4.769652587890625,0.014584990191459654,-0.006802958013117313,-0.03543649343177676
1772795506875644400,4.77964453125,-0.0024298574954271317,-0.004311652654036879,-0.029543928261846302
1772795506885636600,4.78963671875,-0.016486439898610115,-0.018518530248105524,-0.026508359958231448
1772795506895629600,4.799629638671875,-0.02233282783925533,-0.01773936256915331,-0.008761727398075164
1772795506905621500,4.80962158203125,-0.01515256094634533,-0.02399213935360312,0.014538593766465782
1772795506915613700,4.81961376953125,-0.03790156837105751,-0.00738061177060008,0.002209017818979919
1772795506925605600,4.829605712890625,-0.02321077971756458,-0.012510375874489546,0.005313596238195896
1772795506935597600,4.83959765625,-0.008155249404907226,-0.013576470736041664,0.00429302101880312
1772795506945590500,4.849590576171875,-0.005735913303494453,-0.01879150197058916,-0.006061784256994724
1772795506955582700,4.859582763671875,-0.010455927562713623,-0.03297003025300801,0.007388795077055693
1772795506965574400,4.869574462890625,0.009974866047501564,-0.03586524023786187,0.012991364324465394
1772795506975566600,4.879566650390625,0.0018231237739324568,-0.04321216893456876,-0.0036417175032198426
1772795506985558500,4.88955859375,0.002918517795205116,-0.05381707651391625,0.03726118810828775
1772795506995550700,4.89955078125,-0.00168225399851799,-0.06465608511008322,0.03498929765354842
1772795507005542400,4.90954248046875,-0.005253682744503021,-0.04395188138596713,0.029271650659106672
1772795507015535600,4.91953564453125,-0.019282208096981047,-0.03481332003213465,0.03297751943971962
1772795507025527600,4.929527587890625,0.007563713252544403,-0.030984190198034046,0.0201851482860744
1772795507035519500,4.93951953125,0.011321019959449768,-0.023369988867267964,-0.004997296830639243
1772795507045511400,4.949511474609375,0.006486439409852027,0.0036942514080554245,-0.010201039486192167
1772795507055503600,4.959503662109375,0.0018546879559755325,0.010749942073225974,-0.01896061145979911
1772795507065496300,4.969496337890625,-0.013716975185275078,0.02924531064145267,-0.01209799568131566
1772795507075488500,4.979488525390625,-0.019111527705192564,0.01623852955214679,-0.033293124727532264
1772795507085480400,4.98948046875,-0.0008446341305971145,0.033445831071212885,-0.037079438333213324
1772795507095472600,4.99947265625,-0.014779051458835601,0.017675868878886104,-0.021654124860092997
1772795507105464600,5.009464599609375,-0.005818915411829948,-0.00973937679119408,-0.008949505055136978
1772795507115456300,5.019456298828125,0.018070494219660758,-0.018328633699193596,-0.013619871486350894
1772795507125449500,5.029449462890625,-0.006585808131098747,-0.025697043575346468,-0.009017199996486305
1772795507135441700,5.039441650390625,-0.019489713367819784,-0.013462050576135516,0.00673562839794904
1772795507145433300,5.049433349609375,-0.004754501050710678,-0.020511457630991936,0.015537870469503104
1772795507155425500,5.059425537109375,-0.003911035963892936,-0.010706541322916745,0.014900193620473146
1772795507165417500,5.06941748046875,-0.002514028647542,-0.0015593582712113857,0.0021276596784591674
1772795507175409400,5.079409423828125,-0.008511223235726355,0.00715513245165348,0.020446173842437566
1772795507185402400,5.08940234375,-0.008308978661894798,0.021511720714718102,0.012108845868892966
1772795507195394600,5.09939453125,-0.012680033352971076,0.015162863144651054,0.009734189159423113
1772795507205386500,5.109386474609375,-0.0132715695053339,-0.014228797164931892,-0.008377404255606234
1772795507215378400,5.11937841796875,0.0041273090630769725,-0.006071721129119396,-0.005501958417147398
1772795507225370400,5.129370361328125,0.016745967617630957,-0.03624094168245792,-0.005422901831567287
1772795507235362600,5.139362548828125,0.0031739538609981536,-0.04480038797408342,0.00688164927251637
1772795507245355300,5.149355224609375,-0.010552958196401596,-0.05700199016034603,0.005573781544342637
1772795507255347500,5.159347412109375,0.0009311433702707291,-0.08019603793881833,-0.000163519998639822
1772795507265339400,5.16933935546875,-0.021619711133837698,-0.07012187623530626,0.000036496085487306115
1772795507275331600,5.17933154296875,-0.0034019173979759213,-0.05258695019707083,-0.0068528615694493054
1772795507285323300,5.1893232421875,-0.006353752940893173,-0.036537002019584174,-0.026187055581994353
1772795507295316500,5.19931640625,-0.0023170447707176207,-0.017642258870229122,-0.0073934347195550795
1772795507305308400,5.209308349609375,0.0055932899624109265,0.001409282276034355,-0.024624847766570746
1772795507315300400,5.21930029296875,-0.014788403809070587,0.021965382766351103,-0.024353337348811326
1772795507325292300,5.229292236328125,-0.03246200766563415,0.005260185550525784,-0.006449139606766402
1772795507335284500,5.239284423828125,-0.005682137289643287,0.03219451583586633,0.003299443404190242
1772795507345276400,5.2492763671875,-0.0035439562171697614,0.024743103851377964,-0.014795345006510615
1772795507355269400,5.259269287109375,-0.008372691547870636,0.005273921814933419,0.025152232641540467
1772795507365261300,5.26926123046875,0.00689502021074295,-0.013485212256014347,0.0335438115529716
1772795507375253500,5.27925341796875,0.0014145429730415343,-0.0020920038431882855,0.02360482053644955
1772795507385245400,5.289245361328125,0.0031540801167488095,-0.02838167954944074,0.02406940584089607
1772795507395237400,5.2992373046875,0.00012450316250324248,-0.029198110498860477,0.024916012732870876
1772795507405229300,5.309229248046875,-0.00426642527282238,-0.010108283168822526,0.013359247788786888
1772795507415222500,5.319222412109375,-0.007459083834290504,-0.002836100208759308,0.006568637800589204
1772795507425214500,5.32921435546875,-0.008546879070997238,0.001192059328779578,-0.004658602928183973
1772795507435206400,5.339206298828125,-0.014016250392794609,0.009278919672593474,-0.03021737054400146
1772795507445198600,5.349198486328125,-0.002000233906507492,0.015646774204075335,-0.01982844380289316
1772795507455190500,5.3591904296875,0.009399696508049964,-0.00534859448634088,-0.009487776650302112
1772795507465182500,5.369182373046875,-0.017846622335910795,-0.0007731032643467187,-0.020003690771944818
1772795507475175400,5.379175537109375,0.0029091654449701306,-0.013839578651636838,-0.020631503814086318
1772795507485167600,5.389167724609375,-0.0034498481929302214,-0.023008754339441655,-0.020786694375798106
1772795507495159300,5.3991591796875,-0.012519874355196952,-0.024015227968245744,-0.010764080196432768
1772795507505151500,5.4091513671875,0.005198737686872482,-0.04704553655236959,0.0030816359350457788
1772795507515143400,5.419143310546875,0.0007470189750194549,-0.028665537992119787,0.00893770501948893
1772795507525136400,5.429136474609375,-0.014333061257004736,-0.008784706414863466,0.0026136896297335624
1772795507535128300,5.43912841796875,-0.023885902500152587,-0.01737834723703563,0.007602657023444771
1772795507545120500,5.44912060546875,-0.014680851781368255,-0.005160305372625589,0.01487578983157873
1772795507555112400,5.459112548828125,-0.017844868770241735,0.010935600838437675,-0.002496054599434137
1772795507565104400,5.4691044921875,0.0029857378125190733,-0.00046031098812818525,-0.021399163718335328
1772795507575096300,5.479096435546875,-0.007708090159296989,0.0135362117908895,-0.0019640300819650292
1772795507585089500,5.489089599609375,0.0047691140979528425,0.013153861409798264,-0.0026819690929725764
1772795507595081200,5.499081298828125,-0.00772328772842884,-0.015438172954693435,-0.0004144990850239992
1772795507605073400,5.509073486328125,-0.0016395839005708694,-0.02860357867181301,-0.0013500263694673775
1772795507615065300,5.5190654296875,0.012913257586956023,-0.03468063356317579,0.00502813036032021
1772795507625057500,5.5290576171875,0.0009399111986160278,-0.055538493479043244,0.01863137950543314
1772795507635049200,5.53904931640625,0.0036140988439321516,-0.03795614810250699,0.02837250986229628
1772795507645042400,5.54904248046875,0.01211129355430603,-0.028092560409754514,0.028396621390245853
1772795507655034600,5.55903466796875,0.01253565644621849,-0.013886632663756608,0.00974120342209935
1772795507665026300,5.5690263671875,-0.0025754034459590913,0.0064958648253232235,0.004135857695713639
1772795507675018500,5.5790185546875,-0.005561141258478165,0.025658465130627153,-0.011450637688487768
1772795507685010400,5.589010498046875,-0.008995791882276534,0.04808751988597214,-0.017231266916543243
1772795507695002400,5.59900244140625,-0.026634908947348594,0.03895180807635188,-0.015561434008181094
1772795507704995300,5.608995361328125,-0.0007242226213216781,0.031199805710092184,-0.035164361959509546
1772795507714987500,5.618987548828125,0.011420973202586173,0.014034589767083525,-0.010834259355813265
1772795507724979500,5.6289794921875,0.0036339725881814953,0.0014957915157079696,-0.010983312437683343
1772795507734971600,5.6389716796875,-0.012101356682181357,-0.015194208130985497,-0.014491101362928747
1772795507744963300,5.64896337890625,-0.02025192991197109,-0.02731551162265241,0.015806640940904615
1772795507754955500,5.65895556640625,-0.019468670579791066,-0.02975333322882652,0.006964578315615653
1772795507764948500,5.668948486328125,-0.02034954506754875,-0.034681364215537906,0.007126125552877783
1772795507774940400,5.6789404296875,-0.007158055061101913,-0.00901939195357263,0.007900690121948719
1772795507784932400,5.688932373046875,-0.00047463177442550657,0.005266761421784758,-0.003987096874788403
1772795507794924500,5.698924560546875,0.001631400594115257,0.014029840526729821,0.014063961992040276
1772795507804916500,5.70891650390625,-0.0021925416082143783,0.035338220689073205,-0.010246668726205825
1772795507814909400,5.718909423828125,-0.0034580314993858333,0.028225173813477156,0.009049239102564752
1772795507824901400,5.7289013671875,-0.01130348430275917,0.007799787030741572,-0.011272321979515254
1772795507834893600,5.7388935546875,-0.010610825863480567,0.0004366378515958786,-0.002597578745149076
1772795507844885200,5.74888525390625,-0.0010743512332439423,-0.019954992792010306,0.0013635069055482744
1772795507854877400,5.75887744140625,-0.004988894328474998,-0.05514942109622061,-0.009538410858996212
1772795507864869400,5.768869384765625,-0.004710661908984184,-0.05181282401941716,0.01786642301492393
1772795507874862300,5.7788623046875,-0.00880816035568714,-0.056703445605188606,0.013165076923556625
1772795507884854300,5.788854248046875,-0.008182137411832808,-0.06784311764836311,-0.010074271301366388
1772795507894846500,5.798846435546875,0.009600187516212463,-0.05207958519682288,-0.028155396512895822
1772795507904838400,5.80883837890625,0.007426935130357742,-0.025068171087279913,-0.01686378531102091
1772795507914830300,5.818830322265625,-0.014963175854086875,-0.013968027336895466,-0.019433489668555556
1772795507924822300,5.828822265625,-0.007150456276535987,0.017726576152816413,-0.013959990160912275
1772795507934815500,5.8388154296875,-0.023899346503615377,0.011043737388029693,-0.01597030707001686
1772795507944807400,5.848807373046875,-0.011628478473424912,0.023638942001760005,0.013097455047443508
1772795507954799400,5.85879931640625,-0.006377718338370323,0.02173172014094889,0.03443330773860216
1772795507964791600,5.86879150390625,0.003684241470694542,0.017353139730542897,0.013587905445508659
1772795507974783500,5.878783447265625,0.0010457096606492995,0.008092924758419395,0.018324615111202
1772795507984775400,5.888775390625,-0.01246025312244892,-0.0014426730889827012,0.04460698429383337
1772795507994768400,5.898768310546875,-0.008713467809557915,-0.005234393522143364,0.035262890430539845
1772795508004760600,5.908760498046875,-0.004003974944353103,-0.030372707236185667,0.005746032838709652
1772795508014752500,5.91875244140625,-0.016140402939915657,-0.02331796641908586,0.020785123473219574
1772795508024744400,5.928744384765625,-0.005322071805596351,-0.03220386818610132,-0.00721994131617248
1772795508034736400,5.938736328125,-0.009143091398477554,-0.02428454642891884,-0.00296991918887943
1772795508044728600,5.948728515625,-0.022078560817241667,-0.019020415355637667,-0.011761712931655347
1772795508054721300,5.95872119140625,-0.008114332872629165,-0.004226166327670216,-0.03238236655816436
1772795508064713500,5.96871337890625,-0.008710545200109481,0.000810951056703925,-0.023204094248451292
1772795508074705400,5.978705322265625,-0.0044458734929561615,0.02093019449971616,-0.04281385379936546
1772795508084697600,5.988697509765625,0.01651625051498413,0.008250380342453718,-0.028015001661516725
1772795508094689300,5.998689208984375,0.007317045015096664,0.009472323352843523,-0.0309055720038712
1772795508104682500,6.0086826171875,-0.0010544774889945983,0.005391776040941477,-0.02330196513235569
1772795508114674000,6.018673828125,-0.004078793746232986,-0.01938259973153472,-0.011561258456110954
1772795508124665900,6.028665771484375,-0.025691490617394445,-0.034669089255854484,0.004783800210431218
1772795508134657800,6.03865771484375,-0.005518471160531044,-0.03206825910769403,0.012667867991141973
1772795508144649700,6.048649658203125,-0.00010813654959201812,-0.02797865170650184,0.02355203090328723
1772795508154642000,6.058641845703125,-0.022305939832329747,-0.02198386827111244,0.01953625592328608
1772795508164634600,6.068634521484375,-0.02635433844029903,-0.0009192337367683648,0.020539149355515835
1772795508174626800,6.078626708984375,0.00286649534702301,0.008476736444234847,0.03149173786137253
1772795508184618800,6.08861865234375,0.00596738397181034,0.03380691946856677,0.010281301648169755
1772795508194611000,6.09861083984375,0.02195639574229717,0.03189063751846552,0.014595949976891278
1772795508204602600,6.1086025390625,0.022127076134085655,0.0019404665432870387,0.001833535570092499
1772795508214594800,6.1185947265625,-0.01737023699581623,-0.015575608664005994,-0.01757222584132105
1772795508224588000,6.128588134765625,-0.024616554862260817,-0.030724881674721836,-0.009171879101544617
1772795508234579700,6.138579833984375,-0.0005120411753654479,-0.048007221191376445,0.008219729475863278
1772795508244572000,6.148572021484375,-0.005789689317345619,-0.05472644644379616,0.009329663479141891
1772795508254563800,6.158563720703125,-0.016665303596854208,-0.05815883204527199,0.003001666034013033
1772795508264555800,6.1685556640625,-0.0046259062349796294,-0.049245823075622315,0.0011116875689476727
1772795508274547700,6.178547607421875,0.007117138528823852,-0.027245953517779708,-0.020518289230577646
1772795508284541000,6.188541015625,-0.00040741175711154934,0.0015737521227449178,-0.020252697096951305
1772795508294532900,6.198532958984375,-0.018957798448204992,0.01731784922145307,-0.019137977320700883
1772795508304524800,6.20852490234375,0.0023480244308710096,0.015867942674085495,-0.02356087179686874
1772795508314516700,6.218516845703125,0.003630465456843376,0.026279811899363993,-0.023574827256985006
1772795508324509000,6.228509033203125,-0.0039034371793270108,0.024532237579673526,-0.021126995713450013
1772795508334501600,6.238501708984375,0.0059200376987457275,0.010121434911340474,-0.031766426616907116
1772795508344493800,6.248493896484375,0.01244154842197895,0.005589636700600385,-0.03564779809489846
1772795508354485800,6.25848583984375,-0.005465864190459251,0.00460289068557322,-0.032594730667211115
1772795508364478000,6.26847802734375,-0.0001052139401435852,-0.031008959313109517,-0.011785678329132496
1772795508374469600,6.2784697265625,-0.00876373669207096,-0.012602584202587603,-0.020471271751075982
1772795508384461800,6.2884619140625,-0.021252631387114522,-0.030023528472334145,-0.007455357507243752
1772795508394454800,6.298454833984375,-0.0031131635844707487,-0.020593582956492898,0.026154724214971063
1772795508404446700,6.30844677734375,0.00336450799703598,-0.002898059529066086,0.03927640038821846
1772795508414438700,6.318438720703125,0.017227613654732705,-0.003018397973105311,0.010362367527745664
1772795508424430800,6.328430908203125,0.002270283019542694,0.028692060672864315,0.011861410446465015
1772795508434422800,6.3384228515625,-0.014842179822921752,0.04498772723972797,0.0309453925576061
1772795508444415000,6.3484150390625,-0.012137597039341926,0.03269552416056394,0.016740195463970303
1772795508454407700,6.35840771484375,-0.019679682981967924,0.023888313652947545,0.011044687236100435
1772795508464400000,6.36839990234375,-0.005196399599313736,0.019691446484997866,0.013729030949249862
1772795508474391800,6.378391845703125,-0.004086392530798912,-0.012415318002179264,0.018547573679499326
1772795508484383700,6.3883837890625,0.017042320215702057,-0.04773329962082207,0.01596701913438737
1772795508494375700,6.398375732421875,0.02485036361813545,-0.06919416693113743,-0.012018354573845863
1772795508504367900,6.408367919921875,0.05348141481876373,-0.069797393521294,-0.041710860993526874
1772795508514360800,6.41836083984375,0.028407763838768002,-0.049125923023000354,-0.03983852778300643
1772795508524352800,6.428352783203125,-0.043266894796490665,-0.041383857528865337,-0.02662497207522392
1772795508534345000,6.438344970703125,-0.09367781612873077,-0.027150968710705638,-0.04004179527014494
1772795508544337000,6.4483369140625,-0.06281389130949974,-0.021669614690169692,-0.04379727534614503
1772795508554328800,6.458328857421875,-0.011205284625291823,-0.022631299329176544,-0.028497561014071107
1772795508564321800,6.46832177734375,0.03282967193424702,-0.0003668605510145426,0.0012799568079411984
1772795508574314000,6.47831396484375,0.0651163230329752,-0.003295680544525385,0.020233006015792487
1772795508584305700,6.4883056640625,0.04190086714029312,0.004832096331566572,0.046954570333287114
1772795508594297900,6.4982978515625,-0.014799509724974631,0.009574687748774886,0.0574521085480228
1772795508604289800,6.508289794921875,-0.06904431013166903,-0.002787292630970478,0.03900784911252558
1772795508614282000,6.518281982421875,-0.08570902920663356,-0.0015320318728685378,0.04115578439403325
1772795508624274700,6.528274658203125,-0.04315115946233272,-0.012827844325825571,0.009701309803128243
