time,seconds_elapsed,z,y,x
1772795502169331700,0.073331787109375,0.009693356230854988,0.06594273447990417,-0.007878984324634075
1772795502179323600,0.08332373046875,0.015172810293734074,0.06002172827720642,-0.003324978519231081
1772795502189315800,0.09331591796875,0.020073026418685913,0.047526974231004715,-0.0017776819877326488
1772795502199307800,0.103307861328125,0.016505956649780273,0.02729424089193344,-0.0056386711075901985
1772795502209300700,0.11330078125,0.01476797740906477,0.007101886440068483,-0.007577984593808651
1772795502219292700,0.123292724609375,0.009422637522220612,-0.012575788423418999,-0.010899703949689865
1772795502229284900,0.133284912109375,0.005936293862760067,-0.02714594267308712,-0.013986840844154358
1772795502239276500,0.143276611328125,0.0008572228252887726,-0.023723138496279716,-0.004251962993294001
1772795502249268700,0.153268798828125,0.0035142586566507816,-0.018105199560523033,0.0063181230798363686
1772795502259260700,0.1632607421875,0.0011217675637453794,-0.0049486844800412655,0.004511515609920025
1772795502269253600,0.173253662109375,0.000038926489651203156,0.012588764540851116,0.008598935790359974
1772795502279245600,0.18324560546875,-0.003124031238257885,0.023359861224889755,-0.0009833639487624168
1772795502289237800,0.19323779296875,-0.00447771605104208,0.02867952734231949,-0.0035224216990172863
1772795502299229700,0.203229736328125,-0.008508004248142242,0.027538906782865524,-0.007080507464706898
1772795502309221600,0.2132216796875,-0.013233783654868603,0.01711449585855007,-0.003571525914594531
1772795502319213600,0.223213623046875,-0.017571335658431053,0.003582640551030636,-0.0025910937692970037
1772795502329206800,0.233206787109375,-0.023553326725959778,-0.011743318289518356,-0.008838869631290436
1772795502339198500,0.243198486328125,-0.021133454516530037,-0.0302690789103508,-0.011912054382264614
1772795502349190700,0.253190673828125,-0.023028293624520302,-0.039678823202848434,-0.011926701292395592
1772795502359182600,0.2631826171875,-0.015145650133490562,-0.040157172828912735,-0.003865928389132023
1772795502369174800,0.2731748046875,-0.010470470413565636,-0.03385560214519501,0.006131578236818314
1772795502379166700,0.283166748046875,-0.015129060484468937,-0.020757034420967102,0.0066994717344641685
1772795502389159700,0.29315966796875,-0.02292892523109913,-0.006734427064657211,0.005800122395157814
1772795502399151900,0.30315185546875,-0.03192301467061043,0.00816070381551981,0.004462719429284334
1772795502409143800,0.313143798828125,-0.03447911888360977,0.020796336233615875,-0.004751551430672407
1772795502419135500,0.323135498046875,-0.03634726256132126,0.026296628639101982,-0.007231610827147961
1772795502429127700,0.333127685546875,-0.034160010516643524,0.028311578556895256,-0.00987985823303461
1772795502439119600,0.34311962890625,-0.027671514078974724,0.02695586159825325,-0.011609252542257309
1772795502449112600,0.353112548828125,-0.025803040713071823,0.01992831379175186,-0.009539976716041565
1772795502459104800,0.363104736328125,-0.016859471797943115,0.004754964262247086,-0.004218551330268383
1772795502469096700,0.3730966796875,-0.011021822690963745,-0.014819802716374397,-0.0007508494891226292
1772795502479089000,0.3830888671875,-0.0037441556341946125,-0.03427175432443619,0.0006372724310494959
1772795502489080600,0.39308056640625,0.0014042675029486418,-0.053024135529994965,0.003006154205650091
1772795502499073800,0.40307373046875,0.004730915650725365,-0.0610625296831131,0.0025794152170419693
1772795502509065700,0.413065673828125,0.008783181197941303,-0.06095866858959198,0.0017863258253782988
1772795502519057700,0.4230576171875,0.010692558251321316,-0.04690607264637947,0.003524879226461053
1772795502529049600,0.433049560546875,0.01318447757512331,-0.02066435106098652,-0.0030715044122189283
1772795502539041800,0.443041748046875,0.011085046455264091,0.012562120333313942,-0.00423074048012495
1772795502549033700,0.45303369140625,0.011416077613830566,0.04505428671836853,-0.0055977413430809975
1772795502559026700,0.463026611328125,0.007668695412576199,0.07472997158765793,-0.006937573663890362
1772795502569018600,0.4730185546875,0.008384020067751408,0.09251828491687775,-0.008218021132051945
1772795502579010800,0.4830107421875,0.0035496787168085575,0.1021391898393631,-0.005808047950267792
1772795502589002500,0.49300244140625,0.0014095623046159744,0.10141001641750336,-0.0045489054173231125
1772795502598994700,0.50299462890625,-0.0030356142669916153,0.08328857272863388,-0.007190840318799019
1772795502608986600,0.512986572265625,-0.0061408597975969315,0.05807722359895706,-0.00227943854406476
1772795502618979600,0.5229794921875,-0.008831091225147247,0.02686946466565132,-0.003654882311820984
1772795502628971500,0.532971435546875,-0.005044342018663883,-0.009131678380072117,0.0007348061189986765
1772795502638963700,0.542963623046875,-0.0005789885763078928,-0.03476576879620552,0.006458143703639507
1772795502648955600,0.55295556640625,0.0023001546505838633,-0.049659498035907745,0.006884515751153231
1772795502658947600,0.562947509765625,0.002084188163280487,-0.056400079280138016,0.010253027081489563
1772795502668940800,0.57294091796875,0.0013571451418101788,-0.04745478555560112,0.00759865390136838
1772795502678932700,0.5829326171875,-0.0013744438765570521,-0.028179338201880455,0.0033283347729593515
1772795502688924700,0.592924560546875,-0.0057830410078167915,0.003940513823181391,0.0022936968598514795
1772795502698916600,0.60291650390625,-0.006550437770783901,0.031853094696998596,-0.005013913847506046
1772795502708908800,0.61290869140625,-0.010228263214230537,0.0615534633398056,-0.01056980062276125
1772795502718900700,0.622900634765625,-0.009638937190175056,0.0830756351351738,-0.011521818116307259
1772795502728893700,0.632893798828125,-0.008121468126773834,0.08978200703859329,-0.008471166715025902
1772795502738885600,0.6428857421875,-0.0056035276502370834,0.08722329884767532,-0.007662652991712093
1772795502748877800,0.6528779296875,-0.0005576364928856492,0.07034950703382492,-0.0024681570939719677
1772795502758869800,0.662869873046875,0.004050117917358875,0.04321211948990822,0.002181639429181814
1772795502768861700,0.67286181640625,0.006839512847363949,0.010956177487969398,-0.0019433305133134127
1772795502778853600,0.682853515625,0.009208692237734795,-0.01972460187971592,0.00021509957150556147
1772795502788846800,0.692846923828125,0.008525058627128601,-0.041603803634643555,0.0016627940349280834
1772795502798838500,0.702838623046875,0.008022518828511238,-0.05212422460317612,0.005306617356836796
1772795502808830700,0.712830810546875,0.003427501767873764,-0.05491761490702629,0.006281600799411535
1772795502818822700,0.72282275390625,0.0014879833906888962,-0.03989824652671814,0.007772228680551052
1772795502828814800,0.73281494140625,-0.0019054163713008165,-0.019416939467191696,0.006359688006341457
1772795502838806500,0.742806640625,-0.003176291473209858,0.008891907520592213,0.002389653120189905
1772795502848799700,0.7527998046875,-0.0030591124668717384,0.03957818076014519,-0.0014207980129867792
1772795502858791700,0.762791748046875,-0.005657919682562351,0.05966551601886749,-0.004501440562307835
1772795502868783600,0.77278369140625,-0.010531238280236721,0.07295522093772888,-0.0072082774713635445
1772795502878775600,0.782775634765625,-0.009609407745301723,0.07152774184942245,-0.006638317834585905
1772795502888767700,0.792767822265625,-0.01618422009050846,0.05850221589207649,-0.009426914155483246
1772795502898760700,0.8027607421875,-0.014508324675261974,0.030901458114385605,-0.004418862052261829
1772795502908752600,0.812752685546875,-0.016268141567707062,0.0019158795475959778,0.00028348129126243293
1772795502918744800,0.822744873046875,-0.014318926259875298,-0.03129476308822632,0.009296232834458351
1772795502928736800,0.83273681640625,-0.011889057233929634,-0.05948299169540405,0.01082195807248354
1772795502938728400,0.842728515625,-0.007748736534267664,-0.08484382182359695,0.013485487550497055
1772795502948720600,0.852720703125,-0.004630707670003176,-0.0998573899269104,0.014727053232491016
1772795502958713900,0.8627138671875,0.0008156921248883009,-0.10388213396072388,0.015618208795785904
1772795502968705500,0.87270556640625,-0.0032120724208652973,-0.09551261365413666,0.016362827271223068
1772795502978697700,0.88269775390625,-0.004125489387661219,-0.08017250150442123,0.009315920062363148
1772795502988689700,0.892689697265625,-0.004329221323132515,-0.05193233862519264,0.007848251610994339
1772795502998681900,0.902681884765625,-0.007309173233807087,-0.02168230339884758,0.003364390693604946
1772795503008673800,0.912673828125,-0.007049514912068844,0.0068111238069832325,0.00018404368893243372
1772795503018666800,0.922666748046875,-0.0077086156234145164,0.035560376942157745,0.00006467214552685618
1772795503028658700,0.93265869140625,-0.007766938768327236,0.05419664829969406,-0.0023790444247424603
1772795503038650600,0.942650634765625,-0.009736926294863224,0.06757032871246338,-0.006584438495337963
1772795503048642600,0.952642578125,-0.009645047597587109,0.06980551779270172,-0.007028121035546064
1772795503058634800,0.962634765625,-0.009424411691725254,0.061799921095371246,-0.0075048101134598255
1772795503068627700,0.972627685546875,-0.0074174534529447556,0.04917973279953003,-0.003259730990976095
1772795503078619600,0.98261962890625,-0.007552007213234901,0.034007247537374496,-0.0027124108746647835
1772795503088611600,0.992611572265625,-0.0072875553742051125,0.014423429034650326,-0.005489554721862078
1772795503098603800,1.002603759765625,-0.003289963351562619,-0.0021320562809705734,-0.002088984940201044
1772795503108595700,1.012595703125,-0.0027488090563565493,-0.018738729879260063,-0.0008109339978545904
1772795503118587100,1.022587158203125,-0.0006582727655768394,-0.026566483080387115,0.000529168697539717
1772795503128580000,1.032580078125,0.004199865739792585,-0.02249664068222046,0.00380112836137414
1772795503138572000,1.042572021484375,0.008615449070930481,-0.01650898903608322,0.003907797858119011
1772795503148564000,1.05256396484375,0.010007483884692192,-0.008218836039304733,0.0014728695387020707
1772795503158556000,1.062555908203125,0.009018965065479279,0.00719718262553215,-0.002625120570883155
1772795503168547800,1.0725478515625,0.006113989744335413,0.019338000565767288,-0.007096301764249802
1772795503178540000,1.0825400390625,0.0034696105867624283,0.02786385640501976,-0.009850645437836647
1772795503188533000,1.092532958984375,0.0030994312837719917,0.031381357461214066,-0.00923092756420374
1772795503198525000,1.10252490234375,-0.0002059582620859146,0.028461990877985954,-0.0047186315059661865
1772795503208517000,1.11251708984375,0.00004091672599315643,0.019024280831217766,-0.006741302087903023
1772795503218509000,1.122509033203125,0.0005639302544295788,0.005544524174183607,-0.0039941901341080666
1772795503228501000,1.1325009765625,0.0021695501636713743,-0.009787294082343578,-0.00281893671490252
1772795503238493000,1.142492919921875,0.004206773824989796,-0.0272354893386364,-0.0006229733116924763
1772795503248486100,1.152486083984375,0.008434275165200233,-0.04121601954102516,-0.0008152535883709788
1772795503258477800,1.162477783203125,0.010605755262076855,-0.0514984093606472,-0.0017923293635249138
1772795503268470000,1.172469970703125,0.009051534347236156,-0.05215488001704216,0.0009240948711521924
1772795503278462000,1.1824619140625,0.008743328973650932,-0.053238995373249054,0.005075942724943161
1772795503288454100,1.1924541015625,0.008095914497971535,-0.04636271297931671,0.003904950339347124
1772795503298445800,1.20244580078125,0.006497327238321304,-0.03677336126565933,0.0031677461229264736
1772795503308439000,1.21243896484375,0.0035345610231161118,-0.024881014600396156,0.003178132465109229
1772795503318431000,1.222430908203125,0.004535987973213196,-0.015301412902772427,-0.00048289436381310225
1772795503328423000,1.2324228515625,0.00504465214908123,-0.0037723223213106394,-0.00081578956451267
1772795503338414800,1.242414794921875,0.006004000548273325,0.005984911695122719,-0.0008655700366944075
1772795503348407000,1.252406982421875,0.006624517496675253,0.012231888249516487,-0.003678400767967105
1772795503358399700,1.262399658203125,0.006368634290993214,0.018093284219503403,-0.0022199710365384817
1772795503368392000,1.272391845703125,0.0035869628190994263,0.02041928842663765,-0.005258105229586363
1772795503378384000,1.2823837890625,0.004846386611461639,0.01928427442908287,-0.0012238883646205068
1772795503388376000,1.2923759765625,0.0005839972291141748,0.02252773568034172,-0.0010715555399656296
1772795503398368000,1.302367919921875,-0.0032538226805627346,0.02137226052582264,-0.0007014984148554504
1772795503408360000,1.31235986328125,-0.005420837085694075,0.016527971252799034,-0.001274610636755824
1772795503418353200,1.322353271484375,-0.008938135579228401,0.0128721809014678,0.003166332608088851
1772795503428345000,1.332344970703125,-0.010124573484063148,0.005082434043288231,-0.00017779867630451918
1772795503438337000,1.3423369140625,-0.008037594147026539,-0.0009725410491228104,0.00022603909019380808
1772795503448329000,1.352328857421875,-0.007572872564196587,-0.007156933657824993,0.000571184791624546
1772795503458321200,1.362321044921875,-0.005766231566667557,-0.013219005428254604,-0.001027241232804954
1772795503468313000,1.37231298828125,-0.000718742492608726,-0.01466297172009945,0.0009126053191721439
1772795503478306000,1.38230615234375,0.000851016491651535,-0.013755254447460175,0.0025528438854962587
1772795503488298000,1.392298095703125,0.002063553547486663,-0.01427190750837326,0.001934191444888711
1772795503498290200,1.402290283203125,0.0031429354567080736,-0.010902625508606434,-0.0002220883616246283
1772795503508281900,1.41228173828125,0.0034047241788357496,-0.006302014924585819,0.00020375108579173684
1772795503518274000,1.422274169921875,-0.0014884746633470058,-0.0044157300144433975,0.000611029623541981
1772795503528266000,1.432265869140625,-0.0018810246838256717,-0.0023011798039078712,-0.0002837924985215068
1772795503538259000,1.442259033203125,-0.003591023851186037,-0.007722700480371714,-0.00092174211749807
1772795503548251000,1.4522509765625,-0.00393750099465251,-0.011044194921851158,-0.0007619524258188903
1772795503558243000,1.4622431640625,-0.0019035045988857746,-0.016247201710939407,-0.0016006845980882645
1772795503568235000,1.472235107421875,-0.0008824486285448074,-0.022851042449474335,0.0031240293756127357
1772795503578227000,1.48222705078125,0.0027910848148167133,-0.025599325075745583,0.004438361153006554
1772795503588220000,1.492219970703125,0.007260934915393591,-0.029531214386224747,0.005042632110416889
1772795503598212000,1.502212158203125,0.007832715287804604,-0.024539653211832047,0.00023695806157775223
1772795503608203800,1.512203857421875,0.011621328070759773,-0.016059348359704018,-0.0005382881499826908
1772795503618196000,1.522196044921875,0.010056909173727036,-0.0063894931226968765,-0.005266930907964706
1772795503628188000,1.53218798828125,0.010839877650141716,0.0069055394269526005,-0.004965460859239101
1772795503638180000,1.54218017578125,0.0030715465545654297,0.025344982743263245,-0.008415980264544487
1772795503648173000,1.552173095703125,0.0017823101952672005,0.04110077768564224,-0.004604463931173086
1772795503658165000,1.5621650390625,-0.002456125570461154,0.05503494292497635,-0.002754426095634699
1772795503668157000,1.572156982421875,-0.00601943489164114,0.05889786034822464,-0.0012737085344269872
1772795503678148900,1.58214892578125,-0.007459674961864948,0.05616746470332146,-0.0035521257668733597
1772795503688140800,1.592140869140625,-0.006161383353173733,0.044485244899988174,-0.005839248653501272
1772795503698133000,1.602133056640625,-0.0018514635739848018,0.027926228940486908,-0.007020524702966213
1772795503708126000,1.6121259765625,-0.001325489254668355,0.0076012518256902695,-0.0034122075885534286
1772795503718118000,1.622117919921875,0.003444013651460409,-0.016271546483039856,-0.001977480947971344
1772795503728110000,1.632110107421875,0.009803642518818378,-0.03899523615837097,0.0017730488907545805
1772795503738102000,1.64210205078125,0.011460801586508751,-0.058656152337789536,0.005323291290551424
1772795503748094200,1.65209423828125,0.013639533892273903,-0.06943795830011368,0.006247940473258495
1772795503758086000,1.6620859375,0.013592958450317383,-0.07025124877691269,0.008388710208237171
1772795503768079000,1.6720791015625,0.01478126086294651,-0.06374780088663101,0.006310645490884781
1772795503778071000,1.682071044921875,0.011505917645990849,-0.04678352549672127,0.003865351201966405
1772795503788063000,1.69206298828125,0.00793328694999218,-0.026247357949614525,0.0019478752510622144
1772795503798055000,1.702054931640625,0.005886852741241455,-0.006862277165055275,-0.00030050892382860184
1772795503808047000,1.712047119140625,0.004106529057025909,0.017146117985248566,-0.0024257113691419363
1772795503818039800,1.722039794921875,-0.0023286407813429832,0.03240387141704559,-0.004696506541222334
1772795503828032000,1.732031982421875,-0.00002474011853337288,0.042224012315273285,0.0003166280221194029
1772795503838024000,1.74202392578125,-0.0023412667214870453,0.04419597238302231,-0.0037667560391128063
1772795503848016100,1.75201611328125,-0.0017029070295393467,0.0410771444439888,-0.0029020276851952076
1772795503858007800,1.7620078125,-0.0017067119479179382,0.032338425517082214,-0.007876483723521233
1772795503868000000,1.772,0.0025146647822111845,0.01732991263270378,-0.009410198777914047
1772795503877993000,1.781992919921875,0.004586806520819664,0.0036069871857762337,-0.0032918124925345182
1772795503887985000,1.79198486328125,0.004573224578052759,-0.008592687547206879,-0.0003173278528265655
1772795503897976800,1.801976806640625,0.0020615188404917717,-0.012625190429389477,0.003398560220375657
1772795503907969000,1.811968994140625,-0.002425907412543893,-0.011489884927868843,0.007415140047669411
1772795503917961000,1.8219609375,-0.004609433002769947,-0.003345938166603446,0.007030312903225422
1772795503927953000,1.831952880859375,-0.008246778510510921,0.003229140304028988,0.005627626087516546
1772795503937946000,1.841946044921875,-0.005918831564486027,0.011496600694954395,0.0043898094445466995
1772795503947938000,1.85193798828125,-0.0054077706299722195,0.020205669105052948,-0.003921649884432554
1772795503957930000,1.861929931640625,-0.0008646361529827118,0.02791316993534565,-0.006215348839759827
1772795503967922000,1.871921875,0.0027905525639653206,0.03219739347696304,-0.0035556498914957047
1772795503977914000,1.8819140625,0.008003703318536282,0.03350077196955681,-0.008415590971708298
1772795503987906000,1.891906005859375,0.008603713475167751,0.03374897688627243,-0.006303437519818544
1772795503997899000,1.90189892578125,0.008329425007104874,0.030868645757436752,-0.0039780884981155396
1772795504007891000,1.911890869140625,0.009012259542942047,0.029150638729333878,-0.004607659764587879
1772795504017883100,1.921883056640625,0.00582605367526412,0.02273055911064148,-0.00568331079557538
1772795504027875000,1.931875,0.00007921876385807991,0.01553549524396658,-0.008225031197071075
1772795504037867000,1.941866943359375,-0.004038686864078045,0.00352172227576375,-0.006171836517751217
1772795504047859000,1.95185888671875,-0.010333600454032421,-0.006055537145584822,-0.0022886814549565315
1772795504057852000,1.961851806640625,-0.010206708684563637,-0.02102597802877426,0.001485386397689581
1772795504067843800,1.97184375,-0.010474888607859612,-0.03863426670432091,0.006132868584245443
1772795504077836000,1.9818359375,-0.007508017588406801,-0.055950827896595,0.004590058699250221
1772795504087828000,1.991827880859375,-0.004412359558045864,-0.0707167237997055,0.005822303239256144
1772795504097820200,2.001820068359375,-0.0004833502462133765,-0.08899129182100296,0.009700479917228222
1772795504107812900,2.011812744140625,0.0031012645922601223,-0.09152954816818237,0.01005521323531866
1772795504117805300,2.021805419921875,0.002244180766865611,-0.08994011580944061,0.012906639836728573
1772795504127797200,2.03179736328125,0.0015224642120301723,-0.07438725978136063,0.01201474666595459
1772795504137789200,2.0417890625,-0.0016814444679766893,-0.052441202104091644,0.012977909296751022
1772795504147781400,2.051781494140625,-0.0010769069194793701,-0.02648576721549034,0.008464650250971317
1772795504157773300,2.061773193359375,-0.0025601000525057316,0.0005461727268993855,0.0029905028641223907
1772795504167766300,2.071766357421875,-0.001983792055398226,0.028617221862077713,-0.005328945815563202
1772795504177758200,2.08175830078125,-0.0007214368088170886,0.05159778147935867,-0.007118713576346636
1772795504187750400,2.09175048828125,-0.005041883327066898,0.06551972031593323,-0.00938772689551115
1772795504197742300,2.101742431640625,-0.0033844748977571726,0.07236658036708832,-0.00822150707244873
1772795504207734300,2.111734375,-0.0028129604179412127,0.07527341693639755,-0.006988996174186468
1772795504217726200,2.121726318359375,-0.003472608048468828,0.06841406226158142,-0.008310580626130104
1772795504227719400,2.131719482421875,-0.0023849732242524624,0.05521809309720993,-0.006926269270479679
1772795504237711000,2.141711181640625,-0.003994448110461235,0.04236835613846779,-0.004123128019273281
1772795504247703300,2.151703369140625,-0.0023472828324884176,0.024914799258112907,-0.0026088543236255646
1772795504257695200,2.1616953125,-0.0030244598165154457,0.0065183984115719795,0.0011323128128424287
1772795504267687400,2.1716875,-0.003409020137041807,-0.01294158585369587,0.0016268618637695909
1772795504277679000,2.18167919921875,-0.0016500191995874047,-0.02618722803890705,0.0063666123896837234
1772795504287672300,2.19167236328125,0.0002884957939386368,-0.03494423255324364,0.007825758308172226
1772795504297664500,2.20166455078125,-0.0013608310837298632,-0.041551172733306885,0.00854513980448246
1772795504307656200,2.21165625,-0.000417273142375052,-0.04866820201277733,0.004476628266274929
1772795504317648400,2.2216484375,-0.0003706825664266944,-0.048174209892749786,0.00296442536637187
1772795504327640300,2.231640380859375,0.0014290816616266966,-0.03813622146844864,0.004466714337468147
1772795504337632500,2.241632568359375,-0.00038454693276435137,-0.031845979392528534,0.004638077225536108
1772795504347625200,2.251625244140625,-0.001573381945490837,-0.020832477137446404,0.0048135798424482346
1772795504357617400,2.261617431640625,-0.001755009638145566,-0.005807721056044102,0.0028649447485804558
1772795504367609300,2.271609375,-0.0008956075180321932,0.007136839907616377,0.0007599823293276131
1772795504377601300,2.281601318359375,0.0016594761982560158,0.021409031003713608,-0.0030541145242750645
1772795504387593200,2.29159326171875,0.000017104903236031532,0.03363373875617981,-0.006932476069778204
1772795504397586400,2.30158642578125,0.004951519425958395,0.03757692873477936,-0.008921366184949875
1772795504407578000,2.311578125,0.005902800243347883,0.04105634242296219,-0.00756954587996006
1772795504417570300,2.3215703125,0.006515106186270714,0.04280516877770424,-0.005207853391766548
1772795504427562200,2.331562255859375,0.006813114508986473,0.03993401676416397,-0.003180389292538166
1772795504437554400,2.341554443359375,0.001982689369469881,0.030486058443784714,-0.0013591769384220243
1772795504447546400,2.35154638671875,0.00046255718916654587,0.017859216779470444,-0.0009264132240787148
1772795504457539300,2.361539306640625,-0.0008902848931029439,0.007731411140412092,-0.0036907719913870096
1772795504467531300,2.37153125,-0.0020045514684170485,-0.005223003216087818,-0.004153895191848278
1772795504477523200,2.381523193359375,0.0010739569552242756,-0.017936933785676956,-0.0036025007721036673
1772795504487515100,2.39151513671875,0.002018313854932785,-0.025760235264897346,-0.001913790125399828
1772795504497507300,2.40150732421875,0.005667893216013908,-0.027001943439245224,-0.0008116514072753489
1772795504507499300,2.411499267578125,0.00793664064258337,-0.023336902260780334,-0.0012603939976543188
1772795504517492200,2.4214921875,0.0025625228881835938,-0.020603567361831665,0.0009113943669945002
1772795504527484400,2.431484375,0.0036794529296457767,-0.01163563784211874,-0.000415925111155957
1772795504537476400,2.441476318359375,0.0011424003168940544,-0.007528500631451607,-0.001646142452955246
1772795504547468500,2.451468505859375,0.002008726354688406,-0.004350816830992699,-0.0030909073539078236
1772795504557460200,2.461460205078125,-0.00042314687743782997,-0.0035422914661467075,-0.0034513960126787424
1772795504567452200,2.4714521484375,-0.0001262044534087181,-0.00414629653096199,-0.002718494040891528
1772795504577445400,2.4814453125,0.0018468988128006458,-0.009979438968002796,-0.003904687473550439
1772795504587437300,2.491437255859375,0.004738026764243841,-0.010787708684802055,0.0010051161516457796
1772795504597429200,2.50142919921875,0.008894139900803566,-0.013156749308109283,0.006285392679274082
1772795504607421400,2.51142138671875,0.008194793947041035,-0.011742610484361649,0.003655520733445883
1772795504617413400,2.521413330078125,0.011043579317629337,-0.010581071488559246,0.004930288065224886
1772795504627406300,2.53140625,0.006648831069469452,-0.007376489695161581,-0.0011470455210655928
1772795504637398300,2.541398193359375,0.004782562609761953,-0.0035014955792576075,-0.004853161051869392
1772795504647390500,2.551390380859375,0.0020355121232569218,0.0027915537357330322,-0.006161039229482412
1772795504657382100,2.561382080078125,-0.0029907331336289644,0.011022781953215599,-0.005959582515060902
1772795504667374300,2.571374267578125,-0.006368154194205999,0.019849563017487526,-0.003572857705876231
1772795504677366300,2.5813662109375,-0.0028102328069508076,0.02085762843489647,-0.0036333687603473663
1772795504687359200,2.591359130859375,-0.0007867629174143076,0.017875419929623604,-0.0022048489190638065
1772795504697351200,2.60135107421875,0.0032202431466430426,0.007846919819712639,-0.0014445408014580607
1772795504707343400,2.61134326171875,0.005450374446809292,-0.0029860197100788355,-0.0004730195505544543
1772795504717335300,2.621335205078125,0.006995413918048143,-0.018330072984099388,0.0013258447870612144
1772795504727327200,2.6313271484375,0.004480856936424971,-0.02767510525882244,0.0037104389630258083
1772795504737319200,2.641319091796875,-0.0004790103994309902,-0.0331517830491066,0.0026668263599276543
1772795504747312400,2.6513125,-0.0004366661887615919,-0.04075830429792404,0.004121977370232344
1772795504757304000,2.661303955078125,-0.0015739314258098602,-0.04119381681084633,0.0034949055407196283
1772795504767296300,2.671296142578125,-0.003957194276154041,-0.03369195759296417,0.006133832037448883
1772795504777288200,2.6812880859375,-0.00422164611518383,-0.024788478389382362,0.0027119361329823732
1772795504787280400,2.6912802734375,-0.0019768676720559597,-0.015161151066422462,0.003431255929172039
1772795504797272300,2.701272216796875,0.001966601237654686,-0.007273147348314524,0.0009990931721404195
1772795504807265300,2.711265380859375,0.002460617572069168,0.0015355246141552925,-0.006038310006260872
1772795504817257500,2.721257568359375,0.005132457707077265,0.0026925564743578434,-0.006121359765529633
1772795504827249400,2.73124951171875,0.005125000607222319,0.0031026829965412617,-0.004983124788850546
1772795504837241300,2.741241455078125,0.00908660888671875,0.0027883192524313927,-0.0024078066926449537
1772795504847233300,2.7512333984375,0.005401060916483402,0.0039052488282322884,-0.0018107257783412933
1772795504857225500,2.7612255859375,0.006853251717984676,0.003506940323859453,0.002022690139710903
1772795504867218200,2.77121826171875,0.0031615777406841516,0.005561568308621645,0.0008679434540681541
1772795504877210400,2.78121044921875,-0.001038305927067995,0.009984602220356464,-0.0006378284306265414
1772795504887202300,2.791202392578125,-0.0026721551548689604,0.012738577090203762,-0.002713762689381838
1772795504897194500,2.801194580078125,-0.004227959085255861,0.013545271009206772,-0.003956598695367575
1772795504907186200,2.811186279296875,-0.004307853989303112,0.01564277708530426,-0.005872743204236031
1772795504917179400,2.821179443359375,-0.003641357645392418,0.014730943366885185,-0.001866631442680955
1772795504927171300,2.83117138671875,-0.004022455774247646,0.01163528487086296,-0.00008471054024994373
1772795504937163300,2.841163330078125,0.000829195836558938,0.0013362211175262928,0.0010720023419708014
1772795504947155200,2.8511552734375,0.002477692672982812,-0.001930412370711565,0.0041287788189947605
1772795504957147400,2.8611474609375,0.007049432024359703,-0.009472861886024475,0.0035823388025164604
1772795504967139300,2.871139404296875,0.0068952348083257675,-0.013931792229413986,0.003911505453288555
1772795504977132300,2.88113232421875,0.0036083152517676353,-0.02115447260439396,-0.00041266693733632565
1772795504987124200,2.891124267578125,0.0010764480102807283,-0.021628515794873238,-0.002815370913594961
1772795504997116400,2.901116455078125,0.00037321471609175205,-0.023872770369052887,-0.0009949584491550922
1772795505007108000,2.911108154296875,-0.0026785016525536776,-0.01483773160725832,0.0019073544535785913
1772795505017100300,2.921100341796875,-0.0036543929018080235,-0.007959164679050446,0.0015215030871331692
1772795505027092200,2.93109228515625,-0.002977417316287756,0.0027475417591631413,0.004496520385146141
1772795505037085200,2.941085205078125,-0.0030875150114297867,0.010789377614855766,0.004843304865062237
1772795505047077400,2.951077392578125,-0.0017964146099984646,0.02127530798316002,-0.001892894972115755
1772795505057069300,2.9610693359375,-0.0030864644795656204,0.028162751346826553,-0.001117176841944456
1772795505067061500,2.9710615234375,-0.00002622627653181553,0.022740023210644722,-0.00666081253439188
1772795505077053200,2.98105322265625,0.004284773487597704,0.01891014352440834,-0.006173823960125446
1772795505087045000,2.991045166015625,0.0070099858567118645,0.012195780873298645,-0.004381250124424696
1772795505097038300,3.001038330078125,0.00721268355846405,0.005882391706109047,-0.004822064656764269
1772795505107030300,3.0110302734375,0.007137316279113293,0.0022740745916962624,0.00035858244518749416
1772795505117021700,3.021021728515625,0.001985791837796569,0.003607874270528555,0.0006253294995985925
1772795505127014000,3.031013916015625,0.0014680733438581228,0.00472134118899703,0.002863716334104538
1772795505137005800,3.041005859375,0.0004899399355053902,0.005440586246550083,-0.002572594676166773
1772795505146998000,3.050998046875,-0.0010941083310171962,0.005079993978142738,-0.003084720578044653
1772795505156990700,3.06099072265625,-0.00037480262108147144,0.004951071925461292,-0.00835464522242546
1772795505166983000,3.07098291015625,-0.0016773546813055873,-0.0009153392165899277,-0.0057226428762078285
1772795505176974800,3.080974853515625,-0.0023395575117319822,-0.004517807625234127,-0.002423682250082493
1772795505186966800,3.090966796875,-0.0004817363806068897,-0.00949845090508461,0.0029084989801049232
1772795505196958700,3.100958740234375,0.003299529431387782,-0.01770673505961895,0.0046546924859285355
1772795505206952000,3.110951904296875,0.0029104414861649275,-0.01789235882461071,0.00871281698346138
1772795505216943600,3.120943603515625,0.005568055436015129,-0.017426379024982452,0.007722919806838036
1772795505226935800,3.130935791015625,0.005778711289167404,-0.013850286602973938,0.005455770529806614
1772795505236927700,3.140927734375,0.001784314401447773,-0.010171985253691673,0.0003403912123758346
1772795505246920000,3.150919921875,0.002367280423641205,-0.004586005117744207,-0.0010188862215727568
1772795505256912000,3.160911865234375,-0.0005545825697481632,0.006210604216903448,-0.003211159724742174
1772795505266904800,3.17090478515625,-0.004146920517086983,0.011627206578850746,0.00024881926947273314
1772795505276896800,3.180896728515625,-0.005266685038805008,0.014255035668611526,-0.0019760874565690756
1772795505286889000,3.190888916015625,-0.0007174729835242033,0.014564761891961098,0.0005451270844787359
1772795505296880600,3.200880615234375,-0.001992109464481473,0.01389573235064745,-0.0014251619577407837
1772795505306872800,3.210872802734375,-0.002238185377791524,0.010848010890185833,-0.00010263605508953333
1772795505316864800,3.22086474609375,-0.002971541602164507,0.002219578716903925,-0.004016929771751165
1772795505326857700,3.230857666015625,-0.0016492821741849184,-0.0021512010134756565,-0.001834735507145524
1772795505336850000,3.240849853515625,-0.005180022679269314,-0.006108181085437536,0.00007716839900240302
1772795505346841900,3.250841796875,-0.005610389169305563,-0.01120387390255928,0.002221812028437853
1772795505356833800,3.260833740234375,-0.003981459885835648,-0.012205475941300392,0.0012094419216737151
1772795505366825700,3.27082568359375,-0.006319448817521334,-0.01778639666736126,0.0024302350357174873
1772795505376817700,3.280817626953125,-0.001208419562317431,-0.01656811311841011,0.004163993522524834
1772795505386811000,3.290810791015625,-0.004415930714458227,-0.01788744330406189,0.00031199760269373655
1772795505396802800,3.300802734375,0.0017461699899286032,-0.012890342622995377,0.004348038695752621
1772795505406794800,3.310794677734375,0.00262820883654058,-0.006893702782690525,0.00014264104538597167
1772795505416787000,3.320786865234375,0.005212290212512016,-0.004014148376882076,0.00179501052480191
1772795505426779000,3.33077880859375,0.005351040977984667,0.006402007769793272,-0.001772027462720871
1772795505436770800,3.340770751953125,0.0028968430124223232,0.012733583338558674,-0.0023631476797163486
1772795505446763800,3.350763671875,0.004417774733155966,0.01870066300034523,-0.002168204402551055
1772795505456756000,3.360755859375,0.00008924538269639015,0.03014349937438965,-0.007724437862634659
1772795505466747600,3.37074755859375,-0.003023190889507532,0.033847156912088394,-0.004467125982046127
1772795505476739800,3.38073974609375,-0.003963177092373371,0.033288270235061646,-0.0038229485508054495
1772795505486731800,3.390731689453125,-0.0037128401454538107,0.03379853442311287,-0.0029209358617663383
1772795505496724000,3.400723876953125,-0.00285478588193655,0.03019486367702484,-0.00007522600935772061
1772795505506716700,3.410716552734375,0.0023434385657310486,0.01893661916255951,-0.0011543388245627284
1772795505516708900,3.420708984375,0.004197404719889164,0.009416894987225533,-0.003855419112369418
1772795505526700800,3.43070068359375,0.006560161709785461,-0.0022200527600944042,-0.0042386483401060104
1772795505536692700,3.440692626953125,0.008094783872365952,-0.01472001988440752,-0.0028306753374636173
1772795505546684700,3.4506845703125,0.008819696493446827,-0.022132661193609238,-0.005055746529251337
1772795505556678000,3.460677978515625,0.006648045964539051,-0.030936120077967644,-0.0003424432943575084
1772795505566669800,3.470669921875,0.007629953324794769,-0.03440435230731964,0.0005880651879124343
1772795505576661800,3.480661865234375,0.004738325718790293,-0.03608505427837372,0.0004685106687247753
1772795505586653700,3.49065380859375,0.00442087696865201,-0.029551256448030472,0.0014155306853353977
1772795505596646000,3.50064599609375,0.002608924638479948,-0.02064531296491623,0.0036402116529643536
1772795505606637800,3.510637939453125,0.0028147869743406773,-0.009166022762656212,0.0002966128522530198
1772795505616630800,3.520630859375,0.0024100805167108774,0.0005322350189089775,0.0029705918859690428
1772795505626623000,3.530623046875,0.003303837263956666,0.00731663778424263,-0.002053195144981146
1772795505636615000,3.540614990234375,0.0026983115822076797,0.016846582293510437,-0.0032980195246636868
1772795505646606800,3.55060693359375,0.002140113152563572,0.022194476798176765,-0.004279394634068012
1772795505656598800,3.560598876953125,0.0019494779407978058,0.02443929761648178,0.0009380863048136234
1772795505666590700,3.5705908203125,0.0003361350391060114,0.021624602377414703,0.00018947169883176684
1772795505676583700,3.580583740234375,-0.00040428526699543,0.01717226207256317,0.000961645448114723
1772795505686575900,3.590575927734375,0.0017281079199165106,0.01391495019197464,-0.001171280164271593
1772795505696567800,3.60056787109375,0.004113231785595417,0.00570084759965539,-0.0063346978276968
1772795505706560000,3.61056005859375,0.0019273089710623026,0.001917028333991766,-0.005788217298686504
1772795505716551700,3.6205517578125,0.003259032964706421,0.0007493593730032444,-0.004316309932619333
1772795505726544000,3.6305439453125,0.0047429464757442474,0.000882251188158989,-0.006967753171920776
1772795505736536800,3.640536865234375,-0.0012317327782511711,0.0022576465271413326,-0.004062488675117493
1772795505746528800,3.65052880859375,-0.0035646618343889713,0.009706774726510048,-0.002837434643879533
1772795505756520700,3.660520751953125,-0.005135407671332359,0.012908400036394596,-0.0005895233480259776
1772795505766513000,3.670512939453125,-0.003374791704118252,0.016225900501012802,-0.0017203015740960836
1772795505776504800,3.6805048828125,-0.0039242953062057495,0.013918569311499596,-0.0028564874082803726
1772795505786496800,3.690496826171875,-0.0014989543706178665,0.011106271296739578,-0.004022952169179916
1772795505796489700,3.70048974609375,0.0009707047138363123,-0.0011638673022389412,-0.003945495001971722
1772795505806482000,3.71048193359375,0.0027986986096948385,-0.013179250992834568,0.002315596444532275
1772795505816473600,3.7204736328125,0.006730822846293449,-0.02499145269393921,0.005888739600777626
1772795505826465800,3.7304658203125,0.006933488883078098,-0.03600495681166649,0.005632277112454176
1772795505836457700,3.740457763671875,0.0067548081278800964,-0.038102056831121445,0.008027933537960052
1772795505846450700,3.75045068359375,0.005898335017263889,-0.03618431091308594,0.00698983296751976
1772795505856443000,3.76044287109375,0.005309041123837233,-0.031554218381643295,0.0051559400744736195
1772795505866434800,3.770434814453125,0.00464511476457119,-0.018439214676618576,0.0011872978648170829
1772795505876426800,3.7804267578125,0.003997353836894035,-0.002145792357623577,-0.0008104420267045498
1772795505886419000,3.7904189453125,0.004582716152071953,0.013966865837574005,-0.000555311213247478
1772795505896410600,3.80041064453125,0.004804151598364115,0.03194185718894005,-0.00610763393342495
1772795505906403800,3.81040380859375,0.002049644012004137,0.042379848659038544,-0.005810691509395838
1772795505916395800,3.820395751953125,0.0031778228003531694,0.04459046199917793,-0.009799614548683167
1772795505926387700,3.8303876953125,0.006156302057206631,0.04415077343583107,-0.012968509458005428
1772795505936380000,3.8403798828125,0.006032103672623634,0.0334482379257679,-0.00938938558101654
1772795505946371800,3.850371826171875,0.007747179828584194,0.02383982017636299,-0.006213299930095673
1772795505956364000,3.860364013671875,0.00387220224365592,0.013189096935093403,-0.005671899765729904
1772795505966356700,3.870356689453125,0.004917226731777191,-0.001899841707199812,-0.002126700012013316
1772795505976349000,3.880348876953125,0.005492967087775469,-0.012436917051672935,0.0020666958298534155
1772795505986340900,3.8903408203125,0.003042326308786869,-0.02215399220585823,0.00023204417084343731
1772795505996332800,3.900332763671875,0.007384488824754953,-0.024904116988182068,0.002998779062181711
1772795506006324700,3.91032470703125,0.008166659623384476,-0.020838268101215363,0.003253909759223461
1772795506016317000,3.92031689453125,0.008427398279309273,-0.010739417746663094,0.0010175305651500821
1772795506026309600,3.9303095703125,0.008002093061804771,0.007439585402607918,-0.0008264421485364437
1772795506036301800,3.9403017578125,0.009612802416086197,0.022521767765283585,-0.005817001219838858
1772795506046293800,3.950293701171875,0.01215745322406292,0.04120171070098877,-0.007436469197273254
1772795506056286000,3.960285888671875,0.006729288958013058,0.05938220024108887,-0.011908940970897675
1772795506066277600,3.970277587890625,0.008554886095225811,0.06899408251047134,-0.010490274988114834
1772795506076269800,3.980269775390625,0.00957547128200531,0.07228048890829086,-0.012717333622276783
1772795506086262800,3.9902626953125,0.007655864115804434,0.06726336479187012,-0.011179890483617783
1772795506096254700,4.000254638671875,0.0072859833016991615,0.055981166660785675,-0.008020294830203056
1772795506106246700,4.01024658203125,0.005412982776761055,0.033958420157432556,-0.0036250133998692036
1772795506116239600,4.020239501953125,0.002119341865181923,0.008095556870102882,-0.0013413112610578537
1772795506126231600,4.0302314453125,0.00048655783757567406,-0.017023377120494843,0.005871061235666275
1772795506136224500,4.040224609375,-0.0008981613209471107,-0.04192580655217171,0.010267245583236217
1772795506146216700,4.050216796875,-0.003927506972104311,-0.06506814062595367,0.008366547524929047
1772795506156208600,4.060208740234375,-0.0032374034635722637,-0.07843313366174698,0.007353948429226875
1772795506166200600,4.07020068359375,-0.00027144106570631266,-0.08336663991212845,0.005811179522424936
1772795506176192500,4.080192626953125,0.001189913833513856,-0.07901216298341751,0.0034883907064795494
1772795506186184700,4.090184814453125,0.0013662150595337152,-0.06412482261657715,0.004324357025325298
1772795506196177400,4.100177490234375,0.0019912589341402054,-0.044261638075113297,0.0040399315766990185
1772795506206169600,4.110169677734375,0.002970237284898758,-0.019293170422315598,0.000048119400162249804
1772795506216161500,4.12016162109375,0.004255164880305529,0.0025364523753523827,0.0003084945201408118
1772795506226153700,4.13015380859375,0.0003749390598386526,0.026579733937978745,-0.007179515436291695
1772795506236145400,4.1401455078125,0.0007336668204516172,0.043966714292764664,-0.007210408337414265
1772795506246137600,4.1501376953125,-0.0009854035452008247,0.054030802100896835,-0.009434946812689304
1772795506256130600,4.160130615234375,-0.0003192687872797251,0.06099970266222954,-0.005899313371628523
1772795506266122500,4.17012255859375,-0.002304122783243656,0.061652448028326035,-0.0021799427922815084
1772795506276114400,4.180114501953125,-0.00033194234129041433,0.05929885432124138,-0.0036875992082059383
1772795506286106600,4.190106689453125,-0.0023255846463143826,0.05118686705827713,-0.004682289902120829
1772795506296098600,4.2000986328125,-0.0013577305944636464,0.04132818058133125,-0.005993485916405916
1772795506306090500,4.210090576171875,0.0011256670113652945,0.024789685383439064,-0.007452898658812046
1772795506316083700,4.220083740234375,0.005186000838875771,0.01283496618270874,-0.007327443454414606
1772795506326075600,4.23007568359375,0.009793269447982311,0.0010185199789702892,-0.00607176311314106
1772795506336067600,4.240067626953125,0.009319322183728218,0.000016191042959690094,-0.001861408120021224
1772795506346059500,4.2500595703125,0.009281771257519722,-0.002350294031202793,0.002979153534397483
1772795506356051500,4.260051513671875,0.0063859764486551285,0.002992794383317232,0.0028016234282404184
1772795506366043600,4.270043701171875,0.004122023470699787,0.007352122571319342,0.0008439337252639234
1772795506376036600,4.28003662109375,0.00036198412999510765,0.01061896700412035,-0.003670902457088232
1772795506386028500,4.290028564453125,-0.0015491002704948187,0.005444977432489395,-0.005101019982248545
1772795506396020700,4.300020751953125,-0.0042998166754841805,-0.005013987421989441,-0.001840369077399373
1772795506406012400,4.310012451171875,-0.005259886384010315,-0.014384320005774498,-0.0027700786013156176
1772795506416004600,4.320004638671875,-0.0014946784358471632,-0.028014743700623512,0.0018882611766457558
1772795506425997600,4.32999755859375,-0.00007148529402911663,-0.044510629028081894,0.007276368793100119
1772795506435989500,4.339989501953125,0.002739105373620987,-0.05751868709921837,0.006923008244484663
1772795506445981400,4.3499814453125,0.003996916580945253,-0.06119517982006073,0.009014122188091278
1772795506455973600,4.3599736328125,0.005316607654094696,-0.06033382564783096,0.008329055272042751
1772795506465965600,4.369965576171875,0.0051930369809269905,-0.04903775826096535,0.007489627227187157
1772795506475957800,4.379957763671875,0.002018627244979143,-0.027913888916373253,0.003643244272097945
1772795506485950500,4.389950439453125,0.0017216848209500313,-0.009374026209115982,-0.0011935888323932886
1772795506495942700,4.399942626953125,0.0008267206139862537,0.014816930517554283,-0.0009743910050019622
1772795506505934600,4.4099345703125,-0.002215674612671137,0.03536961227655411,0.00006424181628972292
1772795506515926500,4.419926513671875,-0.004459653981029987,0.047092046588659286,-0.005219203419983387
1772795506525918500,4.42991845703125,-0.007464498747140169,0.055455438792705536,-0.0035419445484876633
1772795506535910700,4.43991064453125,-0.006201564334332943,0.05571368336677551,-0.008266964927315712
1772795506545903400,4.4499033203125,-0.002517346991226077,0.04620380327105522,-0.01126754842698574
1772795506555895600,4.4598955078125,-0.0028747431933879852,0.03463529795408249,-0.007942059077322483
1772795506565887500,4.469887451171875,-0.00011996948160231113,0.01502857357263565,-0.0015081288293004036
1772795506575879700,4.479879638671875,-0.0000705602578818798,-0.0009921928867697716,0.0014862263342365623
1772795506585871400,4.489871337890625,0.0004522183444350958,-0.018114987760782242,0.004179481416940689
1772795506595863600,4.499863525390625,-0.0015863528242334723,-0.03292221575975418,0.005279653239995241
1772795506605856800,4.509856689453125,0.0013196885120123625,-0.04274076223373413,0.005506820976734161
1772795506615848400,4.519848388671875,0.0013742516748607159,-0.046242982149124146,0.010161023586988449
1772795506625840600,4.529840576171875,0.005025978200137615,-0.04156860336661339,0.009606286883354187
1772795506635832600,4.53983251953125,0.003939859569072723,-0.03882693871855736,0.006415185518562794
1772795506645824800,4.54982470703125,0.00434252992272377,-0.02722993865609169,0.003853757632896304
1772795506655816400,4.55981640625,0.002198233734816313,-0.013335101306438446,-0.0004727125051431358
1772795506665809700,4.5698095703125,0.0006559970788657665,-0.0006872168742120266,-0.003963850438594818
1772795506675801600,4.579801513671875,-0.0010469397529959679,0.01598181203007698,-0.004783878102898598
1772795506685793500,4.58979345703125,-0.003684800583869219,0.030254224315285683,-0.009736824780702591
1772795506695785500,4.599785400390625,-0.006246837787330151,0.04301227256655693,-0.006195824593305588
1772795506705777700,4.609777587890625,-0.003938675858080387,0.04584374278783798,-0.0038905928377062082
1772795506715769600,4.61976953125,-0.005568530410528183,0.04752526432275772,-0.0030612843111157417
1772795506725762600,4.629762451171875,-0.0017482261173427105,0.03970222920179367,-0.004277016967535019
1772795506735754500,4.63975439453125,-0.0025006947107613087,0.02738778479397297,-0.0042219930328428745
1772795506745746700,4.64974658203125,0.003645082004368305,0.00963515229523182,-0.002548729069530964
1772795506755738600,4.659738525390625,0.005658257752656937,-0.01047280989587307,-0.0009153300197795033
1772795506765730600,4.66973046875,0.006294753402471542,-0.02455107867717743,0.0006415540119633079
1772795506775723500,4.6797236328125,0.0054379841312766075,-0.03832218796014786,0.005005736835300922
1772795506785715500,4.689715576171875,0.005165276117622852,-0.04802780970931053,0.008500070311129093
1772795506795707400,4.699707275390625,0.004704487510025501,-0.04968969151377678,0.007502040825784206
1772795506805699600,4.709699462890625,-0.00020931102335453033,-0.04451676830649376,0.0035363277420401573
1772795506815691500,4.71969140625,-0.0021381767001003027,-0.035711221396923065,0.0035079754889011383
1772795506825683700,4.72968359375,-0.003307570703327656,-0.02227211371064186,0.0014485529391095042
1772795506835676700,4.7396767578125,-0.0009293509647250175,-0.007661336567252874,0.001231382368132472
1772795506845668600,4.749668701171875,0.0024568582884967327,0.003977742977440357,0.0014755942393094301
1772795506855660800,4.759660888671875,0.0013022825587540865,0.011846231296658516,-0.002667649183422327
1772795506865652500,4.769652587890625,0.0019523599185049534,0.019703354686498642,-0.00495530478656292
1772795506875644400,4.77964453125,0.0010917356703430414,0.026897195726633072,-0.003529755398631096
1772795506885636600,4.78963671875,0.0031586147379130125,0.029180858284235,-0.000735300243832171
1772795506895629600,4.799629638671875,-0.002286122413352132,0.029955390840768814,-0.0022486113011837006
1772795506905621500,4.80962158203125,-0.0011004831176251173,0.028396110981702805,-0.0005572376539930701
1772795506915613700,4.81961376953125,-0.004672752693295479,0.022773467004299164,0.0004959412617608905
1772795506925605600,4.829605712890625,-0.004931611940264702,0.023188121616840363,-0.0025744170416146517
1772795506935597600,4.83959765625,-0.00294108921661973,0.013654363341629505,-0.0027244153898209333
1772795506945590500,4.849590576171875,-0.002421240322291851,0.004172977991402149,-0.006477874703705311
1772795506955582700,4.859582763671875,0.00013758963905274868,-0.0028165695257484913,-0.00642545148730278
1772795506965574400,4.869574462890625,0.0032079480588436127,-0.010965842753648758,-0.0019713144283741713
1772795506975566600,4.879566650390625,0.0014871673192828894,-0.012738402932882309,0.00005637638969346881
1772795506985558500,4.88955859375,0.0025841230526566505,-0.012192455120384693,0.0020130006596446037
1772795506995550700,4.89955078125,-0.0013431280385702848,-0.012683315202593803,0.004034912679344416
1772795507005542400,4.90954248046875,0.0003895245026797056,-0.010390866547822952,0.004183250479400158
1772795507015535600,4.91953564453125,-0.0010259930277243257,-0.009448417462408543,-0.00047470012214034796
1772795507025527600,4.929527587890625,-0.0017000390216708183,-0.013439696282148361,-0.002923476742580533
1772795507035519500,4.93951953125,-0.0011275217402726412,-0.01404749695211649,0.0010743177263066173
1772795507045511400,4.949511474609375,-0.0004593346966430545,-0.01661025732755661,0.0031467897351831198
1772795507055503600,4.959503662109375,0.003244918305426836,-0.01764482818543911,0.00334507180377841
1772795507065496300,4.969496337890625,0.005470255855470896,-0.015692729502916336,0.0035378846805542707
1772795507075488500,4.979488525390625,0.007395626045763493,-0.01557244174182415,0.005073565989732742
1772795507085480400,4.98948046875,0.012172005139291286,-0.008290559984743595,0.0019962836522608995
1772795507095472600,4.99947265625,0.008583176881074905,0.004052967298775911,-0.0017810625722631812
1772795507105464600,5.009464599609375,0.006905918475240469,0.011993180960416794,-0.009910095483064651
1772795507115456300,5.019456298828125,0.009996000677347183,0.02520926110446453,-0.007271558046340942
1772795507125449500,5.029449462890625,0.003707745112478733,0.037333033978939056,-0.006245708558708429
1772795507135441700,5.039441650390625,0.002147320192307234,0.044149983674287796,-0.0020168956834822893
1772795507145433300,5.049433349609375,0.00023676850832998753,0.04731115698814392,-0.0008605511975474656
1772795507155425500,5.059425537109375,0.00005716201849281788,0.037843771278858185,-0.0008855437627062201
1772795507165417500,5.06941748046875,-0.0016398041043430567,0.023713573813438416,-0.0052813570946455
1772795507175409400,5.079409423828125,-0.0005697011947631836,0.006807755213230848,-0.0064981551840901375
1772795507185402400,5.08940234375,-0.002352687530219555,-0.011925452388823032,-0.003679998219013214
1772795507195394600,5.09939453125,-0.0002905848668888211,-0.028393767774105072,0.0021585924550890923
1772795507205386500,5.109386474609375,-0.002045608125627041,-0.038825370371341705,0.007377322763204575
1772795507215378400,5.11937841796875,-0.0004339107545092702,-0.049040764570236206,0.008115735836327076
1772795507225370400,5.129370361328125,0.0013472114223986864,-0.05116410553455353,0.00910110492259264
1772795507235362600,5.139362548828125,0.0008852006867527962,-0.04372638463973999,0.002220377791672945
1772795507245355300,5.149355224609375,0.002063383348286152,-0.03415045514702797,0.00226511899381876
1772795507255347500,5.159347412109375,0.00021189171820878983,-0.017496179789304733,0.0004795926215592772
1772795507265339400,5.16933935546875,0.0014129774644970894,0.00027642538771033287,-0.0006828771438449621
1772795507275331600,5.17933154296875,0.0010357475839555264,0.019118834286928177,-0.0022489186376333237
1772795507285323300,5.1893232421875,0.0009393410291522741,0.02653627097606659,-0.002297654515132308
1772795507295316500,5.19931640625,0.000903216889128089,0.03333541005849838,-0.0034596931654959917
1772795507305308400,5.209308349609375,0.000058196019381284714,0.035388972610235214,-0.004589405842125416
1772795507315300400,5.21930029296875,0.0012109666131436825,0.031926631927490234,-0.0020213609095662832
1772795507325292300,5.229292236328125,-0.0011022549588233232,0.032362859696149826,-0.0015196215827018023
1772795507335284500,5.239284423828125,0.00016780663281679153,0.02252727374434471,-0.0016682259738445282
1772795507345276400,5.2492763671875,0.0012826058082282543,0.014899713918566704,-0.0031452151015400887
1772795507355269400,5.259269287109375,0.0014824545942246914,0.004256619606167078,-0.0015946815256029367
1772795507365261300,5.26926123046875,0.003555991919711232,-0.005062046926468611,-0.0020727189257740974
1772795507375253500,5.27925341796875,0.0032814035657793283,-0.013261138461530209,-0.0008293474093079567
1772795507385245400,5.289245361328125,0.0018630039412528276,-0.016355197876691818,0.0031819059513509274
1772795507395237400,5.2992373046875,0.005880758166313171,-0.02205570973455906,0.002271777018904686
1772795507405229300,5.309229248046875,0.006582501344382763,-0.02289966493844986,0.003955427557229996
1772795507415222500,5.319222412109375,0.0005408846773207188,-0.02259882725775242,0.0011531880591064692
1772795507425214500,5.32921435546875,0.001797364093363285,-0.018894637003540993,0.002137758769094944
1772795507435206400,5.339206298828125,0.0007954996544867754,-0.018255868926644325,0.0018766457214951515
1772795507445198600,5.349198486328125,0.00141042354516685,-0.012668023817241192,0.0024385727010667324
1772795507455190500,5.3591904296875,0.0009977591689676046,-0.007057819981127977,0.0004519576905295253
1772795507465182500,5.369182373046875,0.0014712691772729158,-0.0006079101003706455,0.000022389809601008892
1772795507475175400,5.379175537109375,-0.00017017940990626812,0.008542314171791077,-0.0017762891948223114
1772795507485167600,5.389167724609375,0.003699393942952156,0.01625589281320572,0.0008948613540269434
1772795507495159300,5.3991591796875,0.0036414482165127993,0.02147512324154377,-0.007344117853790522
1772795507505151500,5.4091513671875,0.0029508902225643396,0.025295158848166466,-0.0036138282157480717
1772795507515143400,5.419143310546875,0.0024081533774733543,0.029910173267126083,-0.0034997849725186825
1772795507525136400,5.429136474609375,0.0013263770379126072,0.027934905141592026,-0.0018781861290335655
1772795507535128300,5.43912841796875,0.00021680863574147224,0.022116880863904953,0.0005246208747848868
1772795507545120500,5.44912060546875,-0.0006335385842248797,0.012220041826367378,0.0004287470947019756
1772795507555112400,5.459112548828125,-0.0016616734210401773,0.0020049172453582287,0.001715361257083714
1772795507565104400,5.4691044921875,-0.003726422321051359,-0.010143091902136803,-0.000929157598875463
1772795507575096300,5.479096435546875,0.0022201191168278456,-0.020033173263072968,-0.0019408303778618574
1772795507585089500,5.489089599609375,0.000477346358820796,-0.0248660109937191,-0.0002920673578046262
1772795507595081200,5.499081298828125,0.004536957945674658,-0.023165548220276833,0.0004106986743863672
1772795507605073400,5.509073486328125,0.0008040049578994513,-0.019442981109023094,0.001384350354783237
1772795507615065300,5.5190654296875,0.00008098944090306759,-0.011142953298985958,0.0026320628821849823
1772795507625057500,5.5290576171875,-0.004513495601713657,-0.0011398536153137684,0.002952441107481718
1772795507635049200,5.53904931640625,-0.002450831700116396,0.0060689798556268215,0.0004703738377429545
1772795507645042400,5.54904248046875,-0.002983730286359787,0.006895092781633139,-0.0008353739976882935
1772795507655034600,5.55903466796875,-0.0009852637303993106,0.009018599055707455,-0.002805907977744937
1772795507665026300,5.5690263671875,0.003028120147064328,0.0017068907618522644,-0.0022743409499526024
1772795507675018500,5.5790185546875,0.005161861889064312,-0.002369468566030264,-0.00047177064698189497
1772795507685010400,5.589010498046875,0.008017303422093391,-0.005470986012369394,0.0032129790633916855
1772795507695002400,5.59900244140625,0.007860644720494747,-0.009571904316544533,0.0031501706689596176
1772795507704995300,5.608995361328125,0.008004188537597656,-0.010184697806835175,0.0020707915537059307
1772795507714987500,5.618987548828125,0.0069560641422867775,-0.0055749486200511456,0.0012512330431491137
1772795507724979500,5.6289794921875,0.0070106592029333115,0.0027724639512598515,-0.001124572940170765
1772795507734971600,5.6389716796875,0.002603990025818348,0.009917113929986954,-0.0038202647119760513
1772795507744963300,5.64896337890625,-0.00111431535333395,0.019314609467983246,-0.002531028352677822
1772795507754955500,5.65895556640625,-0.003783758729696274,0.02594466134905815,0.0002897505182772875
1772795507764948500,5.668948486328125,-0.005569141823798418,0.02930956333875656,-0.0016266603488475084
1772795507774940400,5.6789404296875,-0.005039690062403679,0.025564242154359818,-0.0015183906070888042
1772795507784932400,5.688932373046875,-0.00477364007383585,0.013565102592110634,-0.003772490192204714
1772795507794924500,5.698924560546875,-0.004563251044601202,-0.0008674892596900463,-0.003988290671259165
1772795507804916500,5.70891650390625,-0.00477816816419363,-0.015179850161075592,0.0018152701668441296
1772795507814909400,5.718909423828125,0.00024593272246420383,-0.02517465129494667,0.007764854002743959
1772795507824901400,5.7289013671875,-0.001877938280813396,-0.030112415552139282,0.007772310636937618
1772795507834893600,5.7388935546875,-0.0031034774146974087,-0.03256647661328316,0.010790552943944931
1772795507844885200,5.74888525390625,-0.00235166703350842,-0.030266569927334785,0.0025432761758565903
1772795507854877400,5.75887744140625,-0.0018684443784877658,-0.02351599931716919,-0.0004345672787167132
1772795507864869400,5.768869384765625,0.000647443812340498,-0.018496472388505936,-0.0014955706428736448
1772795507874862300,5.7788623046875,-0.0011568673653528094,-0.009465951472520828,-0.00019563932437449694
1772795507884854300,5.788854248046875,-0.00155101518612355,0.00025298865512013435,0.002170046791434288
1772795507894846500,5.798846435546875,-0.0011560028651729226,0.009557986631989479,-0.0005437579238787293
1772795507904838400,5.80883837890625,0.0022272770293056965,0.016110694035887718,0.0028515062294900417
1772795507914830300,5.818830322265625,0.000962667865678668,0.023145422339439392,-0.0014278250746428967
1772795507924822300,5.828822265625,0.002334462245926261,0.02541949599981308,-0.004155434668064117
1772795507934815500,5.8388154296875,0.0013548890128731728,0.029082074761390686,-0.005553204566240311
1772795507944807400,5.848807373046875,0.0030681004282087088,0.03176867216825485,-0.003934002481400967
1772795507954799400,5.85879931640625,0.0020104029681533575,0.029664618894457817,-0.006158049218356609
1772795507964791600,5.86879150390625,-0.000678058248013258,0.025245903059840202,-0.005336730275303125
1772795507974783500,5.878783447265625,0.0005000906530767679,0.01700526475906372,-0.0022890293039381504
1772795507984775400,5.888775390625,-0.0014815675094723701,0.003345379140228033,-0.0005281469784677029
1772795507994768400,5.898768310546875,-0.0011336153838783503,-0.007054934743791819,0.00036585505586117506
1772795508004760600,5.908760498046875,-0.0019970121793448925,-0.02288050390779972,0.004855145700275898
1772795508014752500,5.91875244140625,-0.000330641632899642,-0.03417453542351723,0.0062186224386096
1772795508024744400,5.928744384765625,-0.001416945131495595,-0.04496699571609497,0.005022597033530474
1772795508034736400,5.938736328125,-0.0004126195563003421,-0.04878006875514984,0.00431614276021719
1772795508044728600,5.948728515625,0.0011357422918081284,-0.046210646629333496,0.004734791815280914
1772795508054721300,5.95872119140625,0.0008536353707313538,-0.0414736270904541,0.0036183735355734825
1772795508064713500,5.96871337890625,0.003179107792675495,-0.028155159205198288,0.003426892217248678
1772795508074705400,5.978705322265625,-0.00034214078914374113,-0.01167859137058258,-0.001557090668939054
1772795508084697600,5.988697509765625,-0.0002622460015118122,0.0027546766214072704,0.00034307476016692817
1772795508094689300,5.998689208984375,0.001100008375942707,0.019698549062013626,0.00029681759770028293
1772795508104682500,6.0086826171875,-0.00016632466576993465,0.03157971054315567,-0.00020545459119603038
1772795508114674000,6.018673828125,-0.0005987435579299927,0.040014151483774185,-0.003395634703338146
1772795508124665900,6.028665771484375,0.0018955732230097055,0.041571035981178284,-0.0031498249154537916
1772795508134657800,6.03865771484375,0.000405831728130579,0.0353362075984478,-0.0040503013879060745
1772795508144649700,6.048649658203125,0.002590156625956297,0.02540261670947075,-0.0040375180542469025
1772795508154642000,6.058641845703125,0.0033076596446335316,0.010094814002513885,-0.0028560578357428312
1772795508164634600,6.068634521484375,0.0030280277132987976,-0.004085720982402563,0.001884102588519454
1772795508174626800,6.078626708984375,0.00023007625713944435,-0.015897389501333237,0.0026976794470101595
1772795508184618800,6.08861865234375,0.003134519560262561,-0.023475414142012596,0.0033365716226398945
1772795508194611000,6.09861083984375,0.004039841238409281,-0.027722662314772606,0.00003775360528379679
1772795508204602600,6.1086025390625,0.006327496375888586,-0.03164709731936455,-0.002352699637413025
1772795508214594800,6.1185947265625,0.005967921577394009,-0.024095479398965836,-0.0016955137252807617
1772795508224588000,6.128588134765625,0.005784962326288223,-0.012550678104162216,-0.0008744611404836178
1772795508234579700,6.138579833984375,0.00010641408152878284,0.0007620430551469326,-0.0005288237589411438
1772795508244572000,6.148572021484375,-0.0014840257354080677,0.012091396376490593,0.0008240620954893529
1772795508254563800,6.158563720703125,-0.005223134532570839,0.02152707427740097,-0.0040081823244690895
1772795508264555800,6.1685556640625,-0.005339781288057566,0.022294599562883377,-0.0035442598164081573
1772795508274547700,6.178547607421875,-0.005613632500171661,0.01974560134112835,-0.004639819264411926
1772795508284541000,6.188541015625,-0.005896193906664848,0.007011697627604008,-0.0012533435365185142
1772795508294532900,6.198532958984375,-0.0013757923152297735,-0.004427014384418726,-0.0004990370944142342
1772795508304524800,6.20852490234375,0.004043474327772856,-0.018258407711982727,0.0018168477108702064
1772795508314516700,6.218516845703125,0.00654617277905345,-0.02654830738902092,0.004002606496214867
1772795508324509000,6.228509033203125,0.008915320038795471,-0.02678000181913376,0.005278260447084904
1772795508334501600,6.238501708984375,0.005072128959000111,-0.025365985929965973,0.003833373310044408
1772795508344493800,6.248493896484375,0.005232717841863632,-0.01583959348499775,0.00045355557813309133
1772795508354485800,6.25848583984375,0.0017222799360752106,0.0007540415972471237,-0.003027831669896841
1772795508364478000,6.26847802734375,-0.0003773564239963889,0.019132783636450768,-0.0036771101877093315
1772795508374469600,6.2784697265625,-0.002358795842155814,0.037525858730077744,-0.0038622822612524033
1772795508384461800,6.2884619140625,-0.0077021620236337185,0.05232131853699684,-0.0036598816514015198
1772795508394454800,6.298454833984375,-0.008464263752102852,0.060137782245874405,-0.007323693949729204
1772795508404446700,6.30844677734375,-0.004054069519042969,0.057553987950086594,-0.007242201361805201
1772795508414438700,6.318438720703125,-0.002724683377891779,0.04841169714927673,-0.011738642118871212
1772795508424430800,6.328430908203125,0.0007265070453286171,0.02931097522377968,-0.0049907248467206955
1772795508434422800,6.3384228515625,0.004339368082582951,0.010030897334218025,-0.003625711426138878
1772795508444415000,6.3484150390625,0.0027473303489387035,-0.009958257898688316,0.0011634512338787317
1772795508454407700,6.35840771484375,-0.0005903785349801183,-0.02671363577246666,0.005017250310629606
1772795508464400000,6.36839990234375,-0.003957413136959076,-0.02845347672700882,0.010801902040839195
1772795508474391800,6.378391845703125,-0.003216835670173168,0.004906033631414175,0.03151029348373413
1772795508484383700,6.3883837890625,-0.0076592545956373215,0.07391998916864395,0.051932744681835175
1772795508494375700,6.398375732421875,-0.010174280032515526,0.1366645246744156,0.052968140691518784
1772795508504367900,6.408367919921875,-0.00802883692085743,0.18485362827777863,0.03163169324398041
1772795508514360800,6.41836083984375,-0.008676879107952118,0.19762685894966125,-0.003340835217386484
1772795508524352800,6.428352783203125,-0.01034055557101965,0.180460125207901,-0.036017291247844696
1772795508534345000,6.438344970703125,-0.009605069644749165,0.13899341225624084,-0.042435526847839355
1772795508544337000,6.4483369140625,-0.0039109643548727036,0.07477927953004837,-0.03379596397280693
1772795508554328800,6.458328857421875,-0.0013259125407785177,-0.00818532332777977,-0.02379155531525612
1772795508564321800,6.46832177734375,0.009133385494351387,-0.09792426228523254,-0.015195404179394245
1772795508574314000,6.47831396484375,0.012913195416331291,-0.17978718876838684,-0.008837700821459293
1772795508584305700,6.4883056640625,0.02025206759572029,-0.25670701265335083,-0.01155172847211361
1772795508594297900,6.4982978515625,0.019772304221987724,-0.30534255504608154,-0.005723316688090563
1772795508604289800,6.508289794921875,0.012009188532829285,-0.3164154589176178,-0.0014081966364756227
1772795508614282000,6.518281982421875,0.0011598672717809677,-0.2777257263660431,0.020591294392943382
1772795508624274700,6.528274658203125,-0.004181102383881807,-0.20464301109313965,0.029215941205620766
