time,seconds_elapsed,z,y,x
1772721285213727200,0.096727294921875,0,0,0
1772721285232324900,0.115324951171875,0.19158172607421875,-0.007721737027168274,0.0325218141078949
1772721285250922500,0.133922607421875,0.31174373626708984,0.03798338770866394,-0.009455795399844646
1772721285269520100,0.15252001953125,0.29610157012939453,0.06005159020423889,-0.10087454319000244
1772721285288117800,0.17111767578125,0.13722991943359375,0.06067502498626709,-0.0635385662317276
1772721285306715600,0.189715576171875,-0.11969375610351562,-0.00934651494026184,-0.07906220108270645
1772721285325313300,0.208313232421875,-0.2463054656982422,0.06661078333854675,-0.175954207777977
1772721285343911000,0.226910888671875,-0.3079986572265625,0.14633461833000183,-0.2662309408187866
1772721285362508500,0.245508544921875,0.09004783630371094,0.08042281866073608,-0.19397611916065216
1772721285381106200,0.264106201171875,-0.16526126861572266,-0.028985917568206787,-0.05159971863031387
1772721285399703800,0.282703857421875,-0.11447811126708984,-0.04589155316352844,-0.11304876208305359
1772721285418301700,0.3013017578125,-0.23066234588623047,-0.07964774966239929,-0.032678134739398956
1772721285436899000,0.319899169921875,-0.18442153930664062,-0.16473808884620667,-0.2564016580581665
1772721285455497000,0.3384970703125,-0.16942787170410156,0.05377542972564697,-0.2082008272409439
1772721285474094600,0.357094482421875,-0.13008594512939453,0.12511563301086426,0.040249258279800415
1772721285492692200,0.375692138671875,-0.19096755981445312,0.14403468370437622,0.41071271896362305
1772721285511289900,0.394289794921875,-0.22638320922851562,0.08069086074829102,0.46057575941085815
1772721285529887500,0.412887451171875,-0.11391353607177734,-0.08240431547164917,0.12608149647712708
1772721285548485000,0.431485107421875,-0.12336158752441406,-0.22456234693527222,0.330172061920166
1772721285567082800,0.450082763671875,-0.41577625274658203,-0.15274494886398315,0.4433402717113495
1772721285585680400,0.468680419921875,-0.7989435195922852,0.11631137132644653,0.4590943455696106
1772721285604278000,0.487278076171875,-0.6510305404663086,0.212185800075531,0.6310564279556274
1772721285622875600,0.505875732421875,-0.37659168243408203,0.07315242290496826,0.27112844586372375
1772721285641473300,0.524473388671875,-0.45719146728515625,-0.051233112812042236,-0.35711169242858887
1772721285660071000,0.54307080078125,-0.5381050109863281,-0.4999123215675354,0.301835834980011
1772721285678668800,0.561668701171875,-0.0633840560913086,0.04498416185379028,-0.7462653517723083
1772721285697266200,0.58026611328125,0.13189411163330078,-0.4570791721343994,-0.21373213827610016
1772721285715863800,0.59886376953125,0.25419044494628906,-0.20060813426971436,-0.22112888097763062
1772721285734461700,0.617461669921875,0.022813796997070312,-0.15492284297943115,-0.15419700741767883
1772721285753059000,0.63605908203125,-0.014360427856445312,-0.180657297372818,-0.2698701024055481
1772721285771656700,0.65465673828125,0.15140056610107422,-0.1262931227684021,-0.261179655790329
1772721285790254300,0.67325439453125,0.3159952163696289,-0.27616381645202637,-0.13015085458755493
1772721285808852200,0.691852294921875,0.3366212844848633,-0.27956148982048035,-0.3683406710624695
1772721285827449600,0.71044970703125,0.1183013916015625,0.0766042172908783,-0.11322493106126785
1772721285846047200,0.729047119140625,-0.11675262451171875,0.12473365664482117,-0.18471302092075348
1772721285864644900,0.747644775390625,0.024320602416992188,0.1379653811454773,-0.18253237009048462
1772721285883242500,0.766242431640625,-0.0863180160522461,0.03543242812156677,-0.09157346934080124
1772721285901840100,0.784840087890625,-0.3267955780029297,0.06993022561073303,-0.2495131492614746
1772721285920437800,0.803437744140625,-0.39383888244628906,0.12837865948677063,-0.30329662561416626
1772721285939035400,0.822035400390625,-0.06530284881591797,0.07181264460086823,-0.06460259109735489
1772721285957633000,0.840633056640625,0.3153676986694336,0.03964737057685852,0.29805517196655273
1772721285976230700,0.859230712890625,0.40967750549316406,0.014175936579704285,0.4183458089828491
1772721285994828300,0.877828369140625,0.47379207611083984,0.09470783174037933,0.4130181670188904
1772721286013426000,0.896426025390625,0.39739131927490234,0.04567340016365051,0.17149727046489716
1772721286032023600,0.9150234375,0.2518177032470703,-0.15797650814056396,0.08404521644115448
1772721286050621200,0.93362109375,-0.04246711730957031,-0.21106788516044617,-0.15389958024024963
1772721286069218600,0.952218505859375,-0.2137889862060547,-0.1487473100423813,-0.042404159903526306
1772721286087816200,0.970816162109375,-0.4839601516723633,-0.15064039826393127,0.02462862804532051
1772721286106413800,0.989413818359375,-0.5382728576660156,-0.021586433053016663,0.2303459793329239
1772721286125011500,1.008011474609375,-0.1001138687133789,-0.1409977674484253,0.5089735984802246
1772721286143609000,1.026609130859375,0.4309396743774414,-0.19081833958625793,0.5078498125076294
1772721286162206700,1.045206787109375,0.5254907608032227,-0.13581204414367676,0.36582034826278687
1772721286180804000,1.06380419921875,0.34364891052246094,0.04558899998664856,0.22929051518440247
1772721286199401700,1.082401611328125,0.15311813354492188,-0.07788962870836258,0.08015142381191254
1772721286217999400,1.100999267578125,-0.13845157623291016,-0.2677432596683502,-0.19302289187908173
1772721286236597000,1.119596923828125,-0.36605072021484375,-0.2491721212863922,-0.39624103903770447
1772721286255194600,1.138194580078125,-0.5798864364624023,-0.3504638075828552,-0.6181909441947937
1772721286273792000,1.1567919921875,-0.49504661560058594,-0.3902682065963745,-0.6480704545974731
1772721286292389600,1.1753896484375,-0.27788543701171875,-0.34705084562301636,-0.6071341633796692
1772721286310987300,1.1939873046875,-0.09102821350097656,-0.25538918375968933,-0.579689621925354
1772721286329585000,1.2125849609375,-0.0793619155883789,-0.13056369125843048,-0.2390505075454712
1772721286348182500,1.2311826171875,-0.05315208435058594,0.048771411180496216,-0.04164449870586395
1772721286366780000,1.24977978515625,0.008592605590820312,0.22699326276779175,0.10597577691078186
1772721286385377500,1.26837744140625,0.21920204162597656,0.32341790199279785,0.20583786070346832
1772721286403975200,1.28697509765625,0.3584775924682617,0.443338543176651,0.3864423632621765
1772721286422572800,1.30557275390625,0.3345041275024414,0.4852336645126343,0.49276113510131836
1772721286441170400,1.32417041015625,-0.008515357971191406,0.37951377034187317,0.21785865724086761
1772721286459767800,1.342767822265625,-0.012722969055175781,-0.019465714693069458,-0.24197664856910706
1772721286478365400,1.361365478515625,0.14249610900878906,-0.2504006624221802,-0.3578866720199585
1772721286496963000,1.379963134765625,0.1511859893798828,-0.08785125613212585,-0.32409951090812683
1772721286515560400,1.398560546875,0.09278678894042969,0.003513127565383911,-0.2222977876663208
1772721286534158000,1.417157958984375,0.17521953582763672,-0.055954575538635254,-0.071549192070961
1772721286552755700,1.435755615234375,0.19224262237548828,-0.06649751961231232,0.03889495134353638
1772721286571353300,1.454353271484375,-0.03484916687011719,0.003825634717941284,0.116773322224617
1772721286589950700,1.47295068359375,-0.3485431671142578,0.0774417519569397,0.11126084625720978
1772721286608548400,1.49154833984375,-0.3722858428955078,0.02771088480949402,0.09716390073299408
1772721286627146000,1.51014599609375,-0.18789196014404297,-0.06226210296154022,0.1279962658882141
1772721286645743400,1.528743408203125,-0.12996864318847656,-0.015085086226463318,-0.01668790727853775
1772721286664341000,1.547341064453125,-0.08855342864990234,0.034709274768829346,-0.04176950082182884
1772721286682938600,1.565938720703125,0.08015918731689453,-0.1151048019528389,0.015259407460689545
1772721286701536000,1.584535888671875,0.2410888671875,-0.0720720887184143,0.036756642162799835
1772721286720133600,1.603133544921875,0.07392597198486328,-0.006766870617866516,-0.013479826971888542
1772721286738731300,1.621731201171875,-0.0928802490234375,0.006646960973739624,-0.07251805067062378
1772721286757328600,1.64032861328125,-0.1665639877319336,0.1113760769367218,-0.05218934267759323
1772721286775926300,1.65892626953125,-0.10254573822021484,0.08709295094013214,0.003919824957847595
1772721286794524000,1.67752392578125,-0.039981842041015625,0.06359535455703735,-0.005000077188014984
1772721286813121300,1.696121337890625,0.0022716522216796875,0.06798931956291199,-0.08893527090549469
1772721286831718700,1.71471875,0.2887563705444336,0.04388219118118286,-0.04240521043539047
1772721286850316300,1.73331640625,0.7380552291870117,-0.06572569906711578,-0.031029418110847473
1772721286868914000,1.751913818359375,0.5226936340332031,-0.04822985827922821,0.0201198011636734
1772721286887511300,1.77051123046875,0.08838748931884766,-0.013079002499580383,-0.22646427154541016
1772721286906109000,1.78910888671875,-0.1409444808959961,0.01233789324760437,-0.2507411539554596
1772721286924706600,1.80770654296875,0.0011053085327148438,-0.10018102824687958,0.02360290288925171
1772721286943304000,1.826303955078125,0.11151123046875,-0.21521984040737152,0.16796793043613434
1772721286961901600,1.844901611328125,-0.00035953521728515625,-0.0339726060628891,-0.15499117970466614
1772721286980499000,1.8634990234375,-0.16325664520263672,0.048529356718063354,-0.16462264955043793
1772721286999096600,1.8820966796875,-0.49629974365234375,0.1749039590358734,0.09000000357627869
1772721287017694000,1.90069384765625,-0.45708751678466797,0.2924852967262268,0.41306421160697937
1772721287036291600,1.91929150390625,-0.24106884002685547,0.19824263453483582,0.47435688972473145
1772721287054889200,1.93788916015625,0.24387264251708984,-0.08116444945335388,0.06871741265058517
1772721287073486600,1.956486572265625,0.39156055450439453,-0.19533227384090424,0.09831690788269043
1772721287092084000,1.975083984375,0.30406665802001953,-0.15370899438858032,0.024099200963974
1772721287110681600,1.993681640625,0.14541149139404297,0.04895010590553284,-0.0923248827457428
1772721287129279000,2.012279052734375,0.18210887908935547,-0.016859114170074463,0.08209338784217834
1772721287147876600,2.030876708984375,0.17980575561523438,-0.044373542070388794,0.07154903560876846
1772721287166474000,2.049473876953125,-0.06090831756591797,-0.05956375598907471,-0.013713568449020386
1772721287185071600,2.068071533203125,-0.26790714263916016,-0.07422620058059692,0.1309208869934082
1772721287203669000,2.0866689453125,-0.31162548065185547,-0.0818747878074646,0.2575339078903198
1772721287222266600,2.1052666015625,-0.4887990951538086,-0.020814836025238037,0.10431695729494095
1772721287240864000,2.123864013671875,-0.5997610092163086,0.005979716777801514,0.015550658106803894
1772721287259461600,2.142461669921875,-0.4527759552001953,-0.23425710201263428,0.051370769739151
1772721287278059000,2.16105908203125,-0.09412002563476562,-0.20088547468185425,-0.021261325106024742
1772721287296656400,2.179656494140625,0.20757484436035156,-0.034979820251464844,-0.10182661563158035
1772721287315254000,2.19825390625,0.4388093948364258,0.1973477005958557,-0.06809277087450027
1772721287333851400,2.216851318359375,0.6303224563598633,0.2193683385848999,0.17670711874961853
1772721287352449000,2.235448974609375,0.41916847229003906,0.2898727059364319,0.3558453321456909
1772721287371046400,2.25404638671875,0.2817058563232422,0.3698101043701172,0.47334885597229004
1772721287389644000,2.27264404296875,0.5342807769775391,0.22272315621376038,0.7545781135559082
1772721287408241400,2.291241455078125,1.1656770706176758,0.003417104482650757,0.6333975195884705
1772721287426838800,2.3098388671875,1.191828727722168,-0.04167965054512024,0.46124663949012756
1772721287445436400,2.3284365234375,0.8952608108520508,-0.33124610781669617,0.29949188232421875
1772721287464033800,2.34703369140625,-0.044699668884277344,-1.173607587814331,0.6631659865379333
1772721287482631200,2.365631103515625,-1.0213193893432617,-0.250327467918396,-0.705274760723114
1772721287501228800,2.384228759765625,-1.7488460540771484,0.17548799514770508,-1.5784833431243896
1772721287519826200,2.402826171875,-1.4958314895629883,0.6118881106376648,-1.3413268327713013
1772721287538423800,2.421423828125,-1.2771310806274414,0.22762441635131836,-0.4687390625476837
1772721287557021200,2.440021240234375,-1.0692110061645508,-0.23836681246757507,0.12490467727184296
1772721287575618600,2.45861865234375,-0.6651535034179688,-0.44426923990249634,-0.4459684491157532
1772721287594216200,2.47721630859375,-0.05664348602294922,-0.661047101020813,-0.9062844514846802
1772721287612813600,2.4958134765625,-0.06677436828613281,-0.6318090558052063,-0.9583829045295715
1772721287631411000,2.514410888671875,-0.145965576171875,-0.5731316208839417,-0.44817107915878296
1772721287650008600,2.533008544921875,0.14950084686279297,-0.6038300395011902,-0.1053512841463089
1772721287668606000,2.55160595703125,0.14211082458496094,-0.46371445059776306,0.24880269169807434
1772721287687203600,2.57020361328125,0.1719799041748047,-0.3297673463821411,0.6694525480270386
1772721287705801000,2.588801025390625,0.21077346801757812,-0.03768426179885864,0.8580530285835266
1772721287724398300,2.6073984375,-0.2510957717895508,0.10085991024971008,0.9841490387916565
1772721287742995700,2.62599560546875,0.06202125549316406,-0.24964287877082825,1.7751057147979736
1772721287761593300,2.64459326171875,0.45485401153564453,0.09511399269104004,0.7396667003631592
1772721287780190700,2.663190673828125,-0.12373065948486328,-0.009932279586791992,-0.02771008014678955
1772721287798788000,2.6817880859375,-1.1043319702148438,-0.2162494659423828,-0.2940186858177185
1772721287817385500,2.700385498046875,-1.9002947807312012,-0.9273500442504883,-0.05109614133834839
1772721287835983000,2.718983154296875,-1.1053047180175781,-0.5373173356056213,0.11417984962463379
1772721287854580500,2.73758056640625,0.7284631729125977,0.5309985876083374,-0.6226783990859985
1772721287873177900,2.756177734375,1.351515769958496,0.9338051080703735,-1.9289294481277466
1772721287891775200,2.774775146484375,0.6803407669067383,0.5872787237167358,-2.0328781604766846
1772721287910372900,2.793372802734375,0.4005613327026367,0.03115767240524292,-0.37826186418533325
1772721287928970200,2.81197021484375,0.2938375473022461,0.10440200567245483,0.7189396023750305
1772721287947567600,2.830567626953125,-0.6357440948486328,-0.019567787647247314,0.4335016906261444
1772721287966165200,2.849165283203125,-1.2748908996582031,0.3110044598579407,-0.5656896829605103
1772721287984762600,2.8677626953125,-0.9215679168701172,0.3419817090034485,-0.663524866104126
1772721288003360000,2.886360107421875,0.0724325180053711,0.11848270893096924,-0.2780763506889343
1772721288021957400,2.904957275390625,0.6185617446899414,-0.023724019527435303,-0.38050606846809387
1772721288040554800,2.9235546875,0.6724720001220703,-0.1659061312675476,-0.5354504585266113
1772721288059152100,2.942152099609375,0.5433101654052734,-0.3587207496166229,-0.6279851198196411
1772721288077749500,2.96074951171875,0.23584461212158203,-0.264279842376709,-0.7567588090896606
1772721288096347100,2.97934716796875,0.09659671783447266,-0.07361936569213867,-0.5267400741577148
1772721288114944500,2.997944580078125,-0.037606239318847656,-0.005719304084777832,-0.09274353832006454
1772721288133542000,3.0165419921875,-0.24903583526611328,0.04356628656387329,0.05005410313606262
1772721288152139300,3.03513916015625,-0.21564579010009766,0.18135851621627808,-0.12505733966827393
1772721288170737000,3.05373681640625,-0.300048828125,0.25025153160095215,-0.5322917103767395
1772721288189334300,3.072334228515625,-0.25887298583984375,0.06942743062973022,-0.4377395510673523
1772721288207931600,3.090931640625,-0.20097827911376953,-0.006584525108337402,0.18751704692840576
1772721288226529000,3.109529052734375,-0.3452434539794922,0.0276910662651062,0.695561945438385
1772721288245126400,3.12812646484375,-0.6270503997802734,-0.06050527095794678,0.48552054166793823
1772721288263723800,3.146723876953125,-1.0022096633911133,-0.06624138355255127,-0.20123344659805298
1772721288282321200,3.165321044921875,-1.022134780883789,-0.019517183303833008,-0.127041757106781
1772721288300918800,3.183918701171875,-0.10834693908691406,-0.2699325680732727,0.34844887256622314
1772721288319516200,3.20251611328125,0.7061347961425781,-0.4075380563735962,0.4869162440299988
1772721288338113500,3.221113525390625,1.0984134674072266,-0.1883840411901474,0.30161309242248535
1772721288356711000,3.2397109375,1.0419292449951172,0.20163318514823914,0.29125547409057617
1772721288375308300,3.258308349609375,0.6822414398193359,0.3983290195465088,0.041628897190093994
1772721288393905700,3.27690576171875,0.21179866790771484,0.1529695689678192,-0.17745858430862427
1772721288412503000,3.2955029296875,-0.4090118408203125,-0.01127767562866211,-0.19964545965194702
1772721288431100700,3.3141005859375,-0.8559484481811523,0.11373825371265411,-0.4319084882736206
1772721288449698000,3.332697998046875,-0.8410282135009766,0.07812807708978653,-0.2511446475982666
1772721288468295400,3.35129541015625,-0.12652587890625,0.029633011668920517,0.015244126319885254
1772721288486892800,3.369892822265625,0.4278726577758789,-0.08159196376800537,-0.08941662311553955
1772721288505490200,3.388490234375,0.3766651153564453,-0.08913175761699677,-0.31912803649902344
1772721288524087600,3.407087646484375,0.5283994674682617,0.18424195051193237,-0.09653294086456299
1772721288542685000,3.425684814453125,0.6383256912231445,0.5088922381401062,-0.23989605903625488
1772721288561282300,3.4442822265625,0.2440052032470703,0.32281649112701416,-0.33202892541885376
1772721288579879700,3.462879638671875,-0.2200937271118164,0.15614072978496552,-0.4157766103744507
1772721288598477000,3.48147705078125,-0.2860441207885742,0.16059046983718872,-0.4015094041824341
1772721288617074400,3.500074462890625,-0.0784454345703125,0.17642448842525482,-0.43203186988830566
1772721288635671800,3.518671875,-0.09088516235351562,0.12865038216114044,-0.5110416412353516
1772721288654269200,3.537269287109375,-0.003139495849609375,0.07080197334289551,-0.34325575828552246
1772721288672866600,3.555866455078125,-0.11975574493408203,-0.0769447386264801,-0.49758589267730713
1772721288691464000,3.5744638671875,-0.3044929504394531,-0.27928853034973145,-0.3638877868652344
1772721288710061300,3.593061279296875,-0.3715963363647461,-0.06822638213634491,0.2257223129272461
1772721288728658700,3.61165869140625,-0.005179405212402344,-0.1842321753501892,0.7619706392288208
1772721288747256000,3.630256103515625,0.3675346374511719,-0.3652815520763397,0.8835995197296143
1772721288765853400,3.648853515625,0.4390077590942383,-0.09649461507797241,0.4909015893936157
1772721288784450800,3.667450927734375,0.2981729507446289,-0.04821857810020447,0.23632657527923584
1772721288803048200,3.686048095703125,-0.0015888214111328125,-0.06905889511108398,0.035291314125061035
1772721288821645600,3.7046455078125,-0.3304452896118164,-0.06018036603927612,-0.20856153964996338
1772721288840243000,3.723242919921875,-0.5700082778930664,-0.04107975959777832,-0.1991887092590332
1772721288858840300,3.74184033203125,-0.6501121520996094,0.08194178342819214,-0.13904190063476562
1772721288877437700,3.760437744140625,-0.3741950988769531,0.1331743597984314,-0.13974201679229736
1772721288896035000,3.77903515625,0.06129646301269531,0.08467137813568115,0.00005412101745605469
1772721288914632400,3.797632568359375,0.20737266540527344,-0.0601826012134552,0.026537179946899414
1772721288933229800,3.816229736328125,-0.019011497497558594,-0.15148210525512695,-0.02233409881591797
1772721288951827200,3.8348271484375,-0.2714862823486328,-0.03761857748031616,-0.08777153491973877
1772721288970424600,3.853424560546875,-0.3498563766479492,0.2057194709777832,-0.04950082302093506
1772721288989021700,3.872021728515625,-0.21511459350585938,0.15750080347061157,-0.03594791889190674
1772721289007619000,3.890619140625,0.19670867919921875,0.04653725028038025,-0.14947223663330078
1772721289026216700,3.909216796875,0.45638465881347656,-0.06844872236251831,-0.0758134126663208
1772721289044813800,3.927813720703125,0.591670036315918,-0.060921430587768555,0.06361794471740723
1772721289063411200,3.9464111328125,0.25079345703125,-0.06811457872390747,0.11228930950164795
1772721289082008600,3.965008544921875,-0.13463211059570312,-0.07066550850868225,0.004472136497497559
1772721289100606000,3.98360595703125,-0.3889017105102539,-0.0953626036643982,0.017765045166015625
1772721289119203300,4.002203369140625,-0.22887134552001953,-0.05190384387969971,0.1869882345199585
1772721289137800700,4.02080078125,-0.05203723907470703,-0.00900489091873169,-0.1288304328918457
1772721289156398000,4.039398193359375,0.02819347381591797,-0.12654399871826172,-0.09996151924133301
1772721289174995500,4.057995361328125,0.09060001373291016,0.017214715480804443,-0.2795376181602478
1772721289193592600,4.076592529296875,0.015677452087402344,-0.07605195045471191,-0.07360804080963135
1772721289212190000,4.09518994140625,0.0016450881958007812,-0.01975482702255249,0.01721358299255371
1772721289230787300,4.113787353515625,-0.0201263427734375,-0.0238131582736969,-0.0507124662399292
1772721289249384700,4.132384765625,0.2239542007446289,-0.05189487338066101,-0.0234222412109375
1772721289267982000,4.150982177734375,0.3469877243041992,-0.010706484317779541,-0.1926940679550171
1772721289286579500,4.169579345703125,0.19933128356933594,0.017560720443725586,-0.11259114742279053
1772721289305176600,4.188176513671875,-0.21205711364746094,-0.027159571647644043,0.0436098575592041
1772721289323774000,4.20677392578125,-0.3846597671508789,0.02564823627471924,-0.0026732683181762695
1772721289342371300,4.225371337890625,-0.09353351593017578,-0.02706247568130493,-0.02188897132873535
1772721289360968700,4.24396875,0.3097238540649414,0.0025266408920288086,-0.1557149887084961
1772721289379566000,4.262566162109375,0.4000740051269531,-0.08757439255714417,-0.0043975114822387695
1772721289398163500,4.28116357421875,0.007632255554199219,-0.005328655242919922,-0.10460090637207031
1772721289416760600,4.299760498046875,-0.2958698272705078,-0.10690516233444214,-0.2256927490234375
1772721289435358000,4.31835791015625,-0.18503379821777344,-0.07045859098434448,0.06362795829772949
1772721289453955300,4.336955322265625,0.23190593719482422,-0.11398273706436157,0.13857746124267578
1772721289472552700,4.355552734375,0.19583892822265625,-0.14024078845977783,0.04356205463409424
1772721289491149800,4.37414990234375,-0.12330913543701172,0.04911935329437256,-0.011710166931152344
1772721289509747200,4.392747314453125,-0.3614206314086914,0.04183247685432434,-0.16176676750183105
1772721289528344600,4.411344482421875,-0.27060604095458984,-0.05643123388290405,-0.16067326068878174
1772721289546942000,4.42994189453125,-0.1140594482421875,-0.06911656260490417,-0.17766201496124268
1772721289565539000,4.4485390625,0.25150012969970703,0.03054448962211609,-0.14678215980529785
1772721289584136400,4.467136474609375,0.2865791320800781,-0.22049716114997864,-0.026665925979614258
1772721289602733800,4.48573388671875,0.1346874237060547,-0.07694697380065918,0.2521791458129883
1772721289621331000,4.5043310546875,-0.11435127258300781,-0.06762203574180603,0.1232532262802124
1772721289639928600,4.522928466796875,-0.3094310760498047,-0.05209946632385254,0.0558323860168457
1772721289658525700,4.541525634765625,0.01013946533203125,-0.03819477558135986,0.055211782455444336
1772721289677123000,4.560123046875,0.4079933166503906,-0.17971286177635193,-0.06897425651550293
1772721289695720400,4.578720458984375,0.2607288360595703,0.10475200414657593,-0.08181405067443848
1772721289714317600,4.597317626953125,-0.046799659729003906,0.094885915517807,-0.129797101020813
1772721289732915000,4.6159150390625,-0.13064861297607422,0.09011557698249817,-0.20391637086868286
1772721289751512300,4.63451220703125,0.010059356689453125,0.017366379499435425,-0.12159228324890137
1772721289770109400,4.653109375,0.07323551177978516,-0.00002446770668029785,-0.0929800271987915
1772721289788706800,4.671706787109375,0.2083272933959961,0.05118170380592346,-0.013393282890319824
1772721289807304200,4.69030419921875,0.28968238830566406,-0.04320839047431946,0.02123427391052246
1772721289825901300,4.7089013671875,0.0768594741821289,-0.004789024591445923,0.010707616806030273
1772721289844498700,4.727498779296875,-0.09669017791748047,-0.1683666706085205,-0.16025948524475098
1772721289863096000,4.746095947265625,-0.3501462936401367,0.19994992017745972,0.11863446235656738
1772721289881693200,4.764693115234375,-0.2025279998779297,-0.04254114627838135,0.1954493522644043
1772721289900290600,4.78329052734375,0.12949371337890625,-0.15327554941177368,0.05529451370239258
1772721289918888000,4.801887939453125,-0.12846088409423828,-0.026814818382263184,-0.04949510097503662
1772721289937485000,4.820485107421875,-0.3161811828613281,0.03022250533103943,-0.17216384410858154
1772721289956082400,4.83908251953125,-0.15613651275634766,0.23672065138816833,-0.05212998390197754
1772721289974679800,4.8576796875,0.12410640716552734,0.024413883686065674,-0.09892654418945312
1772721289993277000,4.87627685546875,0.28089237213134766,-0.05313196778297424,-0.1936119794845581
1772721290011874300,4.894874267578125,0.28577232360839844,-0.052756696939468384,-0.151780366897583
1772721290030471400,4.913471435546875,0.11716461181640625,-0.05788794159889221,-0.05109405517578125
1772721290049068800,4.93206884765625,-0.1020059585571289,0.0018240809440612793,0.036940574645996094
1772721290067666200,4.950666259765625,-0.13128948211669922,-0.015274196863174438,0.08520293235778809
1772721290086263300,4.96926318359375,-0.009272575378417969,-0.06901970505714417,0.12176287174224854
1772721290104860700,4.987860595703125,-0.02795124053955078,-0.011093854904174805,0.07730245590209961
1772721290123457800,5.006457763671875,-0.1518239974975586,-0.048560261726379395,-0.049900174140930176
1772721290142055200,5.02505517578125,0.0714263916015625,-0.07032173871994019,-0.025820612907409668
1772721290160652300,5.04365234375,0.23314285278320312,-0.04638347029685974,-0.021053671836853027
1772721290179249700,5.062249755859375,-0.1750345230102539,0.07546928524971008,-0.06357932090759277
1772721290197846800,5.0808466796875,-0.35405731201171875,0.0798167884349823,-0.06468868255615234
1772721290216444200,5.099444091796875,-0.07473087310791016,-0.013494044542312622,-0.03981471061706543
1772721290235041300,5.118041259765625,-0.05267333984375,-0.11562660336494446,-0.02859961986541748
1772721290253638700,5.136638671875,-0.1909465789794922,-0.025162696838378906,-0.017348408699035645
1772721290272236000,5.155236083984375,0.020551681518554688,0.055127739906311035,-0.0043849945068359375
1772721290290833200,5.173833251953125,0.1702280044555664,-0.08062121272087097,-0.00980067253112793
1772721290309430500,5.192430419921875,0.053101539611816406,0.11743038892745972,-0.06645584106445312
1772721290328027600,5.211027587890625,0.1885089874267578,0.2755863666534424,-0.08994138240814209
1772721290346625000,5.229625,0.45765209197998047,0.05538201332092285,-0.14693737030029297
1772721290365222100,5.24822216796875,0.13787841796875,-0.18530917167663574,-0.1425797939300537
1772721290383819500,5.266819580078125,-0.39879512786865234,-0.058124035596847534,-0.051969170570373535
1772721290402416600,5.285416748046875,-0.2707080841064453,0.006190836429595947,0.017849087715148926
1772721290421013800,5.304013671875,0.12286090850830078,-0.12277674674987793,0.12703204154968262
1772721290439611100,5.322611083984375,0.13622760772705078,-0.10508233308792114,0.2512305974960327
1772721290458208300,5.341208251953125,0.010944366455078125,-0.06797978281974792,0.29250574111938477
1772721290476805600,5.3598056640625,-0.0067234039306640625,-0.02146744728088379,0.24144339561462402
1772721290495402800,5.37840283203125,0.1302804946899414,-0.06014928221702576,0.16458356380462646
1772721290514000100,5.397000244140625,0.036876678466796875,-0.04488790035247803,0.027621865272521973
1772721290532597200,5.41559716796875,-0.13268566131591797,-0.04884585738182068,-0.048946499824523926
1772721290551194600,5.434194580078125,-0.12842178344726562,-0.09446600079536438,-0.13237422704696655
1772721290569791700,5.452791748046875,0.04686546325683594,-0.15650661289691925,-0.07252049446105957
1772721290588389000,5.47138916015625,0.027976036071777344,-0.14088904857635498,-0.008595585823059082
1772721290606986200,5.489986328125,0.05663776397705078,0.010770976543426514,0.08794844150543213
1772721290625583400,5.508583251953125,0.061560630798339844,0.026912212371826172,0.14879071712493896
1772721290644180700,5.5271806640625,-0.09535980224609375,0.04206475615501404,0.1095128059387207
1772721290662777900,5.54577783203125,-0.3024330139160156,0.07403594255447388,0.008545994758605957
1772721290681375200,5.564375244140625,-0.2673311233520508,0.032739341259002686,-0.07249176502227783
1772721290699972400,5.582972412109375,-0.006163597106933594,0.021678835153579712,-0.11325782537460327
1772721290718569700,5.60156982421875,0.32559680938720703,0.14148762822151184,-0.09085804224014282
1772721290737166800,5.620166748046875,0.4263343811035156,0.1640223264694214,0.06879621744155884
1772721290755764000,5.638763916015625,-0.0804147720336914,0.16377779841423035,0.07348036766052246
1772721290774361300,5.657361328125,-0.28772640228271484,0.12892472743988037,-0.057709693908691406
1772721290792958500,5.67595849609375,-0.0029544830322265625,0.11542513966560364,-0.08974754810333252
1772721290811555600,5.6945556640625,0.0937356948852539,0.04402068257331848,-0.10676729679107666
1772721290830153000,5.713153076171875,0.18921184539794922,0.001775294542312622,-0.06721746921539307
1772721290848750000,5.73175,0.13837718963623047,0.021645307540893555,-0.001640021800994873
1772721290867347200,5.75034716796875,0.0012292861938476562,-0.011972308158874512,0.0231134295463562
1772721290885944600,5.768944580078125,-0.08227825164794922,-0.06952473521232605,0.01820206642150879
1772721290904541700,5.787541748046875,0.11446857452392578,-0.11324009299278259,-0.04099816083908081
1772721290923139000,5.80613916015625,0.14644432067871094,-0.15341049432754517,-0.11399310827255249
1772721290941736200,5.824736083984375,-0.046082496643066406,-0.15253117680549622,-0.08414638042449951
1772721290960333300,5.843333251953125,-0.1220235824584961,-0.0648251473903656,0.019190490245819092
1772721290978930400,5.861930419921875,-0.19157028198242188,-0.059282004833221436,0.116749107837677
1772721290997527800,5.88052783203125,-0.03334236145019531,-0.047080934047698975,0.10705137252807617
1772721291016125000,5.899125,0.0722646713256836,-0.030994057655334473,0.10677909851074219
1772721291034722000,5.91772216796875,-0.10157203674316406,0.02863892912864685,0.00797957181930542
1772721291053319400,5.9363193359375,-0.16378402709960938,0.056009650230407715,0.0303877592086792
1772721291071916500,5.95491650390625,-0.1434488296508789,-0.012370049953460693,-0.11359721422195435
1772721291090513700,5.973513671875,-0.16810321807861328,-0.029304862022399902,-0.25720298290252686
1772721291109110800,5.99211083984375,0.08699893951416016,-0.014628231525421143,-0.1347736120223999
1772721291127708200,6.010708251953125,0.2433624267578125,0.0019685029983520508,-0.13832885026931763
1772721291146305300,6.02930517578125,0.2511272430419922,-0.018685847520828247,-0.06411969661712646
1772721291164902400,6.04790234375,0.0836038589477539,-0.02945077419281006,0.06295013427734375
1772721291183499500,6.06649951171875,-0.11558151245117188,-0.0739934891462326,0.24450892210006714
1772721291202097000,6.085096923828125,-0.18373680114746094,-0.08948001265525818,0.2409554123878479
1772721291220694000,6.103694091796875,-0.12819290161132812,-0.0013574659824371338,0.18441468477249146
1772721291239291100,6.122291015625,0.08833026885986328,-0.023753851652145386,0.02271127700805664
1772721291257888300,6.14088818359375,0.17090892791748047,0.04168316721916199,0.039199113845825195
1772721291276485600,6.159485595703125,0.1617898941040039,0.04933217167854309,0.041544198989868164
1772721291295082800,6.178082763671875,-0.015848159790039062,0.013335317373275757,-0.05349373817443848
1772721291313680000,6.196679931640625,0.0006542205810546875,-0.0604223906993866,-0.020611941814422607
1772721291332277000,6.215277099609375,-0.0761260986328125,-0.015067964792251587,-0.08706986904144287
1772721291350874000,6.2338740234375,-0.09091663360595703,-0.02957022190093994,0.04750794172286987
1772721291369471500,6.252471435546875,0.05322837829589844,-0.04772096872329712,0.06781727075576782
1772721291388068600,6.271068603515625,-0.023347854614257812,-0.12520621716976166,0.13890403509140015
1772721291406665700,6.289665771484375,-0.04742145538330078,-0.07658222317695618,0.015471994876861572
1772721291425262800,6.308262939453125,-0.11229991912841797,-0.09801912307739258,-0.049719035625457764
1772721291443860200,6.326860107421875,-0.10535049438476562,-0.08610865473747253,-0.12728482484817505
1772721291462457300,6.345457275390625,-0.034026145935058594,-0.03553491830825806,-0.10338062047958374
1772721291481054500,6.364054443359375,0.06963825225830078,0.03429165482521057,-0.06879842281341553
1772721291499651600,6.382651611328125,0.1718311309814453,-0.04494550824165344,0.01262599229812622
1772721291518248700,6.401248779296875,0.09993743896484375,-0.04001988470554352,0.06154149770736694
1772721291536845800,6.419845703125,0.06665229797363281,-0.07541528344154358,0.141851007938385
1772721291555443000,6.43844287109375,0.12288665771484375,-0.06232091784477234,0.053951799869537354
1772721291574040300,6.457040283203125,-0.15273761749267578,0.03065282106399536,0.026759862899780273
1772721291592637400,6.475637451171875,-0.08005523681640625,-0.033832088112831116,0.024934351444244385
1772721291611234600,6.494234619140625,0.11744117736816406,-0.03299522399902344,-0.026369214057922363
1772721291629831700,6.512831787109375,0.09775161743164062,-0.009716242551803589,-0.02998596429824829
1772721291648428800,6.5314287109375,-0.02189159393310547,-0.006419122219085693,-0.010918021202087402
1772721291667026000,6.55002587890625,-0.0294647216796875,-0.09878352284431458,0.09304755926132202
1772721291685623000,6.568623046875,-0.044658660888671875,-0.055294573307037354,0.015000998973846436
1772721291704220200,6.58722021484375,0.1812124252319336,0.002888113260269165,-0.005505800247192383
1772721291722817500,6.605817626953125,0.1307229995727539,-0.01014605164527893,0.02837306261062622
1772721291741414400,6.624414306640625,0.11599445343017578,-0.00015211105346679688,0.0485004186630249
1772721291760011800,6.64301171875,-0.144775390625,0.021455764770507812,0.013673365116119385
1772721291778609000,6.66160888671875,-0.16692638397216797,0.021862775087356567,-0.05172312259674072
1772721291797206000,6.6802060546875,-0.002376556396484375,0.03901010751724243,-0.0631018877029419
1772721291815803100,6.69880322265625,0.24742889404296875,0.04080420732498169,-0.0675654411315918
1772721291834400300,6.717400146484375,0.02669811248779297,-0.025608330965042114,-0.042486488819122314
1772721291852997400,6.735997314453125,-0.17392253875732422,0.011250704526901245,-0.06686252355575562
1772721291871594500,6.754594482421875,-0.33005237579345703,0.03539469838142395,-0.0823216438293457
1772721291890191600,6.773191650390625,-0.1328277587890625,-0.036689043045043945,-0.10593461990356445
1772721291908788700,6.791788818359375,0.1519336700439453,-0.005662411451339722,-0.012785792350769043
1772721291927385900,6.8103857421875,0.1393890380859375,-0.024961471557617188,0.06066840887069702
1772721291945983000,6.82898291015625,-0.048099517822265625,-0.03850585222244263,0.04526245594024658
1772721291964580000,6.847580078125,-0.010934829711914062,-0.06074514985084534,0.08532083034515381
1772721291983177200,6.86617724609375,0.010306358337402344,-0.06297019124031067,0.07851320505142212
1772721292001774300,6.8847744140625,-0.024580001831054688,-0.005953460931777954,-0.043115079402923584
1772721292020371700,6.903371826171875,-0.0125274658203125,0.048902690410614014,-0.11965370178222656
1772721292038968600,6.921968505859375,0.10966110229492188,-0.003872990608215332,-0.09214073419570923
1772721292057565700,6.940565673828125,0.04669761657714844,-0.020539432764053345,-0.02485591173171997
1772721292076163000,6.9591630859375,-0.07861900329589844,0.010847538709640503,0.0035929083824157715
1772721292094760000,6.977760009765625,-0.04114341735839844,-0.07653623819351196,0.05193459987640381
1772721292113357000,6.996357177734375,0.02829456329345703,-0.1430046558380127,0.09001362323760986
1772721292131954200,7.0149541015625,-0.06454849243164062,-0.12355056405067444,0.13036894798278809
1772721292150551300,7.03355126953125,-0.043107032775878906,-0.09061223268508911,0.08468937873840332
1772721292169148400,7.0521484375,-0.010035514831542969,-0.004652857780456543,0.014291346073150635
1772721292187745500,7.07074560546875,0.03289222717285156,0.04218980669975281,-0.05833005905151367
1772721292206342700,7.0893427734375,0.024461746215820312,0.061580926179885864,-0.15370941162109375
1772721292224939800,7.107939697265625,0.04534149169921875,0.0046333372592926025,-0.22445785999298096
1772721292243537000,7.126536865234375,0.09598064422607422,0.05712422728538513,-0.22938048839569092
1772721292262134000,7.145134033203125,-0.07084083557128906,0.12527915835380554,-0.12710702419281006
1772721292280731100,7.163731201171875,-0.13970088958740234,0.09266418218612671,-0.06570905447006226
1772721292299328300,7.182328369140625,0.008723258972167969,0.017558425664901733,-0.03984040021896362
1772721292317925400,7.20092529296875,0.06626701354980469,0.030511826276779175,-0.019263029098510742
1772721292336522500,7.2195224609375,0.15276145935058594,-0.09167361259460449,0.10153311491012573
1772721292355119600,7.23811962890625,-0.12761402130126953,-0.07920220494270325,0.09093272686004639
1772721292373716700,7.256716796875,-0.2980813980102539,-0.06049284338951111,0.07297158241271973
1772721292392313900,7.27531396484375,-0.09022808074951172,-0.07817301154136658,0.06581801176071167
1772721292410911000,7.293910888671875,0.05523395538330078,-0.07160845398902893,0.05483663082122803
1772721292429507800,7.3125078125,0.1178903579711914,-0.008820027112960815,-0.021609783172607422
1772721292448105000,7.33110498046875,-0.06130695343017578,0.04737734794616699,-0.0406000018119812
1772721292466702300,7.349702392578125,-0.16976070404052734,-0.02608931064605713,-0.10286688804626465
1772721292485299200,7.36829931640625,0.0479736328125,0.001974552869796753,-0.034925103187561035
1772721292503896300,7.386896240234375,0.03130817413330078,-0.11320355534553528,0.006811082363128662
1772721292522493400,7.405493408203125,0.08896350860595703,-0.11994500458240509,0.018381714820861816
1772721292541090600,7.424090576171875,0.19687938690185547,-0.02153196930885315,0.06011676788330078
1772721292559687700,7.442687744140625,0.24006271362304688,-0.05113106966018677,0.12268710136413574
1772721292578284800,7.461284912109375,-0.00034427642822265625,-0.006023406982421875,0.07338911294937134
1772721292596882000,7.4798818359375,-0.28941822052001953,-0.0018860101699829102,0.016901612281799316
1772721292615478800,7.498478759765625,-0.09748268127441406,0.026662379503250122,-0.06299364566802979
1772721292634076000,7.517075927734375,0.2122507095336914,0.05124911665916443,-0.07089179754257202
1772721292652673000,7.535673095703125,0.21546077728271484,0.016213148832321167,-0.03152024745941162
1772721292671270100,7.554270263671875,0.031658172607421875,0.020647883415222168,-0.03324192762374878
1772721292689867300,7.5728671875,-0.039459228515625,-0.026930689811706543,0.02040886878967285
1772721292708464400,7.59146435546875,-0.026254653930664062,-0.0064803361892700195,0.016886413097381592
1772721292727061500,7.6100615234375,-0.057930946350097656,0.0189247727394104,0.05743885040283203
1772721292745658400,7.628658447265625,-0.1088094711303711,0.02855604887008667,-0.023736953735351562
1772721292764255500,7.64725537109375,-0.06559085845947266,0.00964367389678955,-0.056679725646972656
1772721292782852600,7.6658525390625,-0.030127525329589844,-0.010571479797363281,-0.09967052936553955
1772721292801449700,7.68444970703125,0.012578964233398438,0.0679350197315216,-0.0670807957649231
1772721292820046600,7.703046630859375,0.020477294921875,0.008631378412246704,-0.015336692333221436
1772721292838643700,7.721643798828125,-0.03380012512207031,0.004471272230148315,0.006582498550415039
1772721292857240800,7.74024072265625,-0.041726112365722656,0.025519758462905884,0.07368612289428711
1772721292875838000,7.758837890625,0.006861686706542969,-0.004884183406829834,0.09359437227249146
1772721292894435000,7.77743505859375,0.044175148010253906,-0.05272588133811951,0.04484492540359497
1772721292913032000,7.796031982421875,-0.04905509948730469,-0.004671633243560791,-0.057013869285583496
1772721292931629000,7.814629150390625,-0.04768848419189453,0.013659745454788208,-0.021667540073394775
1772721292950226200,7.83322607421875,-0.051978111267089844,-0.03331106901168823,-0.03785830736160278
1772721292968823300,7.8518232421875,-0.11179828643798828,0.027612298727035522,-0.07044419646263123
1772721292987420400,7.87042041015625,-0.031655311584472656,0.06329396367073059,-0.12296116352081299
1772721293006017300,7.889017333984375,0.20809268951416016,0.03832933306694031,-0.15190762281417847
1772721293024614400,7.907614501953125,0.3888864517211914,0.03858184814453125,-0.14441579580307007
1772721293043211500,7.92621142578125,0.2773571014404297,-0.0314616858959198,0.05207127332687378
1772721293061808600,7.94480859375,-0.10111808776855469,-0.06623068451881409,0.12514466047286987
1772721293080405500,7.963405517578125,-0.1954479217529297,-0.16668367385864258,0.1352023482322693
1772721293099002600,7.982002685546875,-0.14136314392089844,-0.07221367955207825,0.14919060468673706
1772721293117599700,8.000599853515626,0.03887653350830078,-0.026476144790649414,0.11836004257202148
1772721293136196600,8.019196533203125,0.18770790100097656,-0.11751195788383484,0.010499119758605957
1772721293154793700,8.037793701171875,0.15763282775878906,-0.13566261529922485,-0.05285239219665527
1772721293173390800,8.056390869140625,-0.06839179992675781,-0.0870254635810852,0.01444774866104126
1772721293191988000,8.074988037109375,-0.31911659240722656,-0.0889391303062439,-0.05706620216369629
1772721293210584800,8.093584716796874,-0.21416759490966797,-0.028722047805786133,-0.12995141744613647
1772721293229182000,8.112181884765626,0.037833213806152344,-0.02697005867958069,-0.050112366676330566
1772721293247779000,8.130779052734376,0.061194419860839844,-0.05516088008880615,-0.008914411067962646
1772721293266376200,8.149376220703125,-0.22159576416015625,-0.06377196311950684,0.01221621036529541
1772721293284973000,8.16797314453125,-0.2651252746582031,-0.03385511040687561,0.00048542022705078125
1772721293303570200,8.186570068359375,-0.04558849334716797,-0.05988830327987671,-0.04079097509384155
1772721293322167000,8.2051669921875,0.19104480743408203,-0.0672014057636261,-0.03832674026489258
1772721293340764200,8.22376416015625,0.07337474822998047,-0.06533604860305786,0.051155269145965576
1772721293359361300,8.242361328125,-0.06289958953857422,-0.015018671751022339,0.09490978717803955
1772721293377958100,8.260958251953125,-0.06709861755371094,0.031649231910705566,0.14782917499542236
1772721293396555300,8.27955517578125,0.11513137817382812,0.018613576889038086,0.14398175477981567
1772721293415152400,8.29815234375,0.2203826904296875,0.013518273830413818,0.10157948732376099
1772721293433749500,8.31674951171875,0.24685096740722656,0.03558087348937988,0.031999289989471436
1772721293452346400,8.335346435546874,0.14654827117919922,0.04044920206069946,-0.013630270957946777
1772721293470943500,8.353943603515624,-0.10861587524414062,0.12378242611885071,0.003632843494415283
1772721293489540400,8.372540283203126,-0.20472431182861328,0.13648176193237305,0.019133567810058594
1772721293508137500,8.391137451171875,-0.14439868927001953,0.1077880859375,-0.047177910804748535
1772721293526734600,8.409734619140625,-0.08469867706298828,0.08644384145736694,-0.0732278823852539
1772721293545331500,8.42833154296875,0.11715126037597656,0.08336281776428223,-0.05268734693527222
1772721293563928600,8.446928466796875,0.10575103759765625,0.056719958782196045,-0.036022722721099854
1772721293582525400,8.465525390625,-0.056632041931152344,0.039036303758621216,-0.025269508361816406
1772721293601122600,8.48412255859375,-0.1292705535888672,0.05197080969810486,0.009392619132995605
1772721293619719700,8.5027197265625,-0.006495475769042969,0.043216824531555176,0.06128060817718506
1772721293638316500,8.521316650390625,0.03169059753417969,0.02226516604423523,0.06538975238800049
1772721293656913700,8.53991357421875,-0.013538360595703125,-0.05436509847640991,0.03085160255432129
1772721293675510500,8.558510498046875,-0.06621742248535156,0.020555466413497925,0.0018903613090515137
1772721293694107600,8.577107666015625,0.0102081298828125,-0.02521049976348877,-0.01641613245010376
1772721293712704800,8.595704833984374,-0.05149078369140625,-0.08291128277778625,-0.10220059752464294
1772721293731301600,8.614301513671874,-0.04524517059326172,-0.004845738410949707,-0.11636251211166382
1772721293749898800,8.632898681640626,-0.032698631286621094,-0.00255468487739563,-0.0430791974067688
1772721293768495600,8.65149560546875,0.14261722564697266,0.021692514419555664,0.023385822772979736
1772721293787092700,8.6700927734375,0.2357473373413086,-0.00012123584747314453,0.05922436714172363
1772721293805689600,8.688689697265625,0.1873340606689453,-0.04830393195152283,0.11150574684143066
1772721293824286700,8.70728662109375,0.04271697998046875,-0.10772386193275452,0.2066342830657959
1772721293842883800,8.7258837890625,-0.14248371124267578,-0.07533469796180725,0.07472676038742065
1772721293861480700,8.744480712890624,-0.1421823501586914,-0.09923160076141357,-0.09189915657043457
1772721293880077800,8.763077880859376,-0.08263778686523438,-0.15271182358264923,-0.06034970283508301
1772721293898674700,8.7816748046875,-0.02646923065185547,-0.16807128489017487,-0.027801454067230225
1772721293917271800,8.800271728515625,0.19194793701171875,-0.13058245182037354,0.011859595775604248
1772721293935868700,8.81886865234375,0.16704463958740234,-0.1566368192434311,0.08136683702468872
1772721293954465800,8.8374658203125,-0.13909244537353516,-0.09073248505592346,0.06201338768005371
1772721293973062700,8.856062744140624,-0.04860210418701172,-0.09676283597946167,0.12434768676757812
1772721293991659800,8.87465966796875,0.10178279876708984,-0.1426442563533783,0.1056438684463501
1772721294010256600,8.893256591796876,-0.029424667358398438,-0.07715901732444763,-0.017431676387786865
1772721294028853800,8.911853759765625,-0.21123695373535156,0.003946751356124878,-0.08370718359947205
1772721294047450600,8.93045068359375,-0.11461448669433594,-0.051725834608078,-0.08556267619132996
1772721294066047700,8.9490478515625,0.14297199249267578,-0.09474828839302063,-0.1334700584411621
1772721294084644600,8.96764453125,0.24396228790283203,-0.052904605865478516,-0.05489516258239746
1772721294103241700,8.98624169921875,0.08197498321533203,-0.016395270824432373,-0.03722274303436279
1772721294121838600,9.004838623046876,-0.030510902404785156,-0.049044400453567505,0.08906680345535278
1772721294140435700,9.023435791015626,0.025135040283203125,-0.09273867309093475,0.08650362491607666
1772721294159032600,9.042032470703125,-0.026444435119628906,-0.06451761722564697,-0.03198719024658203
1772721294177629700,9.060629638671875,-0.0240478515625,0.05678406357765198,-0.04882180690765381
1772721294196226600,9.0792265625,0.02926158905029297,0.03498539328575134,-0.013558745384216309
1772721294214823700,9.09782373046875,0.009854316711425781,0.014406174421310425,-0.0037354230880737305
1772721294233420500,9.116420654296874,-0.1743488311767578,0.038692474365234375,-0.06133347749710083
1772721294252017400,9.135017333984376,-0.12686824798583984,0.030858635902404785,-0.0333256721496582
1772721294270614500,9.153614501953125,0.07994365692138672,0.0347898006439209,0.03790777921676636
1772721294289211400,9.17221142578125,-0.11318111419677734,0.050180673599243164,-0.011929452419281006
1772721294307808500,9.19080859375,-0.19559669494628906,0.04067298769950867,-0.14242267608642578
1772721294326405400,9.2094052734375,-0.030549049377441406,0.03177335858345032,-0.1447051465511322
1772721294345002500,9.22800244140625,0.2271404266357422,0.011511057615280151,-0.11205017566680908
1772721294363599400,9.246599365234376,0.13663959503173828,0.07345274090766907,-0.05382627248764038
1772721294382196500,9.265196533203126,-0.017233848571777344,0.013074219226837158,0.10797923803329468
1772721294400793300,9.28379345703125,-0.18213176727294922,0.002487272024154663,0.12274771928787231
1772721294419390200,9.30239013671875,-0.10671806335449219,-0.020772814750671387,0.01914370059967041
1772721294437987300,9.3209873046875,0.11601734161376953,0.06463995575904846,-0.02268373966217041
1772721294456584200,9.339584228515625,0.07052230834960938,0.12841752171516418,-0.08807516098022461
1772721294475181000,9.35818115234375,-0.09380912780761719,0.12420782446861267,-0.13094303011894226
1772721294493778200,9.376778076171876,-0.05893993377685547,0.01854035258293152,-0.20060309767723083
1772721294512375000,9.395375,0.1262798309326172,-0.01563778519630432,-0.09617114067077637
1772721294530972200,9.41397216796875,0.07936382293701172,0.022450149059295654,0.02621638774871826
1772721294549569000,9.432569091796875,0.08396720886230469,-0.04160037636756897,-0.057575762271881104
1772721294568166000,9.451165771484375,0.15378952026367188,-0.0818198025226593,0.14601916074752808
1772721294586763000,9.469762939453124,-0.038272857666015625,-0.27397671341896057,0.2444503903388977
1772721294605359900,9.48835986328125,-0.15408039093017578,-0.16792640089988708,0.09396225214004517
1772721294623957000,9.50695703125,-0.18015480041503906,-0.14805075526237488,0.06782746315002441
1772721294642553900,9.525553955078125,-0.07956981658935547,-0.1401471197605133,0.004811882972717285
1772721294661150700,9.544150634765625,0.19747638702392578,-0.14669376611709595,-0.004609107971191406
1772721294679747800,9.562747802734375,0.15471553802490234,-0.07108980417251587,-0.06095808744430542
1772721294698344700,9.5813447265625,-0.16072368621826172,0.00778043270111084,-0.08927720785140991
1772721294716941600,9.599941650390624,-0.10460567474365234,0.055673569440841675,-0.08396244049072266
1772721294735538700,9.61853857421875,0.2055511474609375,0.02407088875770569,-0.07858443260192871
1772721294754135600,9.637135498046876,0.14904022216796875,0.034423649311065674,-0.05614393949508667
1772721294772732400,9.655732421875,-0.1224527359008789,0.0944279134273529,-0.023406624794006348
1772721294791329300,9.674329345703125,-0.09314250946044922,0.0751531720161438,0.029676973819732666
1772721294809926400,9.692926513671875,0.026273727416992188,0.06671881675720215,0.022598683834075928
1772721294828523300,9.711523193359374,0.13739585876464844,0.10064730048179626,0.04243367910385132
1772721294847120100,9.7301201171875,0.0026884078979492188,0.08812791109085083,0.08898431062698364
1772721294865717000,9.748717041015626,-0.14435195922851562,0.04824027419090271,0.03523552417755127
1772721294884314000,9.767314208984375,-0.18676471710205078,0.069451242685318,0.019856631755828857
1772721294902911000,9.785910888671875,-0.19199848175048828,0.05738827586174011,0.0031195878982543945
1772721294921507800,9.8045078125,-0.09653759002685547,0.07228940725326538,-0.028994500637054443
1772721294940105000,9.82310498046875,0.12619876861572266,0.05291801691055298,-0.04207050800323486
1772721294958701800,9.841701904296874,0.3104715347290039,0.055706918239593506,0.0017533302307128906
1772721294977298700,9.860298583984376,0.07312965393066406,-0.0015259087085723877,0.03512001037597656
1772721294995895800,9.878895751953126,-0.3014240264892578,0.05289158225059509,-0.010020315647125244
1772721295014492700,9.89749267578125,-0.31965065002441406,0.027259469032287598,0.009951531887054443
1772721295033089500,9.916089599609375,-0.11241912841796875,-0.01881539821624756,-0.07356676459312439
1772721295051686400,9.934686279296875,0.07676887512207031,-0.11694294214248657,-0.057801902294158936
1772721295070283500,9.953283447265624,0.28556060791015625,-0.08995306491851807,-0.01226353645324707
1772721295088880400,9.97188037109375,0.29563236236572266,-0.03732958436012268,-0.09146475791931152
1772721295107477200,9.990477294921876,0.3872795104980469,-0.16146188974380493,0.2622781991958618
1772721295126074000,10.00907421875,0.04177665710449219,0.008383616805076599,0.05190598964691162
1772721295144671200,10.027671142578125,-0.0819711685180664,0.017908036708831787,0.06602084636688232
1772721295163268000,10.04626806640625,-0.07049942016601562,-0.008978724479675293,0.016057729721069336
1772721295181865000,10.064864990234375,-0.140594482421875,0.03221052885055542,-0.056164562702178955
1772721295200461800,10.0834619140625,-0.08244132995605469,0.05046284198760986,-0.1598210334777832
1772721295219058700,10.10205859375,0.10272598266601562,-0.06128798425197601,-0.07517126202583313
1772721295237655800,10.12065576171875,0.05602073669433594,-0.038019731640815735,0.03179436922073364
1772721295256252700,10.139252685546875,-0.17168426513671875,-0.013895899057388306,0.08662056922912598
1772721295274849500,10.157849609375,-0.23566722869873047,-0.05321057140827179,0.050416409969329834
1772721295293446400,10.1764462890625,-0.10556602478027344,-0.0297582745552063,0.07649403810501099
1772721295312043300,10.195043212890624,0.08896350860595703,-0.014398321509361267,0.041847169399261475
1772721295330640400,10.213640380859376,0.13399124145507812,-0.007309064269065857,0.021370649337768555
1772721295349237200,10.2322373046875,-0.043875694274902344,-0.02577066421508789,0.015376687049865723
1772721295367834000,10.250834228515625,-0.13138771057128906,-0.025559648871421814,0.03491568565368652
1772721295386431000,10.269430908203125,0.03742408752441406,-0.03413231670856476,0.06785571575164795
1772721295405027800,10.28802783203125,0.09244346618652344,-0.03906485438346863,0.0923582911491394
1772721295423624700,10.306624755859374,-0.0710906982421875,0.01970595121383667,0.08890408277511597
1772721295442221800,10.325221923828124,0.06225872039794922,-0.01595441997051239,0.05787020921707153
1772721295460818700,10.343818603515626,0.182769775390625,-0.027398183941841125,0.021839797496795654
1772721295479415600,10.36241552734375,-0.10319995880126953,0.03157751262187958,-0.04684022068977356
1772721295498012400,10.381012451171875,-0.2783241271972656,0.056194230914115906,-0.06699007749557495
1772721295516609300,10.399609375,-0.12147808074951172,0.014998316764831543,-0.08337599039077759
1772721295535206400,10.418206298828125,0.2243509292602539,-0.022946298122406006,-0.13638633489608765
1772721295553803300,10.43680322265625,0.3650646209716797,-0.004487946629524231,-0.020864635705947876
1772721295572400000,10.455400146484376,0.15033340454101562,0.015268698334693909,0.11269065737724304
1772721295590997000,10.4739970703125,-0.15424156188964844,-0.009829267859458923,0.07611379027366638
1772721295609593900,10.49259375,-0.20118045806884766,0.03282025456428528,0.011865377426147461
1772721295628190700,10.511190673828125,-0.02273845672607422,0.005524680018424988,-0.01900354027748108
1772721295646787600,10.52978759765625,0.15874099731445312,0.006694197654724121,-0.06956601142883301
1772721295665384700,10.548384765625,0.08203792572021484,0.029897555708885193,-0.09434854984283447
1772721295683981600,10.566981689453126,-0.1247243881225586,-0.00619080662727356,-0.0692797601222992
1772721295702578400,10.585578369140626,-0.12945175170898438,-0.06101624667644501,-0.06966525316238403
1772721295721175300,10.60417529296875,0.03557395935058594,-0.055698245763778687,-0.0488167405128479
1772721295739772200,10.622772216796875,0.09367942810058594,-0.03481815755367279,0.03338626027107239
1772721295758369000,10.641369140625,0.00839996337890625,-0.06295844912528992,0.0664910078048706
1772721295776966000,10.6599658203125,-0.033677101135253906,-0.06699714064598083,0.1055840253829956
1772721295795562800,10.678562744140624,0.012875556945800781,-0.12622541189193726,0.0486370325088501
1772721295814159600,10.69715966796875,0.042586326599121094,-0.09861767292022705,0.023215949535369873
1772721295832756500,10.715756591796875,0.02513599395751953,-0.043528079986572266,-0.007558286190032959
1772721295851353300,10.734353271484375,0.028861045837402344,-0.04222269356250763,-0.041480034589767456
1772721295869950500,10.752950439453125,-0.0855722427368164,-0.015488758683204651,-0.015316784381866455
1772721295888547300,10.77154736328125,-0.031279563903808594,-0.014117047190666199,0.011952757835388184
1772721295907144200,10.790144287109374,0.1013193130493164,-0.01760058104991913,-0.019922345876693726
1772721295925741000,10.808740966796876,0.005074501037597656,-0.02956385910511017,0.08957388997077942
1772721295944338000,10.827337890625,-0.18529510498046875,-0.045942142605781555,0.04482084512710571
1772721295962934800,10.845934814453125,-0.15640830993652344,-0.03686441481113434,-0.0005216002464294434
1772721295981531600,10.86453173828125,0.04629802703857422,-0.0034487545490264893,-0.07256856560707092
1772721296000128500,10.88312841796875,0.17385578155517578,-0.006767287850379944,-0.09668710827827454
1772721296018725400,10.901725341796874,0.14423370361328125,-0.048060640692710876,-0.08406603336334229
1772721296037322200,10.920322265625,0.056644439697265625,-0.04920239746570587,-0.051767706871032715
1772721296055919000,10.938919189453125,-0.054866790771484375,-0.08324116468429565,0.12648671865463257
1772721296074516000,10.957515869140625,-0.033225059509277344,-0.07347594201564789,0.12999236583709717
1772721296093112800,10.97611279296875,0.00665283203125,-0.014542162418365479,0.002557307481765747
1772721296111709700,10.994709716796875,0.1278400421142578,-0.019856572151184082,-0.06901934742927551
1772721296130306800,11.013306884765624,0.0095062255859375,-0.010261639952659607,-0.11621448397636414
1772721296148903700,11.031903564453126,-0.12784957885742188,0.016758665442466736,-0.12056800723075867
1772721296167500500,11.05050048828125,-0.04063224792480469,-0.021203577518463135,-0.0853734016418457
1772721296186097400,11.069097412109375,-0.059348106384277344,0.018007859587669373,0.010164439678192139
1772721296204694300,11.0876943359375,-0.13309955596923828,0.017564356327056885,0.09735181927680969
1772721296223291000,11.106290771484375,-0.0732421875,-0.059392303228378296,0.021285951137542725
1772721296241887700,11.1248876953125,0.14654254913330078,0.0302199125289917,-0.01679745316505432
1772721296260484600,11.143484619140626,0.13283252716064453,0.09589964151382446,0.01838606595993042
1772721296279081500,11.16208154296875,-0.0009822845458984375,-0.023629873991012573,-0.023927390575408936
1772721296297678600,11.1806787109375,-0.1727581024169922,-0.08948895335197449,0.08054062724113464
