time,seconds_elapsed,z,y,x
1772721285213727200,0.096727294921875,-0.12988512217998505,0.00954476185142994,-0.1487455666065216
1772721285232324900,0.115324951171875,-0.13538290560245514,0.013820815831422806,-0.11698060482740402
1772721285250922500,0.133922607421875,-0.13080142438411713,0.010155626572668552,-0.035124726593494415
1772721285269520100,0.15252001953125,-0.12286017835140228,0.012293653562664986,0.053756099194288254
1772721285288117800,0.17111767578125,-0.12255474925041199,0.01107192412018776,0.11087195575237274
1772721285306715600,0.189715576171875,-0.11430807411670685,-0.028634287416934967,0.13561198115348816
1772721285325313300,0.208313232421875,-0.095982126891613,-0.08819360285997391,0.12614357471466064
1772721285343911000,0.226910888671875,-0.05566505342721939,-0.1446985900402069,0.08796452730894089
1772721285362508500,0.245508544921875,-0.017486004158854485,-0.16638429462909698,0.11453714966773987
1772721285381106200,0.264106201171875,-0.012904518283903599,-0.10987929999828339,0.14110976457595825
1772721285399703800,0.282703857421875,0.021609341725707054,-0.07506000995635986,0.1737910360097885
1772721285418301700,0.3013017578125,0.0576503649353981,0.02176205813884735,0.1905898153781891
1772721285436899000,0.319899169921875,0.13797907531261444,0.11461350321769714,0.2370155304670334
1772721285455497000,0.3384970703125,0.19509494304656982,0.2193768173456192,0.2816086709499359
1772721285474094600,0.357094482421875,0.22075125575065613,0.27435463666915894,0.31093016266822815
1772721285492692200,0.375692138671875,0.16210824251174927,0.25847217440605164,0.27488914132118225
1772721285511289900,0.394289794921875,0.08575014024972916,0.1222493126988411,0.2003636509180069
1772721285529887500,0.412887451171875,0.09002619981765747,0.05719221383333206,0.1902843713760376
1772721285548485000,0.431485107421875,0.032910339534282684,0.0553596206009388,0.22296564280986786
1772721285567082800,0.450082763671875,-0.025121813639998436,-0.01000291109085083,0.1954767256975174
1772721285585680400,0.468680419921875,-0.09231694042682648,-0.10224349051713943,0.08857539296150208
1772721285604278000,0.487278076171875,-0.20715951919555664,-0.29710936546325684,-0.04734202101826668
1772721285622875600,0.505875732421875,-0.2816850244998932,-0.3096320927143097,-0.10231985151767731
1772721285641473300,0.524473388671875,-0.23189954459667206,-0.2274707704782486,-0.14508038759231567
1772721285660071000,0.54307080078125,-0.26335906982421875,-0.36308276653289795,-0.3274235129356384
1772721285678668800,0.561668701171875,-0.20715951919555664,-0.27695080637931824,-0.31581708788871765
1772721285697266200,0.58026611328125,-0.19677481055259705,-0.1969275325536728,-0.24251331388950348
1772721285715863800,0.59886376953125,-0.19585852324962616,-0.1706603467464447,-0.20158538222312927
1772721285734461700,0.617461669921875,-0.2099084109067917,-0.1401171088218689,-0.1844811588525772
1772721285753059000,0.63605908203125,-0.1931096315383911,-0.20273074507713318,-0.22876885533332825
1772721285771656700,0.65465673828125,-0.15401428937911987,-0.17371466755867004,-0.24006985127925873
1772721285790254300,0.67325439453125,-0.12011128664016724,-0.07628174126148224,-0.1695149689912796
1772721285808852200,0.691852294921875,-0.05352702736854553,0.09353867173194885,-0.09040798991918564
1772721285827449600,0.71044970703125,-0.0006872228696011007,0.00038179047987796366,-0.035735588520765305
1772721285846047200,0.729047119140625,0.018555017188191414,0.03000873140990734,-0.09010255336761475
1772721285864644900,0.747644775390625,0.055512335151433945,0.00007635809743078426,-0.10415244847536087
1772721285883242500,0.766242431640625,0.08391755074262619,0.040088001638650894,-0.09468404203653336
1772721285901840100,0.784840087890625,0.14408773183822632,0.04253146052360535,-0.14019346237182617
1772721285920437800,0.803437744140625,0.2213621288537979,0.010766491293907166,-0.21166464686393738
1772721285939035400,0.822035400390625,0.2796997129917145,-0.01824958436191082,-0.24526220560073853
1772721285957633000,0.840633056640625,0.28214317560195923,0.025732679292559624,-0.17898337543010712
1772721285976230700,0.859230712890625,0.26015204191207886,0.06849320977926254,-0.10445787757635117
1772721285994828300,0.877828369140625,0.22960880398750305,0.1014799103140831,-0.015271619893610477
1772721286013426000,0.896426025390625,0.20761767029762268,0.09506583213806152,0.0513126403093338
1772721286032023600,0.9150234375,0.1602756530046463,0.08468113094568253,0.1078176349401474
1772721286050621200,0.93362109375,0.1242346242070198,0.09934188425540924,0.12217295914888382
1772721286069218600,0.952218505859375,0.0939968153834343,0.14637847244739532,0.09162971377372742
1772721286087816200,0.970816162109375,0.07170025259256363,0.11430807411670685,0.028405211865901947
1772721286106413800,0.989413818359375,0.039018988609313965,0.08529199659824371,-0.06994401663541794
1772721286125011500,1.008011474609375,-0.016875140368938446,0.05322159454226494,-0.12034036219120026
1772721286143609000,1.026609130859375,-0.07399099320173264,0.08437569439411163,-0.035735588520765305
1772721286162206700,1.045206787109375,-0.095982126891613,0.08284853398799896,0.06444623321294785
1772721286180804000,1.06380419921875,-0.1011744812130928,0.046196650713682175,0.1078176349401474
1772721286199401700,1.082401611328125,-0.09476039558649063,-0.0057268571108579636,0.12950333952903748
1772721286217999400,1.100999267578125,-0.060551971197128296,-0.055512335151433945,0.1646280586719513
1772721286236597000,1.119596923828125,-0.022678354755043983,-0.13278673589229584,0.1536324918270111
1772721286255194600,1.138194580078125,0.040546149015426636,-0.2534325122833252,0.1230892539024353
1772721286273792000,1.1567919921875,0.11843141168355942,-0.3181841969490051,0.08338304609060287
1772721286292389600,1.1753896484375,0.17249293625354767,-0.3258199989795685,0.06780599057674408
1772721286310987300,1.1939873046875,0.21861323714256287,-0.28183773159980774,0.06627883017063141
1772721286329585000,1.2125849609375,0.21494804322719574,-0.17249293625354767,0.03298669680953026
1772721286348182500,1.2311826171875,0.18745912611484528,-0.03535379841923714,-0.019242240116000175
1772721286366780000,1.24977978515625,0.1242346242070198,0.010155626572668552,-0.056199558079242706
1772721286385377500,1.26837744140625,0.04482220485806465,0.02756527252495289,-0.05742128938436508
1772721286403975200,1.28697509765625,-0.04711294546723366,0.0965929925441742,-0.04306596517562866
1772721286422572800,1.30557275390625,-0.15065452456474304,0.12316560745239258,-0.002443459117785096
1772721286441170400,1.32417041015625,-0.18669554591178894,0.10422880202531815,-0.00946840364485979
1772721286459767800,1.342767822265625,-0.1329394429922104,0.08834631741046906,-0.039706211537122726
1772721286478365400,1.361365478515625,-0.07429642975330353,0.06818778067827225,-0.026878049597144127
1772721286496963000,1.379963134765625,-0.026343543082475662,0.02909243479371071,-0.012217295356094837
1772721286515560400,1.398560546875,-0.0012980876490473747,0.0006872228696011007,-0.013744457624852657
1772721286534158000,1.417157958984375,-0.006490438245236874,-0.006948587018996477,0.005192350596189499
1772721286552755700,1.435755615234375,-0.005574141163378954,0.0012980876490473747,0.04428769648075104
1772721286571353300,1.454353271484375,-0.010461059398949146,0.014431680552661419,0.06444623321294785
1772721286589950700,1.47295068359375,-0.011988221667706966,0.03611737862229347,0.02412915788590908
1772721286608548400,1.49154833984375,-0.013515383005142212,0.06085740402340889,-0.03634645417332649
1772721286627146000,1.51014599609375,-0.028176138177514076,0.09964732080698013,-0.048563748598098755
1772721286645743400,1.528743408203125,-0.025121813639998436,0.12896881997585297,-0.05039634555578232
1772721286664341000,1.547341064453125,-0.029397867619991302,0.11125374585390091,-0.0769689604640007
1772721286682938600,1.565938720703125,-0.046807512640953064,0.10911571979522705,-0.0720820426940918
1772721286701536000,1.584535888671875,-0.06330086290836334,0.14393500983715057,-0.019242240116000175
1772721286720133600,1.603133544921875,-0.06788235157728195,0.1417969912290573,0.004276053514331579
1772721286738731300,1.621731201171875,-0.04192059487104416,0.1320231556892395,-0.01282816007733345
1772721286757328600,1.64032861328125,-0.014431680552661419,0.1222493126988411,-0.039706211537122726
1772721286775926300,1.65892626953125,0.00755945174023509,0.10453423857688904,-0.06902772188186646
1772721286794524000,1.67752392578125,0.034437503665685654,0.07979421317577362,-0.08429934084415436
1772721286813121300,1.696121337890625,0.08147408813238144,0.030925029888749123,-0.1029307171702385
1772721286831718700,1.71471875,0.12759438157081604,-0.03627009689807892,-0.11239911615848541
1772721286850316300,1.73331640625,0.16302454471588135,-0.033826638013124466,-0.013744457624852657
1772721286868914000,1.751913818359375,0.16210824251174927,0.024510949850082397,0.11331541836261749
1772721286887511300,1.77051123046875,0.2170860767364502,0.03886627033352852,0.14813470840454102
1772721286906109000,1.78910888671875,0.289168119430542,-0.0322994738817215,0.09621120244264603
1772721286924706600,1.80770654296875,0.28550294041633606,-0.08910989761352539,0.07116574794054031
1772721286943304000,1.826303955078125,0.2329685539007187,-0.05367974191904068,0.12278381735086441
1772721286961901600,1.844901611328125,0.25984659790992737,-0.030772313475608826,0.17134757339954376
1772721286980499000,1.8634990234375,0.30077454447746277,-0.07444914430379868,0.16768237948417664
1772721286999096600,1.8820966796875,0.2772562503814697,-0.16271910071372986,0.07880155742168427
1772721287017694000,1.90069384765625,0.20731224119663239,-0.19814926385879517,-0.032070402055978775
1772721287036291600,1.91929150390625,0.13187043368816376,-0.12637265026569366,-0.08582650125026703
1772721287054889200,1.93788916015625,0.15630502998828888,-0.11354449391365051,-0.05283980444073677
1772721287073486600,1.956486572265625,0.1761581301689148,-0.05673406645655632,0.03848448023200035
1772721287092084000,1.975083984375,0.20334161818027496,0.009850194677710533,0.15790854394435883
1772721287110681600,1.993681640625,0.24885104596614838,0.004963276442140341,0.2202167510986328
1772721287129279000,2.012279052734375,0.2170860767364502,0.01107192412018776,0.23518294095993042
1772721287147876600,2.030876708984375,0.21464261412620544,0.04558578506112099,0.28038692474365234
1772721287166474000,2.049473876953125,0.2537379562854767,0.07887791097164154,0.3075704276561737
1772721287185071600,2.068071533203125,0.31787875294685364,0.0550541877746582,0.3170388340950012
1772721287203669000,2.0866689453125,0.3765217661857605,0.051389001309871674,0.30482152104377747
1772721287222266600,2.1052666015625,0.3719402849674225,0.06910407543182373,0.2522871494293213
1772721287240864000,2.123864013671875,0.3337612450122833,0.029703300446271896,0.08949168771505356
1772721287259461600,2.142461669921875,0.3142135739326477,0.07612902671098709,-0.12217295914888382
1772721287278059000,2.16105908203125,0.344451367855072,0.2761872410774231,-0.23304490745067596
1772721287296656400,2.179656494140625,0.39881834387779236,0.44784024357795715,-0.24373504519462585
1772721287315254000,2.19825390625,0.44982555508613586,0.4918225109577179,-0.20463970303535461
1772721287333851400,2.216851318359375,0.45685049891471863,0.5220603346824646,-0.16737695038318634
1772721287352449000,2.235448974609375,0.4318050444126129,0.6613374948501587,-0.12980876863002777
1772721287371046400,2.25404638671875,0.3917934000492096,0.7450259327888489,-0.1178968995809555
1772721287389644000,2.27264404296875,0.28153231739997864,0.6833286285400391,-0.10598503798246384
1772721287408241400,2.291241455078125,0.13767364621162415,0.6509527564048767,0.04001164436340332
1772721287426838800,2.3098388671875,-0.0019089524867013097,0.5364156365394592,0.2516762912273407
1772721287445436400,2.3284365234375,-0.13110685348510742,0.22273656725883484,0.39309149980545044
1772721287464033800,2.34703369140625,-0.32505643367767334,-0.43944084644317627,0.38301220536231995
1772721287482631200,2.365631103515625,-0.30489787459373474,-0.4220311939716339,0.37171122431755066
1772721287501228800,2.384228759765625,-0.02756527252495289,-0.4635699987411499,0.2153298407793045
1772721287519826200,2.402826171875,0.24701844155788422,-0.5500074028968811,0.02932151034474373
1772721287538423800,2.421423828125,0.30688318610191345,-0.6049851775169373,-0.04001164436340332
1772721287557021200,2.440021240234375,0.1660788655281067,-0.6605738997459412,-0.0665842592716217
1772721287575618600,2.45861865234375,0.10651954263448715,-0.5946004986763,-0.08674279600381851
1772721287594216200,2.47721630859375,0.22288928925991058,-0.4287507236003876,-0.10873392969369888
1772721287612813600,2.4958134765625,0.3609447181224823,-0.11323905736207962,-0.17226386070251465
1772721287631411000,2.514410888671875,0.3917934000492096,0.15676318109035492,-0.2926042377948761
1772721287650008600,2.533008544921875,0.3707185685634613,0.3262781500816345,-0.26480987668037415
1772721287668606000,2.55160595703125,0.2381609082221985,0.3274998664855957,-0.16523891687393188
1772721287687203600,2.57020361328125,-0.0022143847309052944,0.23617559671401978,-0.07238747924566269
1772721287705801000,2.588801025390625,-0.22395829856395721,0.25877758860588074,0.03390299528837204
1772721287724398300,2.6073984375,-0.49334967136383057,0.5718457698822021,0.05925388261675835
1772721287742995700,2.62599560546875,-0.8464295268058777,1.3161845207214355,0.17165300250053406
1772721287761593300,2.64459326171875,-0.9139300584793091,1.2233331203460693,0.23212862014770508
1772721287780190700,2.663190673828125,-0.9151517748832703,0.6973785161972046,0.23335035145282745
1772721287798788000,2.6817880859375,-0.9731839299201965,0.19616395235061646,0.025961752980947495
1772721287817385500,2.700385498046875,-1.035492181777954,0.047723811119794846,-0.4218021333217621
1772721287835983000,2.718983154296875,-1.0248019695281982,0.3119228184223175,-0.6117810606956482
1772721287854580500,2.73758056640625,-0.7587704062461853,0.18700097501277924,-0.36224281787872314
1772721287873177900,2.756177734375,-0.21601705253124237,-0.3972911834716797,0.03543015569448471
1772721287891775200,2.774775146484375,0.3154352903366089,-0.7842740416526794,0.3539961278438568
1772721287910372900,2.793372802734375,0.41500625014305115,-0.835281252861023,0.5784889459609985
1772721287928970200,2.81197021484375,0.2274707704782486,-0.8056542873382568,0.6774490475654602
1772721287947567600,2.830567626953125,0.025274530053138733,-0.604374349117279,0.43310311436653137
1772721287966165200,2.849165283203125,0.07078395783901215,-0.29374960064888,-0.014660755172371864
1772721287984762600,2.8677626953125,0.14592032134532928,-0.15935935080051422,-0.3084867000579834
1772721288003360000,2.886360107421875,0.12637265026569366,-0.2427423894405365,-0.2935205399990082
1772721288021957400,2.904957275390625,0.13095413148403168,-0.2775616943836212,-0.06719512492418289
1772721288040554800,2.9235546875,0.2015090137720108,-0.2687041461467743,0.17195843160152435
1772721288059152100,2.942152099609375,0.298331081867218,-0.35391977429389954,0.30054548382759094
1772721288077749500,2.96074951171875,0.395764023065567,-0.45623964071273804,0.30512696504592896
1772721288096347100,2.97934716796875,0.45654505491256714,-0.510606586933136,0.27366742491722107
1772721288114944500,2.997944580078125,0.4519635736942291,-0.568027913570404,0.2309068888425827
1772721288133542000,3.0165419921875,0.39454227685928345,-0.6538543701171875,0.1484401375055313
1772721288152139300,3.03513916015625,0.3358992636203766,-0.7219657897949219,0.05711585655808449
1772721288170737000,3.05373681640625,0.3203222155570984,-0.6941714882850647,-0.044898562133312225
1772721288189334300,3.072334228515625,0.32276567816734314,-0.6801216006278992,-0.14721840620040894
1772721288207931600,3.090931640625,0.27542364597320557,-0.5270999670028687,-0.2052505612373352
1772721288226529000,3.109529052734375,0.17432554066181183,-0.23663374781608582,-0.24465134739875793
1772721288245126400,3.12812646484375,0.10957387089729309,0.034895651042461395,-0.2562577724456787
1772721288263723800,3.146723876953125,0.10590868443250656,0.10697769373655319,-0.3549124300479889
1772721288282321200,3.165321044921875,0.13370302319526672,0.07429642975330353,-0.537255585193634
1772721288300918800,3.183918701171875,0.114460788667202,0.09567669779062271,-0.6417134404182434
1772721288319516200,3.20251611328125,0.04818195849657059,0.1836412250995636,-0.5302306413650513
1772721288338113500,3.221113525390625,-0.024205517023801804,0.13874267041683197,-0.26878049969673157
1772721288356711000,3.2397109375,-0.08681915700435638,-0.11659881472587585,-0.060781046748161316
1772721288375308300,3.258308349609375,-0.16500984132289886,-0.20364704728126526,0.05192350596189499
1772721288393905700,3.27690576171875,-0.2144898921251297,-0.21311545372009277,0.06872228533029556
1772721288412503000,3.2955029296875,-0.20807582139968872,-0.36247187852859497,-0.051618073135614395
1772721288431100700,3.3141005859375,-0.12835796177387238,-0.4012618064880371,-0.20433427393436432
1772721288449698000,3.332697998046875,-0.061162836849689484,-0.44096800684928894,-0.35246896743774414
1772721288468295400,3.35129541015625,-0.0709366723895073,-0.36949682235717773,-0.41263917088508606
1772721288486892800,3.369892822265625,-0.06268999725580215,-0.21555891633033752,-0.2922987937927246
1772721288505490200,3.388490234375,-0.00007635809743078426,-0.18379394710063934,-0.12644900381565094
1772721288524087600,3.407087646484375,0.03107774630188942,-0.1608865112066269,0.023212861269712448
1772721288542685000,3.425684814453125,0.03321577236056328,-0.09674570709466934,0.19120067358016968
1772721288561282300,3.4442822265625,0.0371863916516304,-0.12331832945346832,0.2678641974925995
1772721288579879700,3.462879638671875,0.06864593178033829,-0.12698352336883545,0.2669478952884674
1772721288598477000,3.48147705078125,0.11629338562488556,-0.17737986147403717,0.24740023910999298
1772721288617074400,3.500074462890625,0.16332997381687164,-0.23938263952732086,0.24709481000900269
1772721288635671800,3.518671875,0.20792309939861298,-0.22288928925991058,0.2107483446598053
1772721288654269200,3.537269287109375,0.23968806862831116,-0.23021966218948364,0.14660754799842834
1772721288672866600,3.555866455078125,0.30199626088142395,-0.22808164358139038,0.10598503798246384
1772721288691464000,3.5744638671875,0.34231334924697876,-0.3197113573551178,0.0668896958231926
1772721288710061300,3.593061279296875,0.32184937596321106,-0.170965775847435,0.009162971749901772
1772721288728658700,3.61165869140625,0.25007277727127075,0.06146826967597008,0.023518294095993042
1772721288747256000,3.630256103515625,0.16394083201885223,0.19127702713012695,0.15638138353824615
1772721288765853400,3.648853515625,0.12240202724933624,0.3155880272388458,0.31154105067253113
1772721288784450800,3.667450927734375,0.07872519642114639,0.25816673040390015,0.3811796307563782
1772721288803048200,3.686048095703125,0.0243582334369421,0.12988512217998505,0.34697118401527405
1772721288821645600,3.7046455078125,0.01672242395579815,0.021456625312566757,0.258395791053772
1772721288840243000,3.723242919921875,0.021609341725707054,0.005574141163378954,0.1844811588525772
1772721288858840300,3.74184033203125,0.01611155830323696,0.03061959706246853,0.10354158282279968
1772721288877437700,3.760437744140625,0.004505127668380737,-0.04024071618914604,-0.004886918235570192
1772721288896035000,3.77903515625,-0.013209951110184193,-0.07872519642114639,-0.023518294095993042
1772721288914632400,3.797632568359375,-0.033979352563619614,-0.018555017188191414,0.013744457624852657
1772721288933229800,3.816229736328125,-0.022678354755043983,0.01259908638894558,0.024434590712189674
1772721288951827200,3.8348271484375,-0.004352411720901728,0.01870773360133171,-0.013744457624852657
1772721288970424600,3.853424560546875,-0.003741546766832471,-0.009086613543331623,-0.09682206809520721
1772721288989021700,3.872021728515625,-0.01870773360133171,-0.06345357745885849,-0.1750127524137497
1772721289007619000,3.890619140625,-0.008933897130191326,-0.072921983897686,-0.16615521907806396
1772721289026216700,3.909216796875,-0.00038179047987796366,-0.00603228947147727,-0.08429934084415436
1772721289044813800,3.927813720703125,-0.014431680552661419,0.015347977168858051,0.043371398001909256
1772721289063411200,3.9464111328125,-0.0397825688123703,0.03306305781006813,0.09957095980644226
1772721289082008600,3.965008544921875,-0.04222602769732475,0.04344775900244713,0.09315688163042068
1772721289100606000,3.98360595703125,-0.037033677101135254,0.04222602769732475,0.05070177838206291
1772721289119203300,4.002203369140625,-0.04833467677235603,0.10942115634679794,0.02718348242342472
1772721289137800700,4.02080078125,-0.03611737862229347,0.22640176117420197,0.07086031138896942
1772721289156398000,4.039398193359375,-0.05230529606342316,0.19249875843524933,0.03787361457943916
1772721289174995500,4.057995361328125,-0.037033677101135254,0.12988512217998505,0.001832594396546483
1772721289193592600,4.076592529296875,-0.028787001967430115,0.07521272450685501,-0.01588248461484909
1772721289212190000,4.09518994140625,-0.019013166427612305,0.08651372790336609,-0.008246674202382565
1772721289230787300,4.113787353515625,0.0005345066892914474,0.09231694042682648,0
1772721289249384700,4.132384765625,0.017333287745714188,0.07399099320173264,0.023823726922273636
1772721289267982000,4.150982177734375,0.03779725730419159,0.05627591907978058,0.08399390429258347
1772721289286579500,4.169579345703125,0.03565923124551773,0.0025198173243552446,0.10048725455999374
1772721289305176600,4.188176513671875,0.000839939049910754,-0.025579962879419327,0.0409279391169548
1772721289323774000,4.20677392578125,0.0035888305865228176,-0.05581776797771454,-0.04978547990322113
1772721289342371300,4.225371337890625,0.0057268571108579636,-0.06895136088132858,-0.08002328872680664
1772721289360968700,4.24396875,0.021609341725707054,-0.07994692772626877,-0.04764745384454727
1772721289379566000,4.262566162109375,0.021609341725707054,-0.06467530876398087,0.02932151034474373
1772721289398163500,4.28116357421875,0.028634287416934967,-0.06620246917009354,0.046425722539424896
1772721289416760600,4.299760498046875,0.05123628303408623,-0.13370302319526672,-0.013133592903614044
1772721289435358000,4.31835791015625,0.007864884100854397,-0.17157664895057678,-0.0922405794262886
1772721289453955300,4.336955322265625,-0.024816380813717842,-0.16668972373008728,-0.05711585655808449
1772721289472552700,4.355552734375,-0.024510949850082397,-0.13339759409427643,0.010079269297420979
1772721289491149800,4.37414990234375,-0.024816380813717842,-0.09918916970491409,0.008246674202382565
1772721289509747200,4.392747314453125,0.01030834298580885,-0.026190826669335365,-0.029932374134659767
1772721289528344600,4.411344482421875,0.02741255611181259,0.05688678100705147,-0.04550942778587341
1772721289546942000,4.42994189453125,0.03535379841923714,0.06727148592472076,-0.05894844979047775
1772721289565539000,4.4485390625,0.0295505840331316,0.004046979360282421,-0.06780599057674408
1772721289584136400,4.467136474609375,-0.029397867619991302,0.06788235157728195,-0.006108647678047419
1772721289602733800,4.48573388671875,-0.07246383279561996,0.08865175396203995,0.038789913058280945
1772721289621331000,4.5043310546875,-0.07643445581197739,0.07154753804206848,0.014049889519810677
1772721289639928600,4.522928466796875,-0.07460185885429382,0.07368556410074234,-0.0409279391169548
1772721289658525700,4.541525634765625,-0.07704532146453857,0.053832460194826126,-0.07086031138896942
1772721289677123000,4.560123046875,-0.07307469844818115,0.07002037763595581,-0.0021380267571657896
1772721289695720400,4.578720458984375,-0.03917170315980911,0.07368556410074234,0.06780599057674408
1772721289714317600,4.597317626953125,-0.03000873140990734,0.019624030217528343,0.03390299528837204
1772721289732915000,4.6159150390625,-0.015958841890096664,-0.046654798090457916,-0.028099779039621353
1772721289751512300,4.63451220703125,-0.010766491293907166,-0.08055779337882996,-0.04001164436340332
1772721289770109400,4.653109375,0.012446369975805283,-0.1092684343457222,-0.03237583488225937
1772721289788706800,4.671706787109375,0.02802342176437378,-0.1407279670238495,-0.010384701192378998
1772721289807304200,4.69030419921875,0.022525638341903687,-0.16149736940860748,0.029626941308379173
1772721289825901300,4.7089013671875,0.009392046369612217,-0.1556941568851471,0.051618073135614395
1772721289844498700,4.727498779296875,0.004810560029000044,-0.093691386282444,0.04886918142437935
1772721289863096000,4.746095947265625,-0.012904518283903599,-0.13706278800964355,0.005192350596189499
1772721289881693200,4.764693115234375,-0.05352702736854553,-0.09094249457120895,-0.04153880476951599
1772721289900290600,4.78329052734375,-0.07979421317577362,-0.049709122627973557,0.006719512399286032
1772721289918888000,4.801887939453125,-0.049861837178468704,0.014737112447619438,0.026878049597144127
1772721289937485000,4.820485107421875,-0.00679587060585618,0.11033745110034943,-0.011911863461136818
1772721289956082400,4.83908251953125,0.028328854590654373,0.08834631741046906,-0.035124726593494415
1772721289974679800,4.8576796875,0.034437503665685654,0.08529199659824371,-0.029016077518463135
1772721289993277000,4.87627685546875,0.045738499611616135,0.06299543380737305,0.009162971749901772
1772721290011874300,4.894874267578125,0.0423787422478199,0.008933897130191326,0.03176496922969818
1772721290030471400,4.913471435546875,0.043600473552942276,-0.021609341725707054,0.03390299528837204
1772721290049068800,4.93206884765625,0.05673406645655632,-0.008170315995812416,0.0256563201546669
1772721290067666200,4.950666259765625,0.04940368980169296,-0.017944153398275375,-0.0027488914784044027
1772721290086263300,4.96926318359375,0.0322994738817215,-0.008781181648373604,-0.001832594396546483
1772721290104860700,4.987860595703125,0.02283107116818428,0.006185005884617567,0.006414080038666725
1772721290123457800,5.006457763671875,0.013668099418282509,0.006490438245236874,-0.012217295356094837
1772721290142055200,5.02505517578125,-0.0009926552884280682,-0.03107774630188942,-0.020769402384757996
1772721290160652300,5.04365234375,-0.007101302966475487,-0.025579962879419327,0.02412915788590908
1772721290179249700,5.062249755859375,0.010919207707047462,0.00679587060585618,0.024434590712189674
1772721290197846800,5.0808466796875,0.01824958436191082,0.016875140368938446,-0.03298669680953026
1772721290216444200,5.099444091796875,0.007864884100854397,0.007406735327094793,-0.057726722210645676
1772721290235041300,5.118041259765625,0.010919207707047462,0.024510949850082397,-0.06230820715427399
1772721290253638700,5.136638671875,0.021609341725707054,0.02695440873503685,-0.0870482325553894
1772721290272236000,5.155236083984375,0.01824958436191082,0.05047270283102989,-0.1438586562871933
1772721290290833200,5.173833251953125,0.05520690605044365,-0.03840812295675278,-0.09376774728298187
1772721290309430500,5.192430419921875,0.07994692772626877,0.031230462715029716,-0.05070177838206291
1772721290328027600,5.211027587890625,0.12667807936668396,0.04558578506112099,-0.041844237595796585
1772721290346625000,5.229625,0.13920080661773682,0.026343543082475662,0.015577051788568497
1772721290365222100,5.24822216796875,0.10987929999828339,0.10056361556053162,0.06750056147575378
1772721290383819500,5.266819580078125,0.1297324001789093,0.12774710357189178,0.02932151034474373
1772721290402416600,5.285416748046875,0.129426971077919,0.08895718306303024,-0.047952886670827866
1772721290421013800,5.304013671875,0.10590868443250656,0.10575596243143082,-0.015271619893610477
1772721290439611100,5.322611083984375,0.0683404952287674,0.10453423857688904,0.01588248461484909
1772721290458208300,5.341208251953125,0.0322994738817215,0.09231694042682648,0.010690134018659592
1772721290476805600,5.3598056640625,0.002672533504664898,0.06146826967597008,-0.001832594396546483
1772721290495402800,5.37840283203125,-0.020540328696370125,0.03520108386874199,0.009773836471140385
1772721290514000100,5.397000244140625,-0.022067490965127945,0.05322159454226494,0.032070402055978775
1772721290532597200,5.41559716796875,-0.018096869811415672,0.09262236952781677,0.026878049597144127
1772721290551194600,5.434194580078125,-0.03764454275369644,0.09323323518037796,0.006108647678047419
1772721290569791700,5.452791748046875,-0.06421715766191483,0.07429642975330353,0.0009162971982732415
1772721290588389000,5.47138916015625,-0.08009964227676392,0.05413788929581642,-0.0030543238390237093
1772721290606986200,5.489986328125,-0.07979421317577362,0.029397867619991302,0.004886918235570192
1772721290625583400,5.508583251953125,-0.08345939964056015,0.015347977168858051,0.010384701192378998
1772721290644180700,5.5271806640625,-0.08804088830947876,0.053832460194826126,0.02260199747979641
1772721290662777900,5.54577783203125,-0.07887791097164154,0.10575596243143082,-0.0021380267571657896
1772721290681375200,5.564375244140625,-0.08345939964056015,0.12072215229272842,-0.053145237267017365
1772721290699972400,5.582972412109375,-0.08712458610534668,0.09170607477426529,-0.0818558782339096
1772721290718569700,5.60156982421875,-0.07338013499975204,0.03886627033352852,-0.07757982611656189
1772721290737166800,5.620166748046875,-0.06604975461959839,0.04405862092971802,0.01893680728971958
1772721290755764000,5.638763916015625,-0.04864010959863663,0.06268999725580215,0.032681263983249664
1772721290774361300,5.657361328125,-0.028787001967430115,0.06940951198339462,-0.011300998739898205
1772721290792958500,5.67595849609375,-0.0031306820455938578,0.07002037763595581,-0.02107483521103859
1772721290811555600,5.6945556640625,0.016416991129517555,0.059024810791015625,-0.010384701192378998
1772721290830153000,5.713153076171875,0.033826638013124466,0.013209951110184193,0
1772721290848750000,5.73175,0.0527634471654892,-0.013668099418282509,0.013439024798572063
1772721290867347200,5.75034716796875,0.06925679743289948,-0.015806125476956367,0.013439024798572063
1772721290885944600,5.768944580078125,0.06986765563488007,-0.004505127668380737,0.001832594396546483
1772721290904541700,5.787541748046875,0.057039499282836914,-0.006337722297757864,0.012522728182375431
1772721290923139000,5.80613916015625,0.0475710928440094,-0.009086613543331623,0.036651886999607086
1772721290941736200,5.824736083984375,0.03810269013047218,-0.01183550525456667,0.035124726593494415
1772721290960333300,5.843333251953125,0.03260490670800209,-0.006337722297757864,0.021685699000954628
1772721290978930400,5.861930419921875,0.015195261687040329,0.01718057133257389,0.006108647678047419
1772721290997527800,5.88052783203125,-0.0058795735239982605,0.005268708802759647,-0.003359756199643016
1772721291016125000,5.899125,-0.00923932995647192,0.002825249684974551,0.01435532234609127
1772721291034722000,5.91772216796875,0.011224640533328056,0.0006872228696011007,-0.008857538923621178
1772721291053319400,5.9363193359375,0.022525638341903687,0.0345902182161808,-0.018631376326084137
1772721291071916500,5.95491650390625,0.0322994738817215,0.06482802331447601,-0.05345066636800766
1772721291090513700,5.973513671875,0.06436987966299057,0.07887791097164154,-0.08826996386051178
1772721291109110800,5.99211083984375,0.07597630470991135,0.07765618711709976,-0.06230820715427399
1772721291127708200,6.010708251953125,0.09521854668855667,0.06910407543182373,-0.02626718580722809
1772721291146305300,6.02930517578125,0.10499238222837448,0.052916161715984344,0.020158538594841957
1772721291164902400,6.04790234375,0.09674570709466934,0.04864010959863663,0.043982263654470444
1772721291183499500,6.06649951171875,0.06528617441654205,0.04558578506112099,0.035124726593494415
1772721291202097000,6.085096923828125,0.05520690605044365,0.04833467677235603,0.008246674202382565
1772721291220694000,6.103694091796875,0.0295505840331316,0.00954476185142994,-0.03481929376721382
1772721291239291100,6.122291015625,0.018555017188191414,-0.04451677203178406,-0.06414080411195755
1772721291257888300,6.14088818359375,0.017944153398275375,-0.04512763395905495,-0.02718348242342472
1772721291276485600,6.159485595703125,0.0066431546583771706,-0.03627009689807892,0.011911863461136818
1772721291295082800,6.178082763671875,-0.013515383005142212,-0.040546149015426636,0.01282816007733345
1772721291313680000,6.196679931640625,-0.02328922040760517,-0.0295505840331316,0.01740964688360691
1772721291332277000,6.215277099609375,-0.00679587060585618,-0.01977674663066864,-0.000305432389723137
1772721291350874000,6.2338740234375,-0.005574141163378954,-0.01183550525456667,-0.023212861269712448
1772721291369471500,6.252471435546875,-0.014431680552661419,0.043753188103437424,0.007941242307424545
1772721291388068600,6.271068603515625,-0.043753188103437424,0.06849320977926254,0.017715077847242355
1772721291406665700,6.289665771484375,-0.039477135986089706,0.11522436887025833,0.031154103577136993
1772721291425262800,6.308262939453125,-0.022983787581324577,0.15401428937911987,0.02932151034474373
1772721291443860200,6.326860107421875,-0.008628465235233307,0.1726456582546234,0.006108647678047419
1772721291462457300,6.345457275390625,0.0011453714687377214,0.16745330393314362,-0.008552107028663158
1772721291481054500,6.364054443359375,0.013973532244563103,0.16378812491893768,-0.0030543238390237093
1772721291499651600,6.382651611328125,0.009392046369612217,0.13416117429733276,0.00946840364485979
1772721291518248700,6.401248779296875,0.00511599238961935,0.116751529276371,0.01588248461484909
1772721291536845800,6.419845703125,-0.013209951110184193,0.06268999725580215,0.000305432389723137
1772721291555443000,6.43844287109375,-0.015042545273900032,0.06330086290836334,0.02871064469218254
1772721291574040300,6.457040283203125,-0.008017600513994694,0.055970486253499985,0.007330377586185932
1772721291592637400,6.475637451171875,-0.015958841890096664,0.04192059487104416,-0.01588248461484909
1772721291611234600,6.494234619140625,-0.022983787581324577,0.04039343446493149,0.01282816007733345
1772721291629831700,6.512831787109375,-0.03275762498378754,0.02848157100379467,0.03145953640341759
1772721291648428800,6.5314287109375,-0.03733910992741585,0.02176205813884735,0.026572618633508682
1772721291667026000,6.55002587890625,-0.05780307948589325,0.041615162044763565,0.03237583488225937
1772721291685623000,6.568623046875,-0.06849320977926254,0.029397867619991302,0.026878049597144127
1772721291704220200,6.58722021484375,-0.07002037763595581,-0.01000291109085083,0.02779434807598591
1772721291722817500,6.605817626953125,-0.08223766833543777,-0.062537282705307,0.0204639695584774
1772721291741414400,6.624414306640625,-0.07857248187065125,-0.04482220485806465,0.06017018109560013
1772721291760011800,6.64301171875,-0.06940951198339462,-0.042073313146829605,0.0409279391169548
1772721291778609000,6.66160888671875,-0.06330086290836334,-0.05215258151292801,0.018631376326084137
1772721291797206000,6.6802060546875,-0.06879864633083344,-0.10499238222837448,-0.013744457624852657
1772721291815803100,6.69880322265625,-0.059024810791015625,-0.08727730810642242,0.035735588520765305
1772721291834400300,6.717400146484375,-0.05352702736854553,-0.07383827865123749,0.04978547990322113
1772721291852997400,6.735997314453125,-0.04069886729121208,-0.042073313146829605,0.03817904740571976
1772721291871594500,6.754594482421875,-0.022983787581324577,-0.00847574882209301,-0.001832594396546483
1772721291890191600,6.773191650390625,-0.019624030217528343,0.004657844081521034,-0.025045456364750862
1772721291908788700,6.791788818359375,-0.01779143698513508,0.0025198173243552446,-0.0027488914784044027
1772721291927385900,6.8103857421875,-0.028787001967430115,-0.003894262947142124,0.01893680728971958
1772721291945983000,6.82898291015625,-0.03611737862229347,-0.010613775812089443,0.011606430634856224
1772721291964580000,6.847580078125,-0.03733910992741585,-0.01000291109085083,0.013439024798572063
1772721291983177200,6.86617724609375,-0.04436405375599861,-0.008781181648373604,0.025045456364750862
1772721292001774300,6.8847744140625,-0.0397825688123703,-0.013668099418282509,0.023212861269712448
1772721292020371700,6.903371826171875,-0.02328922040760517,-0.026190826669335365,0.016187917441129684
1772721292038968600,6.921968505859375,-0.024510949850082397,-0.050319984555244446,0.015271619893610477
1772721292057565700,6.940565673828125,-0.027870705351233482,-0.05429060757160187,0.024434590712189674
1772721292076163000,6.9591630859375,-0.03061959706246853,-0.039018988609313965,0.01740964688360691
1772721292094760000,6.977760009765625,-0.05658135190606117,-0.036880962550640106,0.013133592903614044
1772721292113357000,6.996357177734375,-0.08376483619213104,-0.02649625949561596,0.02871064469218254
1772721292131954200,7.0149541015625,-0.10361793637275696,-0.02741255611181259,0.01954767294228077
1772721292150551300,7.03355126953125,-0.11247547715902328,-0.03413207083940506,0.001832594396546483
1772721292169148400,7.0521484375,-0.10514509677886963,-0.03535379841923714,-0.001832594396546483
1772721292187745500,7.07074560546875,-0.08834631741046906,-0.04451677203178406,-0.003665188793092966
1772721292206342700,7.0893427734375,-0.06330086290836334,-0.05734493210911751,-0.002443459117785096
1772721292224939800,7.107939697265625,-0.02695440873503685,-0.07200568914413452,-0.0030543238390237093
1772721292243537000,7.126536865234375,0.021609341725707054,-0.07597630470991135,0.010384701192378998
1772721292262134000,7.145134033203125,0.05734493210911751,-0.06223184987902641,0.006719512399286032
1772721292280731100,7.163731201171875,0.07567087560892105,-0.04512763395905495,-0.011606430634856224
1772721292299328300,7.182328369140625,0.08239039033651352,-0.030466880649328232,-0.002443459117785096
1772721292317925400,7.20092529296875,0.083306685090065,-0.04543306678533554,-0.004276053514331579
1772721292336522500,7.2195224609375,0.062537282705307,-0.0295505840331316,0.02718348242342472
1772721292355119600,7.23811962890625,0.04329504072666168,0.00007635809743078426,0.025350889191031456
1772721292373716700,7.256716796875,0.03535379841923714,0.018402300775051117,-0.021685699000954628
1772721292392313900,7.27531396484375,0.030466880649328232,0.0397825688123703,-0.02932151034474373
1772721292410911000,7.293910888671875,0.025579962879419327,0.03428478538990021,-0.01802051067352295
1772721292429507800,7.3125078125,0.03260490670800209,0.0345902182161808,-0.006719512399286032
1772721292448105000,7.33110498046875,0.0423787422478199,0.04192059487104416,-0.01282816007733345
1772721292466702300,7.349702392578125,0.047265663743019104,0.05933023989200592,-0.04764745384454727
1772721292485299200,7.36829931640625,0.0628427118062973,0.05627591907978058,-0.02779434807598591
1772721292503896300,7.386896240234375,0.04848739132285118,0.06268999725580215,-0.0204639695584774
1772721292522493400,7.405493408203125,0.04085158184170723,0.05108356848359108,-0.010384701192378998
1772721292541090600,7.424090576171875,0.028634287416934967,0.018096869811415672,0.000610864779446274
1772721292559687700,7.442687744140625,0.0066431546583771706,-0.023441936820745468,0.01649334840476513
1772721292578284800,7.461284912109375,-0.0019089524867013097,-0.007254019379615784,0.032070402055978775
1772721292596882000,7.4798818359375,-0.002825249684974551,0.024816380813717842,0.002443459117785096
1772721292615478800,7.498478759765625,0.002672533504664898,0.025732679292559624,-0.017715077847242355
1772721292634076000,7.517075927734375,0.006948587018996477,0.00007635809743078426,0.001832594396546483
1772721292652673000,7.535673095703125,0.0017562361899763346,-0.01611155830323696,0.02871064469218254
1772721292671270100,7.554270263671875,0.005421424750238657,-0.025579962879419327,0.0308486707508564
1772721292689867300,7.5728671875,0.004199695307761431,-0.02496909722685814,0.0256563201546669
1772721292708464400,7.59146435546875,0.004505127668380737,-0.012446369975805283,0.0360410213470459
1772721292727061500,7.6100615234375,-0.0009926552884280682,0.018402300775051117,0.04214967042207718
1772721292745658400,7.628658447265625,-0.002825249684974551,0.043753188103437424,0.0360410213470459
1772721292764255500,7.64725537109375,-0.0006872228696011007,0.0550541877746582,0.02779434807598591
1772721292782852600,7.6658525390625,0.016416991129517555,0.07460185885429382,0.029626941308379173
1772721292801449700,7.68444970703125,0.03321577236056328,0.07857248187065125,0.02718348242342472
1772721292820046600,7.703046630859375,0.0322994738817215,0.08407026529312134,0.02871064469218254
1772721292838643700,7.721643798828125,0.033826638013124466,0.08315397053956985,0.022296564653515816
1772721292857240800,7.74024072265625,0.032910339534282684,0.08498656004667282,0.01282816007733345
1772721292875838000,7.758837890625,0.0191658828407526,0.08193223923444748,0.007024944759905338
1772721292894435000,7.77743505859375,0.003283398225903511,0.0758235901594162,0.01740964688360691
1772721292913032000,7.796031982421875,0.0066431546583771706,0.07704532146453857,0.014049889519810677
1772721292931629000,7.814629150390625,0.011530072428286076,0.07704532146453857,0.008552107028663158
1772721292950226200,7.83322607421875,0.01030834298580885,0.09384410083293915,0.013439024798572063
1772721292968823300,7.8518232421875,0.02283107116818428,0.11033745110034943,0.002443459117785096
1772721292987420400,7.87042041015625,0.04604393243789673,0.1011744812130928,-0.01649334840476513
1772721293006017300,7.889017333984375,0.05673406645655632,0.04039343446493149,-0.012217295356094837
1772721293024614400,7.907614501953125,0.057039499282836914,-0.05520690605044365,0.009773836471140385
1772721293043211500,7.92621142578125,0.04298960790038109,-0.09308052062988281,0.0565049909055233
1772721293061808600,7.94480859375,0.018555017188191414,-0.09185878932476044,0.046425722539424896
1772721293080405500,7.963405517578125,-0.007101302966475487,-0.0884990319609642,0.02107483521103859
1772721293099002600,7.982002685546875,-0.01718057133257389,-0.07047852128744125,0.009162971749901772
1772721293117599700,8.000599853515626,-0.030314164236187935,-0.08727730810642242,0.0021380267571657896
1772721293136196600,8.019196533203125,-0.0397825688123703,-0.09185878932476044,0.021380268037319183
1772721293154793700,8.037793701171875,-0.029397867619991302,-0.08788817375898361,0.05253437161445618
1772721293173390800,8.056390869140625,-0.020540328696370125,-0.06406444311141968,0.047952886670827866
1772721293191988000,8.074988037109375,-0.011988221667706966,-0.057955797761678696,0
1772721293210584800,8.093584716796874,0.012751801870763302,-0.03413207083940506,-0.03298669680953026
1772721293229182000,8.112181884765626,0.029245151206851006,-0.01611155830323696,-0.025045456364750862
1772721293247779000,8.130779052734376,0.03352120518684387,0.01565340906381607,-0.000305432389723137
1772721293266376200,8.149376220703125,0.03657552972435951,0.06604975461959839,-0.017715077847242355
1772721293284973000,8.16797314453125,0.03810269013047218,0.10300707072019577,-0.048563748598098755
1772721293303570200,8.186570068359375,0.0295505840331316,0.1011744812130928,-0.05711585655808449
1772721293322167000,8.2051669921875,0.014278964139521122,0.08926261961460114,-0.03237583488225937
1772721293340764200,8.22376416015625,-0.0022143847309052944,0.08804088830947876,-0.013439024798572063
1772721293359361300,8.242361328125,-0.01259908638894558,0.08284853398799896,-0.026878049597144127
1772721293377958100,8.260958251953125,-0.024510949850082397,0.0755181610584259,-0.039706211537122726
1772721293396555300,8.27955517578125,-0.03825540840625763,0.05199986323714256,-0.037262752652168274
1772721293415152400,8.29815234375,-0.051389001309871674,0.019929463043808937,-0.019853105768561363
1772721293433749500,8.31674951171875,-0.06330086290836334,-0.0243582334369421,-0.002443459117785096
1772721293452346400,8.335346435546874,-0.06177370250225067,-0.04482220485806465,0.012217295356094837
1772721293470943500,8.353943603515624,-0.04864010959863663,-0.0371863916516304,0.0021380267571657896
1772721293489540400,8.372540283203126,-0.04711294546723366,-0.020693045109510422,-0.02107483521103859
1772721293508137500,8.391137451171875,-0.03917170315980911,-0.003283398225903511,-0.039706211537122726
1772721293526734600,8.409734619140625,-0.01779143698513508,0.005268708802759647,-0.05589412897825241
1772721293545331500,8.42833154296875,0.00022907429956831038,0.012293653562664986,-0.028099779039621353
1772721293563928600,8.446928466796875,0.001450803829357028,0.0019089524867013097,-0.006414080038666725
1772721293582525400,8.465525390625,0.0017562361899763346,0.011682788841426373,-0.0027488914784044027
1772721293601122600,8.48412255859375,0.004505127668380737,0.025121813639998436,-0.01802051067352295
1772721293619719700,8.5027197265625,0.004810560029000044,0.038560837507247925,-0.013439024798572063
1772721293638316500,8.521316650390625,-0.0012980876490473747,0.0345902182161808,-0.006719512399286032
1772721293656913700,8.53991357421875,-0.006185005884617567,0.04436405375599861,-0.018325943499803543
1772721293675510500,8.558510498046875,-0.0009926552884280682,0.04589121788740158,-0.01893680728971958
1772721293694107600,8.577107666015625,-0.004046979360282421,0.026343543082475662,-0.023518294095993042
1772721293712704800,8.595704833984374,0.002672533504664898,0.01870773360133171,-0.04673115536570549
1772721293731301600,8.614301513671874,0.02649625949561596,-0.012446369975805283,-0.061391908675432205
1772721293749898800,8.632898681640626,0.040546149015426636,-0.03871355578303337,-0.08124501258134842
1772721293768495600,8.65149560546875,0.03962985426187515,-0.04146244749426842,-0.07269290834665298
1772721293787092700,8.6700927734375,0.03535379841923714,-0.06742420047521591,-0.02107483521103859
1772721293805689600,8.688689697265625,0.0322994738817215,-0.06620246917009354,0.01435532234609127
1772721293824286700,8.70728662109375,-0.0022143847309052944,-0.055512335151433945,0.025961752980947495
1772721293842883800,8.7258837890625,-0.006185005884617567,-0.01183550525456667,0.027488915249705315
1772721293861480700,8.744480712890624,0.013057234697043896,0.015958841890096664,0.012522728182375431
1772721293880077800,8.763077880859376,-0.0006872228696011007,0.02237292192876339,0.0030543238390237093
1772721293898674700,8.7816748046875,-0.0009926552884280682,0.02237292192876339,-0.0030543238390237093
1772721293917271800,8.800271728515625,-0.008017600513994694,-0.00755945174023509,0.014049889519810677
1772721293935868700,8.81886865234375,-0.031230462715029716,-0.008781181648373604,0.046425722539424896
1772721293954465800,8.8374658203125,-0.04283689334988594,-0.0023671009112149477,0.027488915249705315
1772721293973062700,8.856062744140624,-0.055970486253499985,0.010766491293907166,0.014660755172371864
1772721293991659800,8.87465966796875,-0.07276926934719086,0.02328922040760517,0.035124726593494415
1772721294010256600,8.893256591796876,-0.07704532146453857,0.04711294546723366,0.04214967042207718
1772721294028853800,8.911853759765625,-0.06482802331447601,0.07185296714305878,0.01893680728971958
1772721294047450600,8.93045068359375,-0.070631243288517,0.07215840369462967,-0.006719512399286032
1772721294066047700,8.9490478515625,-0.0758235901594162,0.019929463043808937,-0.004886918235570192
1772721294084644600,8.96764453125,-0.06849320977926254,-0.01611155830323696,0.0204639695584774
1772721294103241700,8.98624169921875,-0.05688678100705147,-0.05001455545425415,0.022907428443431854
1772721294121838600,9.004838623046876,-0.061162836849689484,-0.05123628303408623,0.017104214057326317
1772721294140435700,9.023435791015626,-0.07673988491296768,-0.04909825697541237,0.0256563201546669
1772721294159032600,9.042032470703125,-0.07399099320173264,-0.05429060757160187,0.018631376326084137
1772721294177629700,9.060629638671875,-0.0654388889670372,-0.05826122686266899,0.006108647678047419
1772721294196226600,9.0792265625,-0.06727148592472076,-0.05673406645655632,0.011911863461136818
1772721294214823700,9.09782373046875,-0.07460185885429382,-0.03962985426187515,0.031154103577136993
1772721294233420500,9.116420654296874,-0.0651334598660469,-0.020693045109510422,0.023823726922273636
1772721294252017400,9.135017333984376,-0.05841394513845444,-0.027107125148177147,0.0009162971982732415
1772721294270614500,9.153614501953125,-0.054443322122097015,-0.025274530053138733,0.009773836471140385
1772721294289211400,9.17221142578125,-0.0501672700047493,0.004352411720901728,0.004886918235570192
1772721294307808500,9.19080859375,-0.030314164236187935,0.028176138177514076,-0.01740964688360691
1772721294326405400,9.2094052734375,-0.016569707542657852,0.015958841890096664,-0.032070402055978775
1772721294345002500,9.22800244140625,-0.010461059398949146,0.0077121676877141,-0.011300998739898205
1772721294363599400,9.246599365234376,-0.004657844081521034,-0.018555017188191414,0.004886918235570192
1772721294382196500,9.265196533203126,-0.0077121676877141,-0.01763872057199478,0.008857538923621178
1772721294400793300,9.28379345703125,-0.01718057133257389,-0.003894262947142124,-0.008857538923621178
1772721294419390200,9.30239013671875,-0.01718057133257389,-0.00847574882209301,-0.033597562462091446
1772721294437987300,9.3209873046875,-0.004352411720901728,-0.01824958436191082,-0.026878049597144127
1772721294456584200,9.339584228515625,0.020693045109510422,-0.004199695307761431,-0.011911863461136818
1772721294475181000,9.35818115234375,0.04940368980169296,-0.000839939049910754,-0.024434590712189674
1772721294493778200,9.376778076171876,0.072921983897686,-0.027717988938093185,-0.0461202897131443
1772721294512375000,9.395375,0.09705114364624023,-0.046654798090457916,-0.035124726593494415
1772721294530972200,9.41397216796875,0.10713040828704834,-0.05734493210911751,-0.01802051067352295
1772721294549569000,9.432569091796875,0.12118030339479446,-0.10590868443250656,-0.03787361457943916
1772721294568166000,9.451165771484375,0.07628174126148224,-0.09918916970491409,-0.007635809946805239
1772721294586763000,9.469762939453124,0.006337722297757864,-0.07536543905735016,0.005803215317428112
1772721294605359900,9.48835986328125,-0.015042545273900032,-0.04329504072666168,-0.007024944759905338
1772721294623957000,9.50695703125,-0.0449749194085598,-0.0066431546583771706,-0.01893680728971958
1772721294642553900,9.525553955078125,-0.06452259421348572,0.004963276442140341,-0.031154103577136993
1772721294661150700,9.544150634765625,-0.08040507882833481,-0.0029779658652842045,-0.01649334840476513
1772721294679747800,9.562747802734375,-0.07857248187065125,0.004657844081521034,0.010079269297420979
1772721294698344700,9.5813447265625,-0.0550541877746582,0.02176205813884735,-0.008246674202382565
1772721294716941600,9.599941650390624,-0.03428478538990021,0.025121813639998436,-0.028099779039621353
1772721294735538700,9.61853857421875,-0.024816380813717842,0.00038179047987796366,-0.011300998739898205
1772721294754135600,9.637135498046876,-0.014737112447619438,-0.01030834298580885,0.014660755172371864
1772721294772732400,9.655732421875,-0.0031306820455938578,-0.007864884100854397,-0.0009162971982732415
1772721294791329300,9.674329345703125,-0.002825249684974551,0.0016035200096666813,-0.006414080038666725
1772721294809926400,9.692926513671875,-0.0019089524867013097,0.004963276442140341,0.0054977829568088055
1772721294828523300,9.711523193359374,-0.00679587060585618,-0.0029779658652842045,0.014966187067329884
1772721294847120100,9.7301201171875,-0.022678354755043983,0.011682788841426373,0.02626718580722809
1772721294865717000,9.748717041015626,-0.03733910992741585,0.028176138177514076,0.010384701192378998
1772721294884314000,9.767314208984375,-0.039477135986089706,0.05780307948589325,-0.004276053514331579
1772721294902911000,9.785910888671875,-0.03550651669502258,0.0758235901594162,-0.029016077518463135
1772721294921507800,9.8045078125,-0.03061959706246853,0.06818778067827225,-0.05925388261675835
1772721294940105000,9.82310498046875,-0.019929463043808937,0.04802924394607544,-0.0665842592716217
1772721294958701800,9.841701904296874,-0.007101302966475487,0.04802924394607544,-0.009773836471140385
1772721294977298700,9.860298583984376,-0.004352411720901728,0.05780307948589325,0.02412915788590908
1772721294995895800,9.878895751953126,0.013668099418282509,0.08956804871559143,-0.005192350596189499
1772721295014492700,9.89749267578125,0.023747367784380913,0.10758855938911438,-0.044898562133312225
1772721295033089500,9.916089599609375,0.01977674663066864,0.0907897800207138,-0.0824667438864708
1772721295051686400,9.934686279296875,0.01611155830323696,0.09017891436815262,-0.10354158282279968
1772721295070283500,9.953283447265624,0.02588539570569992,0.06727148592472076,-0.06108647957444191
1772721295088880400,9.97188037109375,0.06956222653388977,0.041615162044763565,-0.02932151034474373
1772721295107477200,9.990477294921876,-0.0006872228696011007,-0.003894262947142124,0.02412915788590908
1772721295126074000,10.00907421875,-0.00007635809743078426,-0.04482220485806465,0.023212861269712448
1772721295144671200,10.027671142578125,0.009697478264570236,-0.0576503649353981,0.004581485874950886
1772721295163268000,10.04626806640625,0.01763872057199478,-0.0475710928440094,0.007330377586185932
1772721295181865000,10.064864990234375,0.024663666263222694,-0.03321577236056328,0.003970621153712273
1772721295200461800,10.0834619140625,0.03504836559295654,-0.05429060757160187,-0.021991131827235222
1772721295219058700,10.10205859375,0.04146244749426842,-0.058566659688949585,-0.006719512399286032
1772721295237655800,10.12065576171875,0.03840812295675278,-0.041157014667987823,0.019853105768561363
1772721295256252700,10.139252685546875,0.027107125148177147,-0.022220205515623093,0.0027488914784044027
1772721295274849500,10.157849609375,0.020082179456949234,0.006185005884617567,-0.02260199747979641
1772721295293446400,10.1764462890625,0.014889828860759735,0.028787001967430115,-0.03787361457943916
1772721295312043300,10.195043212890624,0.0057268571108579636,0.029703300446271896,-0.030543239787220955
1772721295330640400,10.213640380859376,-0.008628465235233307,0.021151192486286163,-0.014966187067329884
1772721295349237200,10.2322373046875,-0.020540328696370125,0.025121813639998436,-0.018631376326084137
1772721295367834000,10.250834228515625,-0.02756527252495289,0.03306305781006813,-0.03390299528837204
1772721295386431000,10.269430908203125,-0.03917170315980911,0.026038112118840218,-0.02932151034474373
1772721295405027800,10.28802783203125,-0.04864010959863663,0.03611737862229347,-0.007941242307424545
1772721295423624700,10.306624755859374,-0.061162836849689484,0.04405862092971802,-0.009162971749901772
1772721295442221800,10.325221923828124,-0.08345939964056015,0.03245219215750694,-0.011300998739898205
1772721295460818700,10.343818603515626,-0.09170607477426529,0.04192059487104416,0.01893680728971958
1772721295479415600,10.36241552734375,-0.07643445581197739,0.07246383279561996,0.01893680728971958
1772721295498012400,10.381012451171875,-0.05871937796473503,0.11125374585390091,-0.014049889519810677
1772721295516609300,10.399609375,-0.0553596206009388,0.11614066362380981,-0.03451386094093323
1772721295535206400,10.418206298828125,-0.05199986323714256,0.08254310488700867,-0.023518294095993042
1772721295553803300,10.43680322265625,-0.051389001309871674,0.040088001638650894,0.010995565913617611
1772721295572400000,10.455400146484376,-0.059635672718286514,0.015042545273900032,0.02626718580722809
1772721295590997000,10.4739970703125,-0.060551971197128296,0.020540328696370125,0.018631376326084137
1772721295609593900,10.49259375,-0.049861837178468704,0.019013166427612305,-0.001221729558892548
1772721295628190700,10.511190673828125,-0.046196650713682175,0.0009926552884280682,-0.004886918235570192
1772721295646787600,10.52978759765625,-0.04222602769732475,-0.014278964139521122,0.008246674202382565
1772721295665384700,10.548384765625,-0.03275762498378754,-0.017027854919433594,0.017104214057326317
1772721295683981600,10.566981689453126,-0.025121813639998436,0.0016035200096666813,0.00946840364485979
1772721295702578400,10.585578369140626,-0.017486004158854485,0.012293653562664986,-0.0009162971982732415
1772721295721175300,10.60417529296875,-0.012293653562664986,0.012293653562664986,0.003665188793092966
1772721295739772200,10.622772216796875,-0.014737112447619438,0.004963276442140341,0.013133592903614044
1772721295758369000,10.641369140625,-0.020540328696370125,0.019929463043808937,0.020158538594841957
1772721295776966000,10.6599658203125,-0.03550651669502258,0.02237292192876339,0.015577051788568497
1772721295795562800,10.678562744140624,-0.04802924394607544,0.025732679292559624,0.018631376326084137
1772721295814159600,10.69715966796875,-0.049861837178468704,0.022983787581324577,0.01954767294228077
1772721295832756500,10.715756591796875,-0.046196650713682175,0.01718057133257389,0.01282816007733345
1772721295851353300,10.734353271484375,-0.05230529606342316,0.020540328696370125,0.017715077847242355
1772721295869950500,10.752950439453125,-0.05627591907978058,0.033368486911058426,0.011300998739898205
1772721295888547300,10.77154736328125,-0.0654388889670372,0.03733910992741585,0.005803215317428112
1772721295907144200,10.790144287109374,-0.06666062027215958,0.03000873140990734,0.019853105768561363
1772721295925741000,10.808740966796876,-0.07490729540586472,0.03550651669502258,0.02412915788590908
1772721295944338000,10.827337890625,-0.07826705276966095,0.05780307948589325,0.003970621153712273
1772721295962934800,10.845934814453125,-0.07368556410074234,0.06788235157728195,-0.01588248461484909
1772721295981531600,10.86453173828125,-0.06268999725580215,0.06085740402340889,-0.010079269297420979
1772721296000128500,10.88312841796875,-0.05810851231217384,0.04130972921848297,0.00946840364485979
1772721296018725400,10.901725341796874,-0.061162836849689484,0.010461059398949146,0.020769402384757996
1772721296037322200,10.920322265625,-0.05261072888970375,-0.010919207707047462,0.020769402384757996
1772721296055919000,10.938919189453125,-0.05871937796473503,-0.02283107116818428,0.004886918235570192
1772721296074516000,10.957515869140625,-0.0654388889670372,-0.006948587018996477,0.011300998739898205
1772721296093112800,10.97611279296875,-0.06604975461959839,-0.011530072428286076,0.006719512399286032
1772721296111709700,10.994709716796875,-0.06085740402340889,-0.016416991129517555,0.021685699000954628
1772721296130306800,11.013306884765624,-0.04711294546723366,-0.014889828860759735,0.025961752980947495
1772721296148903700,11.031903564453126,-0.03672824427485466,-0.016416991129517555,0.0054977829568088055
1772721296167500500,11.05050048828125,-0.026038112118840218,-0.00847574882209301,0.001221729558892548
1772721296186097400,11.069097412109375,-0.024816380813717842,0.00007635809743078426,-0.0027488914784044027
1772721296204694300,11.0876943359375,-0.03428478538990021,0.02909243479371071,-0.01740964688360691
1772721296223291000,11.106290771484375,-0.04528035223484039,0.04864010959863663,-0.0030543238390237093
1772721296241887700,11.1248876953125,-0.030925029888749123,0.027870705351233482,0.0030543238390237093
1772721296260484600,11.143484619140626,-0.031841326504945755,-0.010613775812089443,-0.007635809946805239
1772721296279081500,11.16208154296875,-0.03764454275369644,-0.039018988609313965,-0.027488915249705315
1772721296297678600,11.1806787109375,-0.04528035223484039,0.0031306820455938578,-0.06475166976451874
