time,seconds_elapsed,z,y,x
1772720884508094200,0.08109423828125,0,0,0
1772720884526690300,0.099690185546875,-0.006779670715332031,0.01226060837507248,0.007079698145389557
1772720884545286700,0.11828662109375,-0.012441635131835938,-0.014724023640155792,-0.011561371386051178
1772720884563882800,0.1368828125,0.00461578369140625,0.00031916797161102295,-0.00815204530954361
1772720884582479000,0.15547900390625,0.003856658935546875,0.0025493428111076355,0.001621343195438385
1772720884601075500,0.174075439453125,0.007288932800292969,-0.005161948502063751,-0.004825107753276825
1772720884619671600,0.192671630859375,-0.0007352828979492188,0.011777713894844055,-0.004423610866069794
1772720884638268000,0.211267822265625,0.012843132019042969,-0.0011372044682502747,0.012317806482315063
1772720884656864000,0.229864013671875,0.0001430511474609375,0.012481413781642914,-0.014882110059261322
1772720884675460400,0.24846044921875,0.00466156005859375,0.004579588770866394,0.006135754287242889
1772720884694056700,0.267056640625,-0.0023326873779296875,0.0010273382067680359,0.002162732183933258
1772720884712652800,0.28565283203125,0.007443428039550781,-0.006085418164730072,0.008662991225719452
1772720884731249200,0.304249267578125,0.0005311965942382812,0.014534354209899902,-0.00006583333015441895
1772720884749845200,0.32284521484375,-0.008767127990722656,0.015987038612365723,-0.010457433760166168
1772720884768441600,0.341441650390625,0.006194114685058594,-0.017604567110538483,-0.005364552140235901
1772720884787038000,0.360037841796875,-0.009061813354492188,-0.0022597387433052063,0.0014582499861717224
1772720884805634000,0.378634033203125,0.0034170150756835938,-0.006170056760311127,-0.004123426973819733
1772720884824230400,0.39723046875,0.005410194396972656,0.008727669715881348,0.0010002553462982178
1772720884842826500,0.415826416015625,-0.005196571350097656,0.019591569900512695,0.0022601336240768433
1772720884861422800,0.4344228515625,-0.0033044815063476562,-0.003353804349899292,-0.0028592944145202637
1772720884880019200,0.453019287109375,0.009228706359863281,0.009534567594528198,-0.0060365647077560425
1772720884898615300,0.471615234375,0.00649261474609375,0.01841948926448822,0.009055040776729584
1772720884917211600,0.490211669921875,-0.0007648468017578125,-0.005580157041549683,-0.017342180013656616
1772720884935807700,0.508807861328125,0.006373405456542969,0.005030050873756409,0.004409365355968475
1772720884954404000,0.527404052734375,-0.0008935928344726562,-0.008302770555019379,-0.004049800336360931
1772720884973000400,0.54600048828125,0.009417533874511719,-0.030399363487958908,-0.0005982965230941772
1772720884991596500,0.564596435546875,0.009064674377441406,-0.019480451941490173,0.0075329020619392395
1772720885010193000,0.58319287109375,0.019178390502929688,0.018519863486289978,0.012128368020057678
1772720885028789000,0.6017890625,0.00809478759765625,0.00032839924097061157,0.0024627745151519775
1772720885047385300,0.62038525390625,0.012304306030273438,-0.016148626804351807,-0.0035361945629119873
1772720885065981700,0.638981689453125,0.022466659545898438,-0.010197736322879791,0.008173100650310516
1772720885084577800,0.657577880859375,0.013668060302734375,-0.013624630868434906,-0.0015245601534843445
1772720885103174100,0.676174072265625,0.0215301513671875,-0.015889443457126617,-0.0037173181772232056
1772720885121770200,0.694770263671875,0.009037017822265625,0.029162324965000153,-0.023584403097629547
1772720885140366600,0.71336669921875,0.01799488067626953,-0.010329268872737885,-0.0020822659134864807
1772720885158963000,0.731962890625,0.023283958435058594,0.011098839342594147,0.006162218749523163
1772720885177559000,0.75055908203125,0.028711318969726562,-0.0222950279712677,0.018786191940307617
1772720885196155400,0.7691552734375,0.024511337280273438,-0.005157075822353363,0.006615795195102692
1772720885214751500,0.78775146484375,0.010975837707519531,-0.02779727429151535,0.0019155293703079224
1772720885233347800,0.806347900390625,0.011518478393554688,-0.004034511744976044,-0.015655793249607086
1772720885251944200,0.824944091796875,0.020315170288085938,0.01089370995759964,-0.005820609629154205
1772720885270540300,0.843540283203125,0.02909564971923828,-0.03150203451514244,0.017739929258823395
1772720885289136600,0.86213671875,0.041075706481933594,-0.025848805904388428,0.021654441952705383
1772720885307733000,0.88073291015625,0.01766204833984375,-0.00798124074935913,0.022009916603565216
1772720885326329000,0.8993291015625,0.01323699951171875,-0.003109745681285858,-0.013621561229228973
1772720885344925400,0.917925537109375,0.030233383178710938,0.006379172205924988,-0.001429341733455658
1772720885363521800,0.936521728515625,0.018802642822265625,0.011541716754436493,-0.01905035227537155
1772720885382118000,0.955117919921875,0.027456283569335938,-0.008741676807403564,-0.01152309775352478
1772720885400714200,0.97371435546875,0.03129291534423828,-0.015570089221000671,-0.0007891356945037842
1772720885419310600,0.992310546875,0.03143596649169922,-0.011453002691268921,0.023557022213935852
1772720885437906700,1.01090673828125,0.023557662963867188,0.00048514455556869507,0.009933024644851685
1772720885456503000,1.0295029296875,0.03442668914794922,-0.013703703880310059,-0.01601555198431015
1772720885475099400,1.048099365234375,0.02162456512451172,-0.007771193981170654,-0.004595853388309479
1772720885493695700,1.06669580078125,0.012517929077148438,-0.010188259184360504,0.017680123448371887
1772720885512292000,1.0852919921875,0.03406810760498047,-0.027604416012763977,0.011298976838588715
1772720885530888200,1.10388818359375,0.015336990356445312,0.017310723662376404,0.001482933759689331
1772720885549484500,1.122484619140625,0.02553558349609375,-0.02186775952577591,0.003866344690322876
1772720885568081000,1.141080810546875,0.0271453857421875,0.016616806387901306,-0.0008770674467086792
1772720885586677000,1.159677001953125,0.0297393798828125,-0.008684583008289337,0.008528754115104675
1772720885605273300,1.1782734375,0.01685619354248047,-0.013197988271713257,-0.015306249260902405
1772720885623870000,1.196869873046875,0.030399322509765625,-0.006287179887294769,0.014414817094802856
1772720885642466000,1.215466064453125,0.011769294738769531,-0.012262433767318726,0.001134730875492096
1772720885661062400,1.2340625,0.03259849548339844,0.0042504966259002686,-0.0023497343063354492
1772720885679658800,1.25265869140625,0.012622833251953125,0.0029862523078918457,0.004610881209373474
1772720885698255000,1.271255126953125,0.011110305786132812,-0.004168272018432617,-0.0025700926780700684
1772720885716851500,1.2898515625,0.023566246032714844,-0.004242151975631714,0.0020011812448501587
1772720885735447800,1.30844775390625,0.008946418762207031,-0.01574879139661789,-0.008581839501857758
1772720885754044000,1.3270439453125,0.006279945373535156,-0.00505480170249939,-0.0005612894892692566
1772720885772640300,1.34564013671875,0.01660442352294922,-0.02042774111032486,0.00884167104959488
1772720885791236600,1.364236572265625,0.012526512145996094,-0.00022271275520324707,0.0027210786938667297
1772720885809833000,1.3828330078125,0.014544486999511719,-0.017943575978279114,-0.001007571816444397
1772720885828429300,1.40142919921875,0.023476600646972656,0.0023211687803268433,0.01295480877161026
1772720885847025700,1.420025634765625,0.01250457763671875,-0.03028777986764908,0.018510989844799042
1772720885865622000,1.4386220703125,0.012112617492675781,-0.004960931837558746,0.0025273561477661133
1772720885884218400,1.45721826171875,0.0024976730346679688,0.01818191260099411,-0.020210541784763336
1772720885902814700,1.475814697265625,0.00243377685546875,-0.03997865319252014,-0.010240912437438965
1772720885921411000,1.4944111328125,0.014041900634765625,0.014625079929828644,0.0062933266162872314
1772720885940007400,1.51300732421875,0.001911163330078125,0.003165110945701599,-0.011620491743087769
1772720885958603800,1.531603759765625,-0.0029153823852539062,-0.001746542751789093,-0.011396676301956177
1772720885977200000,1.5502001953125,0.013417243957519531,-0.005368649959564209,0.01955750584602356
1772720885995796500,1.56879638671875,0.009464263916015625,0.0028690993785858154,0.01085229218006134
1772720886014392800,1.587392822265625,0.006977081298828125,-0.008035033941268921,-0.013987720012664795
1772720886032989200,1.6059892578125,-0.006016731262207031,-0.007953181862831116,0.013270556926727295
1772720886051585500,1.62458544921875,-0.003719329833984375,0.0004284679889678955,0.009459443390369415
1772720886070182000,1.643181884765625,0.011305809020996094,-0.01152966171503067,-0.0038645565509796143
1772720886088778500,1.661778564453125,-0.0017919540405273438,0.0062368884682655334,-0.0014033988118171692
1772720886107374800,1.680374755859375,-0.00655364990234375,-0.0011208206415176392,-0.007364548742771149
1772720886125971200,1.69897119140625,-0.0006666183471679688,0.003282807767391205,-0.001234889030456543
1772720886144567600,1.717567626953125,-0.0008192062377929688,0.0029893144965171814,-0.006784185767173767
1772720886163164000,1.736163818359375,-0.0032796859741210938,-0.009037643671035767,0.01091594249010086
1772720886181760300,1.75476025390625,-0.001895904541015625,-0.008923135697841644,0.004636518657207489
1772720886200356600,1.773356689453125,0.0019140243530273438,-0.0006867349147796631,-0.0002820715308189392
1772720886218953000,1.791952880859375,-0.010911941528320312,0.0027917176485061646,-0.00007706135511398315
1772720886237549600,1.810549560546875,-0.013136863708496094,0.008319087326526642,-0.011809207499027252
1772720886256146000,1.82914599609375,-0.00238800048828125,-0.012054294347763062,-0.0009527206420898438
1772720886274742300,1.8477421875,-0.012875556945800781,0.0020085200667381287,0.009436145424842834
1772720886293338600,1.866338623046875,-0.001018524169921875,-0.014547459781169891,-0.009725496172904968
1772720886311935000,1.88493505859375,-0.008060455322265625,0.00804409384727478,-0.00948188453912735
1772720886330531600,1.903531494140625,-0.00681304931640625,-0.0008045360445976257,-0.002247050404548645
1772720886349128000,1.9221279296875,0.005199432373046875,-0.014859691262245178,0.0049410536885261536
1772720886367724300,1.940724365234375,-0.013658523559570312,0.01204013079404831,-0.01304464042186737
1772720886386320600,1.959320556640625,-0.014597892761230469,-0.01078275591135025,-0.003110446035861969
1772720886404917000,1.9779169921875,-0.010820388793945312,-0.0020168498158454895,0.004996687173843384
1772720886423513300,1.996513427734375,-0.005932807922363281,-0.008289352059364319,-0.004370450973510742
1772720886442110000,2.01510986328125,0.005949974060058594,-0.022160246968269348,-0.0034070685505867004
1772720886460706300,2.033706298828125,0.007185935974121094,-0.004191212356090546,0.0071217939257621765
1772720886479302700,2.052302734375,-0.016401290893554688,-0.018499769270420074,0.011549226939678192
1772720886497899000,2.07089892578125,-0.0017786026000976562,0.001991569995880127,-0.010808415710926056
1772720886516495400,2.089495361328125,-0.009975433349609375,0.004969857633113861,-0.010737404227256775
1772720886535092000,2.108092041015625,-0.013233184814453125,-0.02333395928144455,0.0032030344009399414
1772720886553688300,2.126688232421875,-0.01638031005859375,0.019035421311855316,0.0053526610136032104
1772720886572284700,2.14528466796875,-0.01944446563720703,-0.022537708282470703,-0.0031183063983917236
1772720886590881300,2.16388134765625,0.009160041809082031,-0.0008502304553985596,0.01574935019016266
1772720886609477600,2.1824775390625,-0.006161689758300781,-0.011778376996517181,0.000052556395530700684
1772720886628074000,2.201073974609375,-0.012957572937011719,0.0012469813227653503,-0.001291230320930481
1772720886646670300,2.21967041015625,0.000255584716796875,0.0010149702429771423,-0.002627432346343994
1772720886665266700,2.2382666015625,-0.004261016845703125,-0.013539217412471771,-0.0005255565047264099
1772720886683863300,2.25686328125,0.003017425537109375,-0.010753728449344635,-0.0028306618332862854
1772720886702459600,2.275459716796875,-0.0026292800903320312,0.0009718239307403564,-0.014764957129955292
1772720886721056000,2.294055908203125,-0.014047622680664062,-0.011173076927661896,0.005617581307888031
1772720886739652400,2.31265234375,-0.006581306457519531,-0.013664968311786652,-0.003963388502597809
1772720886758249000,2.3312490234375,-0.0190887451171875,-0.008922584354877472,-0.009699024260044098
1772720886776845300,2.34984521484375,-0.009159088134765625,0.00046365708112716675,-0.0012362003326416016
1772720886795441700,2.368441650390625,-0.014774322509765625,-0.00911802053451538,0.004832729697227478
1772720886814038300,2.387038330078125,-0.01197052001953125,-0.019496649503707886,0.00237969309091568
1772720886832634600,2.405634521484375,-0.009044647216796875,0.0019688978791236877,0.002436138689517975
1772720886851231000,2.42423095703125,-0.011097908020019531,-0.008831165730953217,0.011822395026683807
1772720886869827300,2.442827392578125,-0.02019786834716797,0.02187901735305786,-0.006924673914909363
1772720886888424000,2.461423828125,-0.0136871337890625,-0.023482784628868103,0.0025243908166885376
1772720886907020300,2.480020263671875,-0.012230873107910156,0.008719213306903839,-0.003573879599571228
1772720886925616600,2.49861669921875,-0.019983291625976562,-0.01554042100906372,-0.010299235582351685
1772720886944213200,2.517213134765625,-0.00888824462890625,-0.01633172482252121,-0.006640829145908356
1772720886962809600,2.5358095703125,-0.012044906616210938,0.004993036389350891,0.0003866031765937805
1772720886981406000,2.554406005859375,-0.019881248474121094,-0.011735036969184875,0.0037707313895225525
1772720887000002300,2.573002197265625,-0.005339622497558594,0.0010707378387451172,-0.005596660077571869
1772720887018599000,2.591598876953125,-0.007415771484375,-0.010813258588314056,-0.008893199265003204
1772720887037195300,2.6101953125,-0.00360107421875,0.011715106666088104,-0.0007229074835777283
1772720887055791600,2.62879150390625,-0.011437416076660156,-0.020759515464305878,0.004075579345226288
1772720887074388000,2.647387939453125,0.0005884170532226562,-0.008447811007499695,0.00047938525676727295
1772720887092984600,2.665984619140625,-0.014429092407226562,0.004402771592140198,-0.0053307488560676575
1772720887111581000,2.684580810546875,-0.009440422058105469,-0.006368480622768402,0.004026226699352264
1772720887130177300,2.70317724609375,-0.0016565322875976562,-0.0064348578453063965,0.003784164786338806
1772720887148774000,2.72177392578125,0.0019102096557617188,-0.010173574090003967,0.008224569261074066
1772720887167370200,2.740370361328125,-0.00738525390625,0.0029344186186790466,-0.0036420151591300964
1772720887185966600,2.758966552734375,-0.0001201629638671875,0.00014922022819519043,-0.003637753427028656
1772720887204563000,2.77756298828125,-0.004367828369140625,-0.01877107471227646,0.007000550627708435
1772720887223159600,2.79615966796875,-0.008790969848632812,-0.011862918734550476,-0.0014071837067604065
1772720887241756000,2.814755859375,-0.009615898132324219,0.00020249933004379272,0.010421216487884521
1772720887260352300,2.833352294921875,-0.006981849670410156,-0.0022739022970199585,0.0021243467926979065
1772720887278948900,2.851948974609375,-0.01963043212890625,-0.0212920680642128,-0.001495547592639923
1772720887297545200,2.870545166015625,-0.009801864624023438,-0.011884965002536774,0.010196566581726074
1772720887316141600,2.8891416015625,-0.0118865966796875,-0.0023242756724357605,0.0006416887044906616
1772720887334738200,2.90773828125,-0.004454612731933594,-0.03875146806240082,-0.0027193278074264526
1772720887353334500,2.92633447265625,0.000461578369140625,0.012117519974708557,-0.007165871560573578
1772720887371931000,2.944930908203125,-0.01710224151611328,-0.003543943166732788,0.001037098467350006
1772720887390527200,2.96352734375,-0.008397102355957031,0.000050634145736694336,-0.0060431212186813354
1772720887409123800,2.982123779296875,-0.0044307708740234375,-0.003797374665737152,-0.002236373722553253
1772720887427720200,3.00072021484375,-0.00193023681640625,-0.026148952543735504,-0.0009084343910217285
1772720887446316500,3.019316650390625,-0.008648872375488281,-0.024568960070610046,0.02153889089822769
1772720887464913200,3.0379130859375,-0.0012054443359375,-0.009355790913105011,-0.010672450065612793
1772720887483509500,3.056509521484375,0.0026216506958007812,-0.012547649443149567,0.008401907980442047
1772720887502105900,3.07510595703125,-0.007778167724609375,0.0153714120388031,-0.016556866466999054
1772720887520702200,3.0937021484375,-0.004047393798828125,-0.023801907896995544,-0.009051956236362457
1772720887539298800,3.112298828125,-0.005031585693359375,0.009261265397071838,-0.0017796158790588379
1772720887557895200,3.130895263671875,-0.008469581604003906,-0.0169677734375,-0.0016840845346450806
1772720887576491500,3.149491455078125,-0.007168769836425781,-0.01206749677658081,-0.022866830229759216
1772720887595088100,3.168088134765625,-0.020969390869140625,-0.01312488317489624,-0.003612108528614044
1772720887613684500,3.1866845703125,0.0043125152587890625,0.0048057883977890015,-0.004780985414981842
1772720887632280800,3.20528076171875,-0.010867118835449219,0.0019692033529281616,0.011623777449131012
1772720887650877400,3.22387744140625,-0.0037822723388671875,0.006486944854259491,-0.0074654221534729
1772720887669473800,3.242473876953125,0.006915092468261719,0.00423712283372879,0.0034024566411972046
1772720887688070100,3.261070068359375,-0.02135181427001953,-0.013591162860393524,-0.01775588095188141
1772720887706666500,3.27966650390625,-0.0066051483154296875,-0.021520741283893585,-0.00916433334350586
1772720887725262800,3.298262939453125,-0.0027790069580078125,0.006976336240768433,-0.007754728198051453
1772720887743859500,3.316859375,-0.01091766357421875,-0.008276551961898804,-0.0099015012383461
1772720887762455800,3.335455810546875,-0.0047512054443359375,0.004567854106426239,0.003355056047439575
1772720887781052200,3.35405224609375,0.0002498626708984375,-0.0027820393443107605,-0.00852406769990921
1772720887799648800,3.372648681640625,-0.008952140808105469,-0.0003694966435432434,0.002230346202850342
1772720887818245000,3.3912451171875,-0.015811920166015625,-0.002935662865638733,0.004569016396999359
1772720887836841500,3.409841552734375,0.004420280456542969,-0.02304043620824814,-0.0015256553888320923
1772720887855437800,3.428437744140625,-0.002391815185546875,-0.0046851783990859985,-0.014406822621822357
1772720887874034400,3.447034423828125,0.00714111328125,-0.025904573500156403,-0.002415679395198822
1772720887892630800,3.465630859375,-0.007229804992675781,-0.0046745166182518005,0.004703916609287262
1772720887911227100,3.48422705078125,-0.002323150634765625,-0.004670992493629456,-0.010591775178909302
1772720887929823500,3.502823486328125,-0.005871772766113281,-0.008538760244846344,-0.011484667658805847
1772720887948420000,3.521420166015625,-0.0046367645263671875,0.0031659752130508423,-0.006633423268795013
1772720887967016400,3.540016357421875,-0.0009717941284179688,-0.01107829064130783,0.0018576905131340027
1772720887985612800,3.55861279296875,-0.009093284606933594,0.00208195298910141,0.006891191005706787
1772720888004209400,3.57720947265625,-0.00530242919921875,-0.009515620768070221,-0.0016504153609275818
1772720888022805800,3.5958056640625,-0.012261390686035156,-0.01661033183336258,0.0007111206650733948
1772720888041402000,3.614402099609375,-0.0038747787475585938,-0.002435058355331421,-0.002711944282054901
1772720888059998500,3.63299853515625,0.0021963119506835938,-0.006147377192974091,0.016500718891620636
1772720888078594800,3.6515947265625,0.0035371780395507812,-0.00968758761882782,-0.00032319873571395874
1772720888097191400,3.67019140625,0.010598182678222656,-0.015322446823120117,-0.0037501156330108643
1772720888115787800,3.688787841796875,-0.006103515625,0.00008861720561981201,-0.014483548700809479
1772720888134384000,3.707384033203125,0.009158134460449219,-0.010386601090431213,0.010278850793838501
1772720888152980500,3.72598046875,0.0020933151245117188,-0.0008597970008850098,-0.021467052400112152
1772720888171577000,3.7445771484375,0.021123886108398438,-0.01508031040430069,0.00933324545621872
1772720888190173400,3.76317333984375,-0.003749847412109375,-0.0065319836139678955,0.005578629672527313
1772720888208769800,3.781769775390625,-0.011937141418457031,-0.0031200870871543884,-0.0074895769357681274
1772720888227366400,3.800366455078125,0.009497642517089844,0.0012916550040245056,0.0006963089108467102
1772720888245962800,3.818962646484375,-0.010519981384277344,-0.01866692304611206,-0.008498288691043854
1772720888264559000,3.83755908203125,-0.0022296905517578125,0.0027810335159301758,-0.007259011268615723
1772720888283155500,3.856155517578125,0.010630607604980469,-0.021061524748802185,0.008111000061035156
1772720888301751800,3.874751708984375,-0.0097198486328125,-0.005601182579994202,-0.0016496777534484863
1772720888320348400,3.893348388671875,-0.013121604919433594,-0.02672417461872101,0.0053504034876823425
1772720888338944800,3.91194482421875,0.00003814697265625,-0.010116137564182281,-0.010145895183086395
1772720888357541000,3.930541015625,-0.009332656860351562,0.003901854157447815,-0.004053249955177307
1772720888376137500,3.949137451171875,0.0025873184204101562,-0.002009458839893341,-0.013378404080867767
1772720888394734000,3.967734130859375,-0.0055561065673828125,-0.0034506842494010925,0.013708680868148804
1772720888413330400,3.986330322265625,0.0027856826782226562,-0.004565209150314331,-0.009056352078914642
1772720888431926800,4.0049267578125,-0.0031671524047851562,-0.0022274628281593323,-0.012384265661239624
1772720888450523100,4.023523193359375,-0.004372596740722656,-0.011751867830753326,-0.003938660025596619
1772720888469119700,4.04211962890625,-0.007777214050292969,-0.01626601815223694,0.0031378716230392456
1772720888487716000,4.060716064453125,-0.008734703063964844,-0.018291346728801727,0.014786742627620697
1772720888506312400,4.0793125,-0.0037174224853515625,-0.0074177086353302,0.004985526204109192
1772720888524908800,4.09790869140625,-0.0060634613037109375,-0.0026659369468688965,0.005723223090171814
1772720888543505200,4.116505126953125,-0.008352279663085938,0.011166565120220184,0.0020248740911483765
1772720888562101800,4.135101806640625,0.0037097930908203125,-0.010143868625164032,-0.00007160753011703491
1772720888580698000,4.153697998046875,0.0024709701538085938,0.001629561185836792,-0.0036208629608154297
1772720888599294500,4.17229443359375,-0.0046482086181640625,0.005080118775367737,0.002974778413772583
1772720888617890800,4.190890869140625,0.0012912750244140625,0.009460307657718658,0.004101507365703583
1772720888636487400,4.2094873046875,0.0062313079833984375,-0.00845753401517868,0.0016968399286270142
1772720888655083800,4.228083740234375,-0.017286300659179688,-0.0002778172492980957,-0.0064675286412239075
1772720888673680100,4.24668017578125,0.001796722412109375,-0.014450587332248688,-0.01775515079498291
1772720888692276500,4.2652763671875,-0.007633209228515625,-0.004813946783542633,0.0003691166639328003
1772720888710872800,4.283872802734375,-0.0039882659912109375,-0.00040293484926223755,-0.002105824649333954
1772720888729469200,4.30246923828125,-0.015619277954101562,0.0018055588006973267,-0.0008673444390296936
1772720888748065800,4.321065673828125,0.010682106018066406,-0.013722822070121765,-0.010029643774032593
1772720888766662100,4.339662109375,-0.002452850341796875,-0.011467382311820984,-0.005316920578479767
1772720888785258500,4.358258544921875,-0.0034856796264648438,0.002638109028339386,0.0052470862865448
1772720888803854800,4.376854736328125,-0.003505706787109375,-0.0021683871746063232,0.010035760700702667
1772720888822451500,4.395451416015625,-0.004642486572265625,-0.003339909017086029,-0.018411770462989807
1772720888841047800,4.4140478515625,-0.0081939697265625,-0.01624331623315811,0.004272177815437317
1772720888859644200,4.43264404296875,-0.012824058532714844,-0.013499647378921509,-0.007718861103057861
1772720888878240500,4.451240478515625,-0.014828681945800781,-0.011141568422317505,-0.00280897319316864
1772720888896836900,4.4698369140625,0.0030355453491210938,-0.021659336984157562,0.0067916139960289
1772720888915433500,4.48843359375,0.005251884460449219,-0.004842817783355713,-0.007415696978569031
1772720888934029800,4.50702978515625,-0.005253791809082031,-0.003680415451526642,0.009988605976104736
1772720888952626200,4.525626220703125,0.00209808349609375,-0.011960729956626892,-0.006650738418102264
1772720888971222500,4.544222412109375,-0.013301849365234375,0.00005973130464553833,-0.00453253835439682
1772720888989819000,4.56281884765625,-0.009723663330078125,-0.0023711994290351868,0.007563143968582153
1772720889008415200,4.581415283203125,-0.005970001220703125,-0.00463925302028656,0.003883369266986847
1772720889027011600,4.600011474609375,0.0012674331665039062,0.0023567602038383484,0.0013952478766441345
1772720889045608200,4.618608154296875,-0.004695892333984375,-0.003792710602283478,-0.011657804250717163
1772720889064204500,4.63720458984375,-0.0057353973388671875,0.0007903426885604858,-0.003110721707344055
1772720889082801000,4.65580078125,-0.0019750595092773438,-0.002973213791847229,-0.02069726586341858
1772720889101397200,4.674397216796875,-0.004242897033691406,-0.000691242516040802,-0.010995671153068542
1772720889119993600,4.69299365234375,0.0064678192138671875,0.0014431774616241455,0.021110408008098602
1772720889138590200,4.711590087890625,0.007687568664550781,-0.00308980792760849,-0.013418897986412048
1772720889157186600,4.7301865234375,-0.0006227493286132812,-0.0009076148271560669,0.0009300708770751953
1772720889175783000,4.748782958984375,0.0030851364135742188,-0.0009299963712692261,-0.006233245134353638
1772720889194379300,4.767379150390625,-0.0015850067138671875,-0.0033554062247276306,-0.009315796196460724
1772720889212975600,4.7859755859375,-0.014569282531738281,-0.011571116745471954,0.014263041317462921
1772720889231572200,4.804572265625,-0.007260322570800781,0.003666102886199951,-0.001454576849937439
1772720889250168600,4.82316845703125,-0.007038116455078125,-0.0000814199447631836,-0.007469050586223602
1772720889268765000,4.841764892578125,-0.009058952331542969,-0.01082593947649002,0.006578385829925537
1772720889287361300,4.860361328125,0.010064125061035156,-0.0013200491666793823,0.008832469582557678
1772720889305957600,4.87895751953125,0.00041866302490234375,-0.00578288733959198,-0.018647320568561554
1772720889324554000,4.897553955078125,-0.015964508056640625,-0.018803641200065613,0.0006215199828147888
1772720889343150300,4.916150390625,-0.004963874816894531,-0.00788811594247818,0.004163980484008789
1772720889361746700,4.93474658203125,-0.0069751739501953125,-0.012570090591907501,0.0016428306698799133
1772720889380343000,4.953343017578125,-0.004408836364746094,-0.010228395462036133,-0.014831453561782837
1772720889398939600,4.971939697265625,0.006247520446777344,-0.016061395406723022,0.0069128647446632385
1772720889417536000,4.990535888671875,-0.003116607666015625,-0.018190860748291016,0.007744155824184418
1772720889436132400,5.00913232421875,0.010869979858398438,-0.010806038975715637,-0.0020116716623306274
1772720889454728700,5.027728759765625,-0.016057968139648438,0.019549347460269928,0.0062442347407341
1772720889473325000,5.046324951171875,-0.009900093078613281,-0.01004117727279663,-0.005711115896701813
1772720889491921400,5.06492138671875,-0.007354736328125,0.004035145044326782,-0.0034224167466163635
1772720889510517800,5.083517822265625,0.009379386901855469,-0.004370048642158508,0.004879660904407501
1772720889529114000,5.102114013671875,0.006893157958984375,-0.0005747303366661072,0.0058103203773498535
1772720889547710700,5.120710693359375,0.006705284118652344,-0.01602371782064438,0.012744605541229248
1772720889566307000,5.13930712890625,-0.01580810546875,0.00645802915096283,-0.0014445111155509949
1772720889584903400,5.1579033203125,-0.009731292724609375,-0.008036546409130096,-0.008413262665271759
1772720889603499800,5.176499755859375,-0.00458526611328125,-0.006842650473117828,-0.014358475804328918
1772720889622096100,5.19509619140625,-0.018648147583007812,0.009476102888584137,0.0047327131032943726
1772720889640692500,5.2136923828125,0.001636505126953125,-0.006999030709266663,0.0035220682621002197
1772720889659288800,5.232288818359375,-0.012434959411621094,-0.004736714065074921,-0.003502495586872101
1772720889677885200,5.25088525390625,-0.004962921142578125,-0.0014510974287986755,-0.007009275257587433
1772720889696481500,5.2694814453125,0.012731552124023438,0.006870627403259277,-0.019639424979686737
1772720889715078000,5.288077880859375,-0.005176544189453125,-0.01114240288734436,0.0030028223991394043
1772720889733674500,5.306674560546875,-0.00027751922607421875,0.0020090118050575256,-0.017107143998146057
1772720889752270800,5.325270751953125,-0.0062274932861328125,-0.007610835134983063,0.01705320179462433
1772720889770867200,5.3438671875,0.014019966125488281,0.0007307305932044983,-0.006959356367588043
1772720889789463600,5.362463623046875,0.0031070709228515625,-0.013645365834236145,0.01416066288948059
1772720889808060000,5.381059814453125,-0.010895729064941406,0.018978245556354523,-0.0038039013743400574
1772720889826656300,5.39965625,0.0009355545043945312,0.03099895268678665,-0.029638543725013733
1772720889845252600,5.418252685546875,0.013966560363769531,-0.05688098818063736,0.010925211012363434
1772720889863849000,5.436848876953125,-0.009672164916992188,0.03765016794204712,-0.005197204649448395
1772720889882445300,5.4554453125,0.0023746490478515625,-0.04972091689705849,0.015989266335964203
1772720889901041700,5.474041748046875,-0.0023488998413085938,0.02434057742357254,0.0027519389986991882
1772720889919638000,5.492637939453125,-0.0021715164184570312,-0.021575085818767548,-0.0010547786951065063
1772720889938234400,5.511234375,-0.0068817138671875,0.0002185627818107605,-0.007969439029693604
1772720889956830700,5.529830810546875,0.014347076416015625,0.004422493278980255,-0.007819809019565582
1772720889975427000,5.548427001953125,-0.0035390853881835938,-0.03155658021569252,0.015727564692497253
1772720889994023400,5.5670234375,0.001247406005859375,0.028917081654071808,-0.003210999071598053
1772720890012619800,5.585619873046875,-0.0057735443115234375,-0.01402483880519867,-0.005237482488155365
1772720890031216000,5.604216064453125,-0.004462242126464844,-0.006578259170055389,-0.0026131868362426758
1772720890049812500,5.6228125,-0.006745338439941406,-0.024392247200012207,0.0032549798488616943
1772720890068408800,5.641408935546875,0.0017137527465820312,-0.028524398803710938,-0.002929113805294037
1772720890087005200,5.660005126953125,-0.0064983367919921875,0.005935192108154297,0.009945906698703766
1772720890105601500,5.6786015625,0.001953125,-0.03405838459730148,-0.008090250194072723
1772720890124198000,5.697197998046875,0.0006151199340820312,-0.0028578341007232666,-0.008016504347324371
1772720890142794200,5.715794189453125,-0.00522613525390625,-0.011553183197975159,-0.010311998426914215
1772720890161390600,5.734390625,-0.015796661376953125,-0.012286663055419922,-0.006644450128078461
1772720890179987000,5.752987060546875,0.009273529052734375,0.0005774348974227905,-0.005531489849090576
1772720890198583300,5.771583251953125,-0.00714874267578125,-0.011073194444179535,-0.010018222033977509
1772720890217179600,5.7901796875,-0.004616737365722656,0.005377821624279022,-0.013365156948566437
1772720890235776000,5.80877587890625,-0.0009908676147460938,-0.021902255713939667,-0.002489648759365082
1772720890254372400,5.827372314453125,0.004982948303222656,0.008130669593811035,0.0023854076862335205
1772720890272968700,5.84596875,0.007349967956542969,-0.016732163727283478,0.004688762128353119
1772720890291565000,5.86456494140625,0.0026197433471679688,-0.010603360831737518,-0.0025204122066497803
1772720890310161400,5.883161376953125,0.0013761520385742188,-0.002190008759498596,-0.00370633602142334
1772720890328757800,5.9017578125,-0.0021181106567382812,0.0013083145022392273,-0.0013076961040496826
1772720890347354000,5.92035400390625,-0.011536598205566406,-0.004697173833847046,-0.002377524971961975
1772720890365950500,5.938950439453125,0.008647918701171875,-0.009459175169467926,-0.007097318768501282
1772720890384546800,5.957546875,-0.0055389404296875,-0.003655731678009033,0.012935332953929901
1772720890403143200,5.97614306640625,-0.010156631469726562,-0.009794265031814575,-0.0014293044805526733
1772720890421739500,5.994739501953125,0.0042781829833984375,0.0035130903124809265,-0.01084013283252716
1772720890440336000,6.0133359375,0.005530357360839844,0.008110128343105316,-0.015284359455108643
1772720890458932200,6.03193212890625,0.005408287048339844,0.003275051712989807,-0.002104133367538452
1772720890477528600,6.050528564453125,-0.009905815124511719,-0.001255042850971222,0.008640751242637634
1772720890496125000,6.069125,-0.001556396484375,-0.016885049641132355,0.012933522462844849
1772720890514721300,6.08772119140625,0.0055942535400390625,-0.007500536739826202,-0.012120038270950317
1772720890533317600,6.106317626953125,0.009018898010253906,0.004468575119972229,-0.004906579852104187
1772720890551914000,6.1249140625,0.00750732421875,-0.013417854905128479,-0.0036172792315483093
1772720890570510300,6.14351025390625,-0.017210960388183594,-0.006266608834266663,0.0022131502628326416
1772720890589106700,6.162106689453125,0.004124641418457031,-0.006403133273124695,-0.0059175267815589905
1772720890607703000,6.180703125,0.011167526245117188,-0.005043245851993561,-0.02343754470348358
1772720890626299400,6.19929931640625,0.0049571990966796875,-0.02154819667339325,-0.006352454423904419
1772720890644895700,6.217895751953125,0.0024232864379882812,0.0012217536568641663,0.004215918481349945
1772720890663492000,6.2364921875,0.0025806427001953125,-0.010655425488948822,0.007496759295463562
1772720890682088200,6.255088134765625,-0.003269195556640625,0.0025188252329826355,-0.005585037171840668
1772720890700684500,6.2736845703125,0.005112648010253906,-0.008110590279102325,-0.015901528298854828
1772720890719281000,6.292281005859375,-0.009291648864746094,-0.013774216175079346,-0.0016849413514137268
1772720890737877200,6.310877197265625,0.00025177001953125,-0.02058228850364685,-0.02396848052740097
1772720890756473600,6.3294736328125,0.00036334991455078125,-0.0003548264503479004,-0.008336000144481659
1772720890775070000,6.348070068359375,0.0016088485717773438,-0.007590815424919128,-0.005693905055522919
1772720890793666300,6.366666259765625,-0.002895355224609375,-0.009488679468631744,0.012049108743667603
1772720890812262700,6.3852626953125,-0.00046443939208984375,0.003255806863307953,0.0036011114716529846
1772720890830859000,6.40385888671875,0.0030059814453125,-0.008679427206516266,0.007107332348823547
1772720890849455400,6.422455322265625,-0.0027799606323242188,-0.004008203744888306,0.0023133307695388794
1772720890868051700,6.4410517578125,0.006745338439941406,-0.005183175206184387,-0.014193661510944366
1772720890886648000,6.45964794921875,0.004326820373535156,-0.008757740259170532,0.0013440027832984924
1772720890905244200,6.478244140625,0.003108978271484375,-0.006406433880329132,-0.006808191537857056
1772720890923840500,6.496840576171875,-0.0015020370483398438,0.0031761080026626587,0.0017123445868492126
1772720890942436900,6.515436767578125,-0.008432388305664062,0.002986423671245575,-0.0008767396211624146
1772720890961033200,6.534033203125,0.008259773254394531,-0.0052273571491241455,-0.010367564857006073
1772720890979629600,6.552629638671875,-0.006993293762207031,-0.010948948562145233,-0.0017523467540740967
1772720890998226000,6.571225830078125,-0.0033283233642578125,-0.007522962987422943,-0.010788656771183014
1772720891016822300,6.589822265625,-0.004490852355957031,-0.00033777952194213867,-0.011831238865852356
1772720891035418400,6.60841845703125,0.0038366317749023438,-0.002606816589832306,0.0071489810943603516
1772720891054014700,6.6270146484375,0.0013952255249023438,-0.012068070471286774,0.011930786073207855
1772720891072611000,6.645611083984375,0.009705543518066406,-0.007374979555606842,0.002117335796356201
1772720891091207400,6.66420751953125,-0.010240554809570312,-0.010771140456199646,0.005315922200679779
1772720891109803800,6.6828037109375,-0.0043125152587890625,-0.012009426951408386,-0.007953368127346039
1772720891128400100,6.701400146484375,0.005341529846191406,-0.015463724732398987,0.004044421017169952
1772720891146996500,6.71999658203125,0.001598358154296875,-0.0001305416226387024,0.004962950944900513
1772720891165592800,6.7385927734375,-0.0009021759033203125,-0.00953608751296997,-0.005596496164798737
1772720891184189000,6.75718896484375,0.011991500854492188,0.006934553384780884,0.005196534097194672
1772720891202785300,6.775785400390625,-0.002384185791015625,-0.019115008413791656,-0.006555035710334778
1772720891221381600,6.794381591796875,-0.00234222412109375,0.004816979169845581,0.004281088709831238
1772720891239978000,6.81297802734375,-0.007027626037597656,-0.006044842302799225,0.0007255375385284424
1772720891258574300,6.83157421875,-0.0048122406005859375,-0.0107002854347229,0.002798035740852356
1772720891277170400,6.85017041015625,0.0023298263549804688,-0.005759686231613159,-0.010139606893062592
1772720891295766800,6.868766845703125,-0.0033740997314453125,0.0026107877492904663,-0.005373954772949219
1772720891314363100,6.887363037109375,-0.000988006591796875,-0.015091262757778168,-0.0008335262537002563
1772720891332959500,6.90595947265625,-0.009249687194824219,0.006422802805900574,-0.0033647939562797546
1772720891351555800,6.924555908203125,-0.006649017333984375,-0.011091373860836029,0.006422996520996094
1772720891370152200,6.943152099609375,-0.005427360534667969,-0.013270460069179535,-0.004191704094409943
1772720891388748500,6.96174853515625,-0.0041904449462890625,-0.0013737455010414124,-0.0018549636006355286
1772720891407344600,6.9803447265625,-0.0065212249755859375,-0.002665594220161438,-0.015968486666679382
1772720891425941000,6.99894091796875,-0.011126518249511719,-0.003982767462730408,-0.00126638263463974
1772720891444537300,7.017537353515625,-0.0013647079467773438,-0.0003107786178588867,0.00003974884748458862
1772720891463133700,7.0361337890625,0.010211944580078125,0.00415455549955368,-0.011932373046875
1772720891481730000,7.05472998046875,-0.0063610076904296875,-0.01154530793428421,-0.008391588926315308
1772720891500326400,7.073326416015625,0.0056743621826171875,-0.001075349748134613,-0.009745180606842041
1772720891518922500,7.091922607421875,-0.0013742446899414062,-0.0022218599915504456,0.003253944218158722
1772720891537518800,7.110518798828125,-0.00034618377685546875,-0.021313682198524475,0.0020494982600212097
1772720891556115200,7.129115234375,-0.0014715194702148438,0.007624208927154541,0.011442340910434723
1772720891574711300,7.147711181640625,-0.004874229431152344,-0.004251375794410706,-0.0019173696637153625
1772720891593307600,7.1663076171875,0.00350189208984375,0.002856910228729248,0.0017545521259307861
1772720891611904000,7.184904052734375,-0.008139610290527344,-0.011493854224681854,0.007588014006614685
1772720891630500400,7.203500244140625,0.0036401748657226562,-0.009001307189464569,0.0061738938093185425
1772720891649096700,7.2220966796875,0.0021276473999023438,0.0005078241229057312,-0.0034587308764457703
1772720891667692800,7.24069287109375,0.0030002593994140625,0.005130931735038757,-0.009110786020755768
1772720891686289200,7.2592890625,-0.006411552429199219,0.0004462823271751404,-0.008992724120616913
1772720891704885500,7.277885498046875,-0.012255668640136719,0.011005192995071411,0.0038840845227241516
1772720891723481900,7.29648193359375,-0.0013780593872070312,-0.003413371741771698,0.00948670506477356
1772720891742078000,7.315077880859375,-0.008389472961425781,-0.0022467821836471558,-0.005755558609962463
1772720891760674300,7.33367431640625,-0.0023279190063476562,0.0024804919958114624,0.0035577788949012756
1772720891779270700,7.352270751953125,-0.0057392120361328125,-0.006348378956317902,0.006903454661369324
1772720891797867000,7.370866943359375,0.005138397216796875,-0.007445491850376129,0.0018019303679466248
1772720891816463400,7.38946337890625,-0.007833480834960938,0.0007668137550354004,0.006471917033195496
1772720891835059500,7.4080595703125,-0.0018291473388671875,0.004144303500652313,0.0028349831700325012
1772720891853655800,7.42665576171875,-0.0007467269897460938,0.013360142707824707,0.006068490445613861
1772720891872252200,7.445252197265625,-0.000701904296875,-0.013023719191551208,-0.005741618573665619
1772720891890848300,7.46384814453125,0.0030670166015625,-0.0021925270557403564,-0.012548938393592834
1772720891909444600,7.482444580078125,-0.005385398864746094,-0.018547259271144867,0.018451862037181854
1772720891928041000,7.501041015625,0.006598472595214844,-0.004155062139034271,-0.005188412964344025
1772720891946637300,7.51963720703125,0.0043430328369140625,-0.005752041935920715,0.005525283515453339
1772720891965233400,7.5382333984375,0.013652801513671875,-0.0023187249898910522,0.00786186009645462
1772720891983829800,7.556829833984375,-0.004150390625,0.007132522761821747,-0.003895096480846405
1772720892002426000,7.575426025390625,0.0065555572509765625,-0.003614470362663269,-0.008677802979946136
1772720892021022200,7.594022216796875,-0.0027379989624023438,-0.00474238395690918,-0.00617680698633194
1772720892039618600,7.61261865234375,-0.009724617004394531,0.0024561211466789246,0.005663461983203888
1772720892058215000,7.63121484375,-0.00010967254638671875,-0.005673207342624664,-0.002733677625656128
1772720892076811300,7.649811279296875,0.0033273696899414062,-0.00904352217912674,0.0033779218792915344
1772720892095407400,7.668407470703125,0.0091400146484375,-0.006545625627040863,-0.009889014065265656
1772720892114003700,7.687003662109375,0.004368782043457031,-0.02293924242258072,0.0019414648413658142
1772720892132600000,7.70560009765625,0.004324913024902344,-0.004962392151355743,-0.01178768277168274
1772720892151196200,7.724196044921875,-0.006404876708984375,0.000036597251892089844,-0.0033097043633461
1772720892169792500,7.74279248046875,0.001689910888671875,0.006977960467338562,-0.00808645784854889
1772720892188388900,7.761388916015625,0.011281013488769531,0.012576505541801453,-0.00439857691526413
1772720892206985000,7.77998486328125,0.006163597106933594,0.00014311820268630981,-0.006974890828132629
1772720892225581300,7.798581298828125,-0.0036478042602539062,0.00005494803190231323,0.014084950089454651
1772720892244177700,7.817177734375,0.010570526123046875,-0.0034587234258651733,-0.0014075934886932373
1772720892262773800,7.835773681640625,-0.0003452301025390625,-0.00821683555841446,-0.007341079413890839
1772720892281370000,7.8543701171875,0.0019426345825195312,-0.00490976870059967,-0.002472907304763794
1772720892299966500,7.872966552734375,-0.005138397216796875,0.006781250238418579,-0.01627262681722641
1772720892318562800,7.891562744140625,-0.0038700103759765625,-0.004837401211261749,0.00670141726732254
1772720892337159000,7.910158935546875,0.005415916442871094,0.010552294552326202,0.016062185168266296
1772720892355755300,7.92875537109375,0.0016498565673828125,-0.01996157318353653,-0.007623709738254547
1772720892374351600,7.9473515625,0.012360572814941406,-0.0032056495547294617,0.0019235685467720032
1772720892392947700,7.96594775390625,0.00046443939208984375,0.005208365619182587,-0.0073584094643592834
1772720892411544000,7.9845439453125,-0.009902000427246094,-0.0032278969883918762,0.0035723596811294556
1772720892430140400,8.003140380859374,0.012408256530761719,-0.000871799886226654,-0.010627597570419312
1772720892448736500,8.021736572265626,-0.000705718994140625,-0.004272051155567169,0.010669246315956116
1772720892467332900,8.040332763671875,-0.0067195892333984375,0.002594172954559326,0.003523021936416626
1772720892485929200,8.05892919921875,0.021620750427246094,0.004982613027095795,-0.012964323163032532
1772720892504525300,8.077525390625,0.0024166107177734375,-0.0033879652619361877,-0.00571797788143158
1772720892523121700,8.09612158203125,0.0032606124877929688,-0.008022628724575043,-0.0011638030409812927
1772720892541718000,8.114718017578125,0.0019960403442382812,-0.01267281174659729,-0.019892804324626923
1772720892560314000,8.133314208984375,-0.00030517578125,-0.013612695038318634,0.005107015371322632
1772720892578910500,8.151910400390625,0.0020008087158203125,-0.009998902678489685,0.0037715882062911987
1772720892597506800,8.1705068359375,0.0041713714599609375,-0.0016253963112831116,-0.0033717453479766846
1772720892616103000,8.18910302734375,-0.003200531005859375,-0.006224207580089569,0.002435646951198578
1772720892634699300,8.20769921875,0.0051403045654296875,0.003085210919380188,0.014069803059101105
1772720892653295400,8.22629541015625,0.009697914123535156,-0.007810927927494049,0.004379041492938995
1772720892671891700,8.2448916015625,-0.0058574676513671875,0.00048039108514785767,0.005446642637252808
1772720892690488000,8.263488037109376,0.0059261322021484375,-0.010129168629646301,-0.0063400790095329285
1772720892709084400,8.28208447265625,-0.0024633407592773438,0.00046259909868240356,0.012607179582118988
1772720892727680500,8.300680419921875,-0.00018596649169921875,-0.01257321983575821,0.0051675885915756226
1772720892746276900,8.31927685546875,0.012742996215820312,0.010076366364955902,-0.006573975086212158
1772720892764873000,8.337873046875,-0.0015411376953125,-0.004199564456939697,0.0041697025299072266
1772720892783469300,8.35646923828125,0.0031795501708984375,0.0013643428683280945,-0.0075515806674957275
1772720892802065700,8.375065673828125,0.0016641616821289062,-0.011753872036933899,-0.001701265573501587
1772720892820661800,8.393661865234375,-0.000606536865234375,-0.01615014672279358,-0.007530242204666138
1772720892839258000,8.412258056640624,0.0065135955810546875,-0.010110899806022644,-0.020306818187236786
1772720892857854500,8.4308544921875,-0.0040340423583984375,0.0075637176632881165,0.013244405388832092
1772720892876450600,8.449450439453125,-0.015545845031738281,-0.007950417697429657,-0.007117673754692078
1772720892895047000,8.468046875,-0.009461402893066406,0.00048113614320755005,-0.016362212598323822
1772720892913643300,8.486643310546874,0.009480476379394531,0.005178347229957581,0.009717479348182678
1772720892932239400,8.5052392578125,0.003383636474609375,0.0037045851349830627,-0.004299499094486237
1772720892950835700,8.523835693359375,-0.0013341903686523438,-0.0001085624098777771,-0.0027284175157546997
1772720892969431800,8.542431884765625,-0.008231163024902344,-0.0026434138417243958,-0.0014093145728111267
1772720892988028200,8.561028076171874,0.003688812255859375,-0.018858447670936584,0.000980466604232788
1772720893006624500,8.57962451171875,-0.0000019073486328125,-0.010216489434242249,-0.0001483634114265442
1772720893025220600,8.598220703125,0.0057830810546875,0.008630700409412384,-0.002505749464035034
1772720893043817000,8.61681689453125,0.0010442733764648438,0.004988342523574829,-0.007381774485111237
1772720893062413000,8.6354130859375,-0.0047550201416015625,-0.003361418843269348,-0.002509400248527527
1772720893081009400,8.654009521484374,0.008069992065429688,-0.003329940140247345,-0.001229412853717804
1772720893099605800,8.672605712890626,0.005450248718261719,-0.010284259915351868,-0.007214769721031189
1772720893118201900,8.691201904296875,0.0007410049438476562,-0.004259265959262848,-0.000056780874729156494
1772720893136798200,8.709798095703125,0.0006198883056640625,0.0003514885902404785,-0.010676875710487366
1772720893155394300,8.728394287109374,0.008718490600585938,-0.01153707504272461,0.010665357112884521
1772720893173990700,8.74699072265625,0.016529083251953125,-0.004415422677993774,0.002255856990814209
1772720893192587000,8.7655869140625,-0.00252532958984375,-0.004604756832122803,-0.012100577354431152
1772720893211183000,8.78418310546875,0.0010309219360351562,-0.013877883553504944,0.005919516086578369
1772720893229779500,8.802779541015624,0.008996963500976562,-0.020703278481960297,0.0034540295600891113
1772720893248375600,8.82137548828125,-0.012417793273925781,-0.0014889612793922424,0.015083521604537964
1772720893266972000,8.839971923828125,0.007915496826171875,0.004128411412239075,-0.0039192065596580505
1772720893285568300,8.858568359375,0.0019292831420898438,0.004152111709117889,0.006517931818962097
1772720893304164400,8.877164306640625,0.00318145751953125,-0.0021070092916488647,0.005269959568977356
1772720893322760700,8.8957607421875,-0.0147247314453125,-0.00822620838880539,0.014593929052352905
1772720893341356800,8.914356689453125,-0.0004520416259765625,-0.006716251373291016,0.013120435178279877
1772720893359953200,8.932953125,0.007839202880859375,-0.00652371346950531,-0.007279984652996063
1772720893378549500,8.951549560546875,-0.013515472412109375,-0.007702186703681946,0.010537944734096527
1772720893397145600,8.9701455078125,-0.0037927627563476562,-0.0075277164578437805,-0.012024231255054474
1772720893415742000,8.988741943359376,0.0020189285278320312,0.007809095084667206,0.0024411752820014954
1772720893434338000,9.007338134765625,-0.017889022827148438,-0.0007372349500656128,0.0012665167450904846
1772720893452934400,9.025934326171875,-0.009140968322753906,0.005223020911216736,-0.0023024454712867737
1772720893471530800,9.04453076171875,0.007319450378417969,-0.006617777049541473,0.007040821015834808
1772720893490126800,9.063126953125,-0.0022153854370117188,0.00037229806184768677,-0.002229072153568268
1772720893508723200,9.08172314453125,-0.01020050048828125,-0.014844872057437897,0.0038656294345855713
1772720893527319300,9.1003193359375,0.010042190551757812,-0.00192202627658844,-0.009279102087020874
1772720893545915600,9.11891552734375,-0.000759124755859375,-0.006472073495388031,-0.004363156855106354
1772720893564512000,9.137511962890626,-0.0055980682373046875,-0.01780388504266739,-0.0008248761296272278
1772720893583108000,9.156108154296875,0.0029420852661132812,0.002664819359779358,-0.0008598938584327698
1772720893601704400,9.174704345703125,-0.005077362060546875,-0.016305819153785706,-0.0019663646817207336
1772720893620300500,9.193300537109375,0.007856369018554688,-0.01722562313079834,-0.02415316551923752
1772720893638897000,9.21189697265625,-0.00405120849609375,-0.017331749200820923,-0.007408164441585541
1772720893657493200,9.2304931640625,-0.0017385482788085938,-0.00646112859249115,-0.005961492657661438
1772720893676089300,9.24908935546875,0.004024505615234375,-0.013463877141475677,-0.0034799277782440186
1772720893694685400,9.267685546875,0.008520126342773438,0.012532472610473633,0.003498256206512451
1772720893713281800,9.28628173828125,-0.009328842163085938,0.00880458950996399,0.0035500451922416687
1772720893731878100,9.304878173828126,-0.0019998550415039062,-0.010105974972248077,-0.0014391690492630005
1772720893750474200,9.32347412109375,0.006321907043457031,-0.0015693306922912598,-0.00021397322416305542
1772720893769070600,9.342070556640625,0.010957717895507812,-0.006176933646202087,0.015202902257442474
1772720893787666700,9.360666748046874,-0.012658119201660156,-0.003687262535095215,-0.004890553653240204
1772720893806263000,9.379262939453126,0.00644683837890625,-0.003641650080680847,0.0021583810448646545
1772720893824859400,9.397859375,0.0051746368408203125,-0.013301819562911987,-0.0015933141112327576
1772720893843455500,9.41645556640625,-0.012524604797363281,-0.00582481175661087,0.0008368268609046936
1772720893862051600,9.435051513671874,0.005340576171875,-0.00008858740329742432,0.004289381206035614
1772720893880648000,9.45364794921875,0.004046440124511719,-0.007360033690929413,-0.005192093551158905
1772720893899244300,9.472244384765625,-0.0030841827392578125,0.0020589232444763184,0.0041964128613471985
1772720893917840400,9.49084033203125,0.004017829895019531,0.004197157919406891,0.012310780584812164
1772720893936436700,9.509436767578125,-0.019468307495117188,-0.01595877856016159,0.005031093955039978
1772720893955032800,9.52803271484375,-0.0026865005493164062,0.0055389851331710815,-0.009102940559387207
1772720893973629200,9.546629150390626,-0.0002841949462890625,-0.020562559366226196,0.00034230947494506836
1772720893992225300,9.565225341796875,0.0032958984375,-0.000016242265701293945,-0.0009969770908355713
1772720894010821600,9.583821533203125,-0.0012426376342773438,-0.010761700570583344,-0.004664234817028046
1772720894029417700,9.602417724609374,-0.000003814697265625,-0.010662242770195007,-0.010375723242759705
1772720894048014000,9.62101416015625,-0.014060020446777344,0.0011873319745063782,-0.009078100323677063
1772720894066610400,9.6396103515625,0.0002880096435546875,0.024375364184379578,0.0005751848220825195
1772720894085206500,9.65820654296875,-0.006720542907714844,-0.016099005937576294,-0.009897604584693909
1772720894103802600,9.676802734375,-0.005420684814453125,-0.008493751287460327,0.024018824100494385
1772720894122399000,9.69539892578125,-0.0006322860717773438,-0.018241487443447113,0.0011324957013130188
1772720894140995300,9.713995361328125,0.0016460418701171875,-0.01177641749382019,0.002567395567893982
1772720894159591400,9.73259130859375,0.005101203918457031,0.01259469985961914,0.009457319974899292
1772720894178187800,9.751187744140625,0.004954338073730469,-0.019556313753128052,-0.001234494149684906
1772720894196783900,9.769783935546876,-0.0020112991333007812,0.013720467686653137,-0.010396823287010193
1772720894215380200,9.788380126953125,0.0028409957885742188,-0.0046046823263168335,-0.004208192229270935
1772720894233976300,9.806976318359375,0.0064144134521484375,-0.006739944219589233,0.00981941819190979
1772720894252572700,9.82557275390625,0.0038309097290039062,-0.011481881141662598,0.008257709443569183
1772720894271168800,9.844168701171874,0.015488624572753906,-0.04372044652700424,-0.002582058310508728
1772720894289765000,9.86276513671875,-0.006000518798828125,0.02636120468378067,0.002132989466190338
1772720894308361200,9.881361328125,-0.009350776672363281,0.005388937890529633,-0.024731270968914032
1772720894326957600,9.89995751953125,-0.0008840560913085938,0.007680341601371765,-0.006594829261302948
1772720894345553700,9.9185537109375,-0.007992744445800781,-0.009199261665344238,0.006377711892127991
1772720894364150000,9.93714990234375,-0.0022563934326171875,-0.020384401082992554,-0.006765544414520264
1772720894382746000,9.95574609375,-0.008025169372558594,-0.0023156628012657166,0.009580709040164948
1772720894401342500,9.974342529296875,0.0052642822265625,-0.01874970644712448,0.012774869799613953
1772720894419938600,9.9929384765625,-0.00177001953125,-0.0008471980690956116,0.007879465818405151
1772720894438535000,10.011534912109376,-0.012554168701171875,0.004909440875053406,-0.009653404355049133
1772720894457131000,10.030131103515625,0.0018224716186523438,0.00687059760093689,-0.0060904622077941895
1772720894475727400,10.048727294921875,0.008722305297851562,-0.005299471318721771,0.01295943558216095
1772720894494323500,10.067323486328124,-0.0007228851318359375,-0.0176984965801239,0.0033370330929756165
1772720894512919800,10.085919921875,0.0075778961181640625,-0.006909891963005066,0.0173582062125206
1772720894531516000,10.104515869140625,-0.003082275390625,-0.008021548390388489,-0.006424508988857269
1772720894550112300,10.1231123046875,-0.0005474090576171875,0.0062277913093566895,-0.01304994523525238
1772720894568708400,10.141708251953125,-0.01945018768310547,0.018869630992412567,0.003717847168445587
1772720894587304700,10.1603046875,0.0022144317626953125,-0.03215458244085312,0.023517943918704987
1772720894605900800,10.17890087890625,0.003437042236328125,-0.002347610890865326,0.010196588933467865
1772720894624497000,10.197496826171875,0.009266853332519531,-0.02378583699464798,0.0007115453481674194
1772720894643093200,10.21609326171875,-0.004000663757324219,0.013148017227649689,-0.009754762053489685
1772720894661689600,10.234689697265624,-0.0016908645629882812,-0.00868118554353714,-0.033128440380096436
1772720894680285700,10.25328564453125,0.0006990432739257812,-0.0037774071097373962,0.0007278919219970703
1772720894698881800,10.2718818359375,0.0007524490356445312,-0.006304614245891571,0.0027724504470825195
1772720894717478100,10.29047802734375,0.0045337677001953125,-0.022473260760307312,0.013266585767269135
1772720894736074200,10.30907421875,-0.016908645629882812,0.019253060221672058,-0.008112139999866486
1772720894754670600,10.327670654296876,0.0011816024780273438,0.009083576500415802,-0.010073475539684296
1772720894773266700,10.3462666015625,-0.00360107421875,-0.002973996102809906,-0.010938785970211029
1772720894791863000,10.364863037109375,0.004616737365722656,0.003952741622924805,0.008022792637348175
1772720894810459100,10.383459228515624,0.0070133209228515625,-0.01026146113872528,0.003132462501525879
1772720894829055200,10.40205517578125,-0.007218360900878906,-0.015718922019004822,0.00404946506023407
1772720894847651600,10.420651611328125,0.010589599609375,-0.0024467110633850098,-0.007815062999725342
1772720894866247700,10.43924755859375,0.010221481323242188,0.009197205305099487,-0.014574475586414337
1772720894884844000,10.457843994140624,-0.005234718322753906,-0.0005387961864471436,-0.00736149400472641
1772720894903440100,10.476440185546876,0.0008993148803710938,-0.010110847651958466,0.0008904263377189636
1772720894922036500,10.495036376953125,0.0019683837890625,-0.005211792886257172,0.004189617931842804
1772720894940632600,10.513632568359375,-0.0028400421142578125,0.0006496310234069824,0.009974107146263123
1772720894959228700,10.532228759765625,0.0009021759033203125,0.008964069187641144,-0.0042253658175468445
1772720894977825000,10.550824951171874,-0.006087303161621094,-0.0066827088594436646,-0.002940237522125244
1772720894996421000,10.569421142578125,0.005564689636230469,0.0017985254526138306,-0.01595068722963333
1772720895015017500,10.588017578125,-0.00254058837890625,-0.01598084717988968,0.0067893266677856445
1772720895033613600,10.606613525390625,-0.008553504943847656,0.0007506087422370911,0.0016993880271911621
1772720895052210000,10.6252099609375,0.008084297180175781,0.007815763354301453,-0.012290723621845245
1772720895070806000,10.643805908203126,-0.001476287841796875,-0.006305813789367676,-0.0084238201379776
1772720895089402000,10.662402099609375,0.0010023117065429688,0.007759802043437958,-0.002367444336414337
1772720895107998500,10.68099853515625,-0.0011844635009765625,-0.008654214441776276,-0.010440237820148468
1772720895126594600,10.699594482421874,0.005875587463378906,0.004175826907157898,0.0027445703744888306
1772720895145191000,10.71819091796875,-0.00000476837158203125,-0.004259034991264343,-0.0010274574160575867
1772720895163787000,10.736787109375,0.0057430267333984375,-0.003910399973392487,0.0026395246386528015
1772720895182383400,10.75538330078125,0.004593849182128906,0.004044808447360992,0.0014948397874832153
1772720895200979500,10.7739794921875,0.0020914077758789062,-0.011387601494789124,0.008294984698295593
1772720895219575600,10.792575439453126,-0.0014867782592773438,-0.014701947569847107,-0.0012792497873306274
1772720895238172000,10.811171875,0.0091705322265625,-0.01215381920337677,0.005791120231151581
1772720895256768000,10.82976806640625,0.006831169128417969,0.008284084498882294,-0.009605608880519867
1772720895275364000,10.848364013671874,0.014743804931640625,-0.003546282649040222,-0.001382775604724884
1772720895293960400,10.86696044921875,0.0026483535766601562,-0.001111060380935669,-0.009761735796928406
1772720895312556500,10.885556640625,-0.0034589767456054688,0.009485095739364624,-0.0025521591305732727
1772720895331152600,10.904152587890625,0.017693519592285156,0.0009667202830314636,0.003130897879600525
1772720895349749000,10.9227490234375,0.007816314697265625,-0.002834796905517578,0.002875186502933502
1772720895368345000,10.941344970703126,0.0075969696044921875,0.0007915347814559937,0.015876077115535736
1772720895386941400,10.95994140625,-0.0053997039794921875,0.023114435374736786,-0.01261092722415924
1772720895405537500,10.97853759765625,-0.0043182373046875,-0.008928023278713226,-0.002850078046321869
1772720895424134000,10.9971337890625,0.013276100158691406,-0.0015831440687179565,-0.006363034248352051
1772720895442730000,11.01572998046875,0.010425567626953125,-0.004162974655628204,-0.00777772068977356
1772720895461326000,11.034326171875,0.000865936279296875,0.0053233131766319275,0.0004616677761077881
1772720895479922400,11.05292236328125,-0.0038862228393554688,-0.0018571913242340088,-0.0030854567885398865
1772720895498518500,11.0715185546875,-0.001659393310546875,-0.015867799520492554,-0.013640724122524261
1772720895517114600,11.090114501953124,0.0015935897827148438,-0.013239666819572449,-0.0004239603877067566
1772720895535711000,11.1087109375,-0.011321067810058594,0.006051957607269287,0.012525543570518494
1772720895554307000,11.12730712890625,0.0064449310302734375,0.010451264679431915,-0.011443428695201874
1772720895572903200,11.145903076171875,-0.0031976699829101562,-0.002682410180568695,0.0028977617621421814
1772720895591499500,11.16449951171875,0.007361412048339844,0.010432906448841095,-0.012451395392417908
1772720895610095600,11.183095703125,0.004765510559082031,0.011264026165008545,0.0006285086274147034
1772720895628691700,11.201691650390625,0.0012569427490234375,0.006260201334953308,-0.008546732366085052
1772720895647288000,11.2202880859375,0.006001472473144531,-0.01377442479133606,0.010313868522644043
1772720895665884200,11.23888427734375,0.0035877227783203125,-0.015856541693210602,0.004033870995044708
1772720895684480500,11.25748046875,0.013059616088867188,-0.008411616086959839,-0.009976491332054138
1772720895703076600,11.27607666015625,0.19884014129638672,-0.05196511745452881,0.09508567303419113
1772720895721672700,11.294672607421875,-0.2640867233276367,0.025113672018051147,-0.07822871208190918
1772720895740269000,11.31326904296875,-0.14526844024658203,0.04716219753026962,-0.04575030505657196
1772720895758865200,11.331865234375,0.06680965423583984,0.004853233695030212,0.012206979095935822
1772720895777461500,11.35046142578125,0.00330352783203125,-0.01791955530643463,0.0035187602043151855
1772720895796057600,11.3690576171875,0.04342079162597656,-0.002206243574619293,0.011542186141014099
