time,seconds_elapsed,z,y,x
1772720884517392100,0.09039208984375,-0.00007635809743078426,-0.000839939049910754,0.0009162971982732415
1772720884535988500,0.108988525390625,0.0005345066892914474,0.00007635809743078426,0.001221729558892548
1772720884554584800,0.127584716796875,-0.00038179047987796366,0.00007635809743078426,-0.000610864779446274
1772720884573181000,0.146180908203125,-0.00007635809743078426,-0.00022907429956831038,0.000610864779446274
1772720884591777300,0.16477734375,-0.00038179047987796366,-0.000839939049910754,0.000610864779446274
1772720884610373400,0.183373291015625,-0.00038179047987796366,-0.0005345066892914474,0.001221729558892548
1772720884628969700,0.2019697265625,-0.0006872228696011007,-0.0005345066892914474,0.000610864779446274
1772720884647566000,0.220566162109375,-0.0009926552884280682,0.00038179047987796366,0.0009162971982732415
1772720884666162200,0.239162109375,0.000839939049910754,-0.0005345066892914474,0.000610864779446274
1772720884684758500,0.257758544921875,-0.0012980876490473747,0.0006872228696011007,0.0009162971982732415
1772720884703354600,0.276354736328125,-0.00007635809743078426,0.0009926552884280682,0.0009162971982732415
1772720884721951000,0.294950927734375,0.00022907429956831038,-0.0005345066892914474,0.000610864779446274
1772720884740547300,0.31354736328125,-0.00007635809743078426,0.0006872228696011007,0.0009162971982732415
1772720884759143400,0.332143310546875,-0.00038179047987796366,-0.000839939049910754,0.0009162971982732415
1772720884777739800,0.35073974609375,0.00022907429956831038,-0.00022907429956831038,0.0009162971982732415
1772720884796335900,0.3693359375,-0.0006872228696011007,0.00038179047987796366,0.000610864779446274
1772720884814932200,0.38793212890625,-0.0006872228696011007,0.0009926552884280682,0.000305432389723137
1772720884833528600,0.406528564453125,-0.00038179047987796366,-0.0005345066892914474,0.001221729558892548
1772720884852124700,0.425124755859375,-0.00038179047987796366,-0.000839939049910754,0.0009162971982732415
1772720884870721000,0.443720947265625,0.00022907429956831038,0.00007635809743078426,0.000305432389723137
1772720884889317000,0.462317138671875,0.00022907429956831038,0.00007635809743078426,0.0009162971982732415
1772720884907913500,0.48091357421875,-0.00038179047987796366,-0.0011453714687377214,0.000610864779446274
1772720884926509800,0.499509765625,0.000839939049910754,-0.00022907429956831038,0.0009162971982732415
1772720884945106000,0.51810595703125,0.00022907429956831038,0.00038179047987796366,0.0009162971982732415
1772720884963702300,0.536702392578125,-0.00007635809743078426,-0.00022907429956831038,0.000305432389723137
1772720884982298400,0.55529833984375,-0.00007635809743078426,0.00007635809743078426,0.0009162971982732415
1772720885000894700,0.573894775390625,0.00022907429956831038,0.0009926552884280682,0.0009162971982732415
1772720885019491000,0.592490966796875,-0.00007635809743078426,0.00007635809743078426,0.0009162971982732415
1772720885038087200,0.611087158203125,0.00022907429956831038,0.00038179047987796366,0.0015271619195118546
1772720885056683500,0.62968359375,0.000839939049910754,-0.0005345066892914474,0.001221729558892548
1772720885075279600,0.648279541015625,0.000839939049910754,0.00038179047987796366,0.0009162971982732415
1772720885093876000,0.6668759765625,0.0005345066892914474,0.00007635809743078426,0.001221729558892548
1772720885112472300,0.685472412109375,0.000839939049910754,0.0016035200096666813,0.0009162971982732415
1772720885131068400,0.704068359375,0.00022907429956831038,-0.00022907429956831038,0.0009162971982732415
1772720885149664800,0.722664794921875,0.000839939049910754,0.00007635809743078426,0.000610864779446274
1772720885168260900,0.7412607421875,0.000839939049910754,-0.000839939049910754,0.0009162971982732415
1772720885186857200,0.759857177734375,0.00022907429956831038,0.0006872228696011007,0.001221729558892548
1772720885205453600,0.77845361328125,-0.00007635809743078426,-0.00022907429956831038,0
1772720885224049700,0.797049560546875,0.00022907429956831038,0.0016035200096666813,0.001221729558892548
1772720885242646000,0.81564599609375,0.00022907429956831038,0.00007635809743078426,0.001221729558892548
1772720885261242000,0.8342421875,0.000839939049910754,-0.000839939049910754,0.0009162971982732415
1772720885279838500,0.85283837890625,0.001450803829357028,-0.000839939049910754,0.001221729558892548
1772720885298434800,0.871434814453125,0.00022907429956831038,0.00038179047987796366,0.001221729558892548
1772720885317031200,0.89003125,-0.0006872228696011007,0.00007635809743078426,0.0015271619195118546
1772720885335627300,0.908627197265625,-0.0006872228696011007,0.00007635809743078426,0.0009162971982732415
1772720885354223600,0.9272236328125,0.00022907429956831038,0.00007635809743078426,0.0009162971982732415
1772720885372819700,0.94581982421875,0.000839939049910754,-0.0005345066892914474,0.000610864779446274
1772720885391416000,0.964416015625,0.000839939049910754,-0.00022907429956831038,-0.000305432389723137
1772720885410012400,0.983012451171875,-0.0009926552884280682,-0.00022907429956831038,0.000610864779446274
1772720885428608800,1.00160888671875,-0.00007635809743078426,0.00007635809743078426,0.001221729558892548
1772720885447204900,1.020204833984375,0.0005345066892914474,0.00038179047987796366,0.000305432389723137
1772720885465801200,1.03880126953125,0.00022907429956831038,0.00007635809743078426,0.000610864779446274
1772720885484397600,1.0573974609375,0.000839939049910754,0.00007635809743078426,0.0009162971982732415
1772720885502993700,1.07599365234375,0.001450803829357028,-0.00022907429956831038,0.001832594396546483
1772720885521590000,1.094590087890625,0.000839939049910754,0.00007635809743078426,0.0021380267571657896
1772720885540186400,1.113186279296875,0.0005345066892914474,-0.0005345066892914474,0.0009162971982732415
1772720885558782700,1.13178271484375,0.00022907429956831038,0.0006872228696011007,0.0009162971982732415
1772720885577379000,1.150379150390625,-0.00007635809743078426,-0.0005345066892914474,0.0015271619195118546
1772720885595975400,1.168975341796875,0.000839939049910754,-0.000839939049910754,0.000610864779446274
1772720885614571500,1.187571533203125,0.001450803829357028,0.00007635809743078426,0.0015271619195118546
1772720885633168000,1.20616796875,-0.00007635809743078426,-0.00022907429956831038,0.001832594396546483
1772720885651764200,1.22476416015625,0.00022907429956831038,0.00038179047987796366,0.001832594396546483
1772720885670360600,1.243360595703125,0.000839939049910754,-0.00022907429956831038,0.001221729558892548
1772720885688957000,1.26195703125,0.0011453714687377214,-0.00022907429956831038,0.0015271619195118546
1772720885707553300,1.28055322265625,0.001450803829357028,-0.0011453714687377214,0.001221729558892548
1772720885726149600,1.299149658203125,0.00022907429956831038,-0.000839939049910754,0.001221729558892548
1772720885744746000,1.31774609375,0.0005345066892914474,-0.00022907429956831038,0.0015271619195118546
1772720885763342300,1.33634228515625,0.0005345066892914474,-0.00022907429956831038,0.0015271619195118546
1772720885781938700,1.354938720703125,0.0005345066892914474,-0.00022907429956831038,0.0015271619195118546
1772720885800535000,1.37353515625,0.00022907429956831038,-0.000839939049910754,0.001221729558892548
1772720885819131100,1.392131103515625,0.00022907429956831038,0.00038179047987796366,0.000305432389723137
1772720885837727500,1.4107275390625,-0.00038179047987796366,0.00007635809743078426,0
1772720885856323800,1.42932373046875,0.00022907429956831038,-0.0005345066892914474,0.001221729558892548
1772720885874920200,1.447920166015625,0.0005345066892914474,-0.00022907429956831038,0.001832594396546483
1772720885893516500,1.4665166015625,0.00022907429956831038,-0.00022907429956831038,0.000610864779446274
1772720885912113000,1.48511279296875,0.0011453714687377214,-0.00022907429956831038,0.001221729558892548
1772720885930709200,1.503709228515625,0.000839939049910754,-0.00022907429956831038,0.000610864779446274
1772720885949305600,1.5223056640625,0.000839939049910754,-0.0011453714687377214,0.0015271619195118546
1772720885967902000,1.54090185546875,-0.00038179047987796366,-0.0005345066892914474,0.001221729558892548
1772720885986498300,1.559498291015625,0.0005345066892914474,0.00007635809743078426,0.0009162971982732415
1772720886005094700,1.5780947265625,-0.00007635809743078426,0.00007635809743078426,0.001221729558892548
1772720886023691000,1.59669091796875,0.000839939049910754,-0.0005345066892914474,0.001221729558892548
1772720886042287600,1.61528759765625,0.0005345066892914474,0.00007635809743078426,0.0015271619195118546
1772720886060884000,1.633884033203125,-0.00007635809743078426,-0.000839939049910754,0.001221729558892548
1772720886079480300,1.652480224609375,0.000839939049910754,-0.00022907429956831038,0.001221729558892548
1772720886098076700,1.67107666015625,0.0005345066892914474,-0.00022907429956831038,0.001221729558892548
1772720886116673000,1.689673095703125,0.0005345066892914474,0.0006872228696011007,0.0030543238390237093
1772720886135269400,1.708269287109375,0.00022907429956831038,-0.00022907429956831038,0.001221729558892548
1772720886153865700,1.72686572265625,0.0005345066892914474,0.00007635809743078426,0.000610864779446274
1772720886172462000,1.745462158203125,0.0005345066892914474,-0.00022907429956831038,0.0009162971982732415
1772720886191058400,1.764058349609375,0.0005345066892914474,0.00038179047987796366,0.000305432389723137
1772720886209655000,1.782655029296875,0.000839939049910754,0.00007635809743078426,0.001221729558892548
1772720886228251400,1.80125146484375,0.0011453714687377214,0.00038179047987796366,0.0015271619195118546
1772720886246847700,1.81984765625,0.001450803829357028,-0.0011453714687377214,0.001832594396546483
1772720886265444000,1.838444091796875,0.00022907429956831038,-0.0005345066892914474,0.0015271619195118546
1772720886284040400,1.85704052734375,-0.00007635809743078426,-0.0005345066892914474,0
1772720886302636800,1.87563671875,0.0005345066892914474,-0.00022907429956831038,0.0015271619195118546
1772720886321233200,1.894233154296875,-0.00007635809743078426,0.00007635809743078426,0.0015271619195118546
1772720886339829500,1.91282958984375,0.0005345066892914474,0.00007635809743078426,0.001221729558892548
1772720886358426000,1.931426025390625,-0.00007635809743078426,-0.0011453714687377214,0.000610864779446274
1772720886377022500,1.9500224609375,-0.00007635809743078426,-0.00022907429956831038,0.000610864779446274
1772720886395618800,1.968618896484375,-0.00007635809743078426,0.00038179047987796366,0.0015271619195118546
1772720886414215200,1.987215087890625,-0.0006872228696011007,-0.000839939049910754,0.0009162971982732415
1772720886432811800,2.005811767578125,0.00022907429956831038,-0.00022907429956831038,0.000610864779446274
1772720886451408100,2.024408203125,-0.00038179047987796366,-0.00022907429956831038,0.001221729558892548
1772720886470004500,2.04300439453125,0.0005345066892914474,0.00007635809743078426,0.000610864779446274
1772720886488600800,2.061600830078125,0.0005345066892914474,0.00007635809743078426,0.0015271619195118546
1772720886507197400,2.080197509765625,-0.00007635809743078426,-0.0005345066892914474,0.0009162971982732415
1772720886525793800,2.098793701171875,0.0005345066892914474,-0.0011453714687377214,0.0015271619195118546
1772720886544390100,2.11739013671875,0.0005345066892914474,0.00007635809743078426,0.0015271619195118546
1772720886562986500,2.135986572265625,0.00022907429956831038,0.00007635809743078426,0.001221729558892548
1772720886581582800,2.154582763671875,-0.00038179047987796366,0.00038179047987796366,0.000610864779446274
1772720886600179200,2.17317919921875,-0.00007635809743078426,-0.0005345066892914474,0.000305432389723137
1772720886618775800,2.19177587890625,0.00022907429956831038,0.00038179047987796366,0.001221729558892548
1772720886637372200,2.2103720703125,-0.00038179047987796366,-0.0005345066892914474,0.000610864779446274
1772720886655968500,2.228968505859375,0.0011453714687377214,-0.00022907429956831038,0.0015271619195118546
1772720886674565000,2.247565185546875,0.0005345066892914474,0.00007635809743078426,0.001221729558892548
1772720886693161500,2.266161376953125,0.0005345066892914474,0.00007635809743078426,0.0015271619195118546
1772720886711757800,2.2847578125,0.00022907429956831038,0.00038179047987796366,0.001832594396546483
1772720886730354400,2.3033544921875,0.00022907429956831038,0.00007635809743078426,0.0015271619195118546
1772720886748950800,2.32195068359375,0.0005345066892914474,-0.000839939049910754,0.001221729558892548
1772720886767547100,2.340547119140625,0.00022907429956831038,0.00007635809743078426,0.000610864779446274
1772720886786143500,2.3591435546875,-0.00038179047987796366,0.0009926552884280682,0.001832594396546483
1772720886804739800,2.37773974609375,-0.00038179047987796366,0.00007635809743078426,0.001221729558892548
1772720886823336400,2.39633642578125,-0.00007635809743078426,-0.00022907429956831038,0
1772720886841932800,2.414932861328125,-0.00007635809743078426,-0.00022907429956831038,0.001832594396546483
1772720886860529200,2.433529052734375,-0.00007635809743078426,0.00038179047987796366,0.0015271619195118546
1772720886879125800,2.452125732421875,0.00022907429956831038,-0.0005345066892914474,0.0009162971982732415
1772720886897722000,2.47072216796875,-0.00007635809743078426,0.0006872228696011007,0.0015271619195118546
1772720886916318500,2.489318359375,0.000839939049910754,0.00038179047987796366,0.001221729558892548
1772720886934914800,2.507914794921875,0.0005345066892914474,-0.0005345066892914474,0.001221729558892548
1772720886953511200,2.52651123046875,0.00022907429956831038,-0.0005345066892914474,0.000610864779446274
1772720886972107800,2.545107666015625,0.0005345066892914474,-0.0005345066892914474,0.001832594396546483
1772720886990704000,2.5637041015625,0.0005345066892914474,0.00007635809743078426,0.001221729558892548
1772720887009300500,2.582300537109375,-0.00038179047987796366,0.00007635809743078426,0.001221729558892548
1772720887027897000,2.60089697265625,-0.00007635809743078426,-0.0005345066892914474,0.0015271619195118546
1772720887046493400,2.619493408203125,-0.0009926552884280682,-0.00022907429956831038,0.0021380267571657896
1772720887065090000,2.638090087890625,-0.00038179047987796366,-0.00022907429956831038,0.001221729558892548
1772720887083686400,2.656686279296875,-0.00007635809743078426,-0.00022907429956831038,0.0009162971982732415
1772720887102282800,2.67528271484375,-0.00007635809743078426,-0.00022907429956831038,0.0015271619195118546
1772720887120879000,2.693879150390625,0.00022907429956831038,0.00007635809743078426,0.0009162971982732415
1772720887139475500,2.712475341796875,0.00022907429956831038,0.00007635809743078426,0.001221729558892548
1772720887158072000,2.731072021484375,-0.00038179047987796366,-0.00022907429956831038,0.0021380267571657896
1772720887176668400,2.74966845703125,-0.00038179047987796366,-0.0005345066892914474,0.001221729558892548
1772720887195264800,2.7682646484375,-0.0006872228696011007,0.0006872228696011007,0.0009162971982732415
1772720887213861400,2.786861328125,-0.00007635809743078426,0.00038179047987796366,0.001221729558892548
1772720887232457700,2.805457763671875,-0.00038179047987796366,-0.00022907429956831038,0.0015271619195118546
1772720887251054000,2.82405419921875,-0.00038179047987796366,0.00007635809743078426,0.0009162971982732415
1772720887269650400,2.842650390625,0.0011453714687377214,0.00007635809743078426,0.001832594396546483
1772720887288247000,2.8612470703125,0.00022907429956831038,0.00038179047987796366,0.0021380267571657896
1772720887306843400,2.879843505859375,-0.00038179047987796366,0.00007635809743078426,0.0015271619195118546
1772720887325439700,2.898439697265625,-0.0006872228696011007,-0.00022907429956831038,0.000610864779446274
1772720887344036400,2.917036376953125,-0.00007635809743078426,0.0009926552884280682,0.002443459117785096
1772720887362632700,2.9356328125,0.00022907429956831038,-0.0005345066892914474,0.000610864779446274
1772720887381229000,2.95422900390625,-0.00038179047987796366,-0.00022907429956831038,0.0021380267571657896
1772720887399825700,2.97282568359375,-0.0009926552884280682,0.00007635809743078426,0.001221729558892548
1772720887418422000,2.991422119140625,0.0005345066892914474,0.00038179047987796366,0.001832594396546483
1772720887437018400,3.010018310546875,0.00022907429956831038,-0.000839939049910754,0.001221729558892548
1772720887455614700,3.02861474609375,0.00022907429956831038,0.00038179047987796366,0.0015271619195118546
1772720887474211300,3.04721142578125,0.000839939049910754,0.00007635809743078426,0.001221729558892548
1772720887492807700,3.0658076171875,-0.00038179047987796366,-0.0011453714687377214,0.0009162971982732415
1772720887511404000,3.084404052734375,0.0005345066892914474,0.00007635809743078426,0.001221729558892548
1772720887530000600,3.103000732421875,0.0005345066892914474,-0.0005345066892914474,0.001832594396546483
1772720887548597000,3.121596923828125,0.00022907429956831038,-0.000839939049910754,0.0015271619195118546
1772720887567193300,3.140193359375,0.00022907429956831038,0.00038179047987796366,0.0009162971982732415
1772720887585790000,3.1587900390625,0.0005345066892914474,0.00007635809743078426,0.001221729558892548
1772720887604386300,3.17738623046875,-0.0006872228696011007,-0.0005345066892914474,0.0009162971982732415
1772720887622982700,3.195982666015625,0.0011453714687377214,0.00007635809743078426,0.0009162971982732415
1772720887641579000,3.2145791015625,-0.0006872228696011007,0.00038179047987796366,0.000610864779446274
1772720887660175600,3.233175537109375,-0.00038179047987796366,0.0006872228696011007,0.001221729558892548
1772720887678772000,3.25177197265625,0.00022907429956831038,0.00038179047987796366,0.0009162971982732415
1772720887697368300,3.270368408203125,0.00022907429956831038,0.00007635809743078426,0.0009162971982732415
1772720887715964700,3.288964599609375,-0.00038179047987796366,0.00007635809743078426,0.000305432389723137
1772720887734561300,3.307561279296875,-0.00038179047987796366,0.00007635809743078426,0.000610864779446274
1772720887753157600,3.32615771484375,0.0005345066892914474,0.00038179047987796366,0.001832594396546483
1772720887771754000,3.34475390625,0.000839939049910754,-0.000839939049910754,0.001221729558892548
1772720887790350300,3.363350341796875,-0.00007635809743078426,-0.0005345066892914474,0.001221729558892548
1772720887808947000,3.381947021484375,0.00022907429956831038,0.00007635809743078426,0.001221729558892548
1772720887827543300,3.400543212890625,0.00022907429956831038,-0.00022907429956831038,0.0015271619195118546
1772720887846139600,3.4191396484375,0.00022907429956831038,-0.0005345066892914474,0.000610864779446274
1772720887864736300,3.437736328125,0.00022907429956831038,0.00007635809743078426,0.001221729558892548
1772720887883332600,3.45633251953125,0.000839939049910754,-0.0005345066892914474,0.0015271619195118546
1772720887901929000,3.474928955078125,-0.00038179047987796366,-0.0005345066892914474,0.0009162971982732415
1772720887920525300,3.493525390625,0.00022907429956831038,-0.00022907429956831038,0.001832594396546483
1772720887939122000,3.512121826171875,0.0005345066892914474,-0.0005345066892914474,0.0021380267571657896
1772720887957718300,3.53071826171875,-0.00038179047987796366,0.00007635809743078426,0.000610864779446274
1772720887976314600,3.549314697265625,0.0005345066892914474,0.00038179047987796366,0.000305432389723137
1772720887994911000,3.567910888671875,0.0005345066892914474,0.00038179047987796366,0
1772720888013507300,3.58650732421875,0.00022907429956831038,-0.0005345066892914474,0.001832594396546483
1772720888032104000,3.60510400390625,-0.00007635809743078426,0.00007635809743078426,0.0015271619195118546
1772720888050700300,3.6237001953125,0.00022907429956831038,0.00007635809743078426,0.001832594396546483
1772720888069296600,3.642296630859375,0.000839939049910754,-0.0005345066892914474,0.001832594396546483
1772720888087893200,3.660893310546875,-0.00007635809743078426,-0.0005345066892914474,0.000610864779446274
1772720888106489600,3.679489501953125,-0.00007635809743078426,-0.0005345066892914474,0.0015271619195118546
1772720888125086000,3.6980859375,0.00022907429956831038,-0.000839939049910754,0.001221729558892548
1772720888143682300,3.716682373046875,-0.0006872228696011007,0.00038179047987796366,0.0009162971982732415
1772720888162279000,3.73527880859375,-0.0006872228696011007,0.00038179047987796366,0.000610864779446274
1772720888180875300,3.753875244140625,-0.00038179047987796366,-0.00022907429956831038,0.0009162971982732415
1772720888199471600,3.7724716796875,-0.00038179047987796366,-0.000839939049910754,0.0015271619195118546
1772720888218068000,3.79106787109375,0.00022907429956831038,-0.00022907429956831038,0.0009162971982732415
1772720888236664300,3.809664306640625,-0.0006872228696011007,0.00038179047987796366,0.000610864779446274
1772720888255261000,3.828260986328125,-0.00038179047987796366,-0.0005345066892914474,0.0015271619195118546
1772720888273857300,3.846857177734375,-0.00007635809743078426,-0.00022907429956831038,0.001832594396546483
1772720888292453600,3.86545361328125,-0.00038179047987796366,0.00038179047987796366,0.001221729558892548
1772720888311050200,3.88405029296875,0.00022907429956831038,0.00038179047987796366,0.0009162971982732415
1772720888329646600,3.902646484375,-0.00038179047987796366,-0.0005345066892914474,0.001221729558892548
1772720888348243000,3.921242919921875,0.000839939049910754,-0.00022907429956831038,0.0015271619195118546
1772720888366839300,3.93983935546875,0.000839939049910754,0.00007635809743078426,0.001832594396546483
1772720888385435600,3.958435546875,-0.00007635809743078426,-0.000839939049910754,0.001221729558892548
1772720888404032300,3.9770322265625,-0.0006872228696011007,-0.00022907429956831038,0.0009162971982732415
1772720888422628600,3.995628662109375,0.00022907429956831038,0.00038179047987796366,0.0015271619195118546
1772720888441225000,4.014224853515625,0.00022907429956831038,-0.00022907429956831038,0.0015271619195118546
1772720888459821300,4.0328212890625,-0.00007635809743078426,-0.00022907429956831038,0.0015271619195118546
1772720888478418000,4.05141796875,0.00022907429956831038,0.0006872228696011007,0.0009162971982732415
1772720888497014300,4.07001416015625,0.00022907429956831038,-0.0005345066892914474,0.001221729558892548
1772720888515610600,4.088610595703125,0.0005345066892914474,-0.0005345066892914474,0.000305432389723137
1772720888534207000,4.10720703125,0.0005345066892914474,0.00007635809743078426,0.001832594396546483
1772720888552803600,4.125803466796875,-0.0009926552884280682,0.00007635809743078426,0.0009162971982732415
1772720888571400000,4.14439990234375,-0.0006872228696011007,-0.00022907429956831038,0.0009162971982732415
1772720888589996300,4.162996337890625,-0.00038179047987796366,-0.0005345066892914474,0.0015271619195118546
1772720888608592600,4.181592529296875,-0.00007635809743078426,-0.00022907429956831038,0.0015271619195118546
1772720888627189000,4.20018896484375,-0.00038179047987796366,-0.00022907429956831038,0.001221729558892548
1772720888645785300,4.218785400390625,0.00022907429956831038,-0.00022907429956831038,0.0009162971982732415
1772720888664382000,4.2373818359375,0.00022907429956831038,0.00007635809743078426,0.001221729558892548
1772720888682978300,4.255978271484375,0.000839939049910754,0.00038179047987796366,0.0009162971982732415
1772720888701574700,4.27457470703125,0.0005345066892914474,-0.000839939049910754,0.001221729558892548
1772720888720171000,4.2931708984375,-0.0006872228696011007,0.00038179047987796366,0.0015271619195118546
1772720888738767600,4.311767578125,0.00022907429956831038,-0.0005345066892914474,0.000610864779446274
1772720888757364000,4.330364013671875,-0.00038179047987796366,0.00007635809743078426,0.0009162971982732415
1772720888775960300,4.348960205078125,0.0005345066892914474,0.00038179047987796366,0.0009162971982732415
1772720888794556700,4.367556640625,-0.00038179047987796366,-0.00022907429956831038,0.0009162971982732415
1772720888813153300,4.3861533203125,-0.00038179047987796366,-0.00022907429956831038,0.001832594396546483
1772720888831749600,4.40474951171875,-0.0009926552884280682,0.0006872228696011007,-0.000305432389723137
1772720888850346000,4.423345947265625,0.00022907429956831038,-0.00022907429956831038,0.0009162971982732415
1772720888868942300,4.4419423828125,0.00022907429956831038,0.00038179047987796366,0.0015271619195118546
1772720888887538700,4.46053857421875,-0.0006872228696011007,0.0006872228696011007,0.0009162971982732415
1772720888906135000,4.479135009765625,-0.00007635809743078426,0.00007635809743078426,0.001221729558892548
1772720888924731600,4.497731689453125,-0.0006872228696011007,-0.0005345066892914474,0.0009162971982732415
1772720888943328000,4.516327880859375,0.0011453714687377214,-0.000839939049910754,0.001832594396546483
1772720888961924400,4.53492431640625,-0.00038179047987796366,-0.00022907429956831038,0.0009162971982732415
1772720888980520700,4.553520751953125,0.00022907429956831038,-0.00022907429956831038,0.0015271619195118546
1772720888999117000,4.572116943359375,-0.00038179047987796366,-0.00022907429956831038,0.0009162971982732415
1772720889017713700,4.590713623046875,0.00022907429956831038,0.00038179047987796366,0.001221729558892548
1772720889036310000,4.60931005859375,-0.00007635809743078426,-0.00022907429956831038,0.0015271619195118546
1772720889054906400,4.62790625,0.0005345066892914474,0.00038179047987796366,0.001221729558892548
1772720889073502700,4.646502685546875,-0.00007635809743078426,-0.00022907429956831038,0.002443459117785096
1772720889092099000,4.66509912109375,-0.00038179047987796366,0.00007635809743078426,0.000610864779446274
1772720889110695700,4.68369580078125,-0.00038179047987796366,-0.00022907429956831038,0.000610864779446274
1772720889129292000,4.7022919921875,0.0011453714687377214,-0.00022907429956831038,0.0015271619195118546
1772720889147888400,4.720888427734375,0.000839939049910754,0.00007635809743078426,0.0015271619195118546
1772720889166484700,4.739484619140625,0.0005345066892914474,-0.00022907429956831038,0.001221729558892548
1772720889185081000,4.7580810546875,0.00022907429956831038,-0.00022907429956831038,0.001221729558892548
1772720889203677400,4.776677490234375,-0.00038179047987796366,0.0006872228696011007,0.001221729558892548
1772720889222273800,4.795273681640625,-0.0006872228696011007,0.0006872228696011007,0.0015271619195118546
1772720889240870100,4.8138701171875,0.000839939049910754,0.00007635809743078426,0.000610864779446274
1772720889259466800,4.832466796875,0.000839939049910754,-0.0005345066892914474,0.001221729558892548
1772720889278063000,4.85106298828125,-0.0009926552884280682,0.00038179047987796366,0.000610864779446274
1772720889296659500,4.869659423828125,0.000839939049910754,-0.00022907429956831038,0.0015271619195118546
1772720889315255800,4.888255859375,-0.00007635809743078426,0.00038179047987796366,0.001832594396546483
1772720889333852200,4.90685205078125,-0.00007635809743078426,-0.00022907429956831038,0.001221729558892548
1772720889352448500,4.925448486328125,0.00022907429956831038,0.00007635809743078426,0.001221729558892548
1772720889371045000,4.944045166015625,0.0005345066892914474,-0.00022907429956831038,0.0009162971982732415
1772720889389641500,4.962641357421875,0.000839939049910754,0.00038179047987796366,0.001221729558892548
1772720889408237800,4.98123779296875,-0.0006872228696011007,-0.0005345066892914474,0.0009162971982732415
1772720889426834200,4.999834228515625,-0.00038179047987796366,-0.000839939049910754,0.000610864779446274
1772720889445430500,5.018430419921875,-0.00038179047987796366,-0.00022907429956831038,0.000305432389723137
1772720889464027000,5.03702685546875,0.00022907429956831038,-0.00022907429956831038,0
1772720889482623200,5.055623291015625,-0.00038179047987796366,-0.00022907429956831038,0.001221729558892548
1772720889501219600,5.074219482421875,-0.00038179047987796366,0.00007635809743078426,0.0009162971982732415
1772720889519816200,5.092816162109375,-0.00038179047987796366,0.00007635809743078426,0.0009162971982732415
1772720889538412500,5.11141259765625,-0.00007635809743078426,0.00038179047987796366,0.001221729558892548
1772720889557009000,5.1300087890625,-0.0006872228696011007,0.0006872228696011007,0.001221729558892548
1772720889575605200,5.148605224609375,0.0005345066892914474,0.0006872228696011007,0.0015271619195118546
1772720889594201600,5.16720166015625,0.00022907429956831038,0.00007635809743078426,0.0015271619195118546
1772720889612798000,5.1857978515625,0.00022907429956831038,0.00038179047987796366,0.000610864779446274
1772720889631394300,5.204394287109375,-0.0012980876490473747,0.0006872228696011007,0.0009162971982732415
1772720889649990700,5.22299072265625,-0.0006872228696011007,0.0006872228696011007,0.000610864779446274
1772720889668587000,5.2415869140625,0.00022907429956831038,0.0006872228696011007,0.0015271619195118546
1772720889687183400,5.260183349609375,0.00022907429956831038,0.00007635809743078426,0.0015271619195118546
1772720889705779700,5.27877978515625,0.0005345066892914474,-0.0005345066892914474,0.0015271619195118546
1772720889724376000,5.2973759765625,0.00022907429956831038,0.00007635809743078426,0.001221729558892548
1772720889742972400,5.315972412109375,0.0005345066892914474,-0.0011453714687377214,0.001832594396546483
1772720889761568800,5.33456884765625,-0.0006872228696011007,-0.00022907429956831038,0.0009162971982732415
1772720889780165000,5.3531650390625,0.000839939049910754,0.00007635809743078426,0.001221729558892548
1772720889798761700,5.37176171875,-0.0012980876490473747,0.00038179047987796366,0.0009162971982732415
1772720889817358000,5.390358154296875,-0.0006872228696011007,0.00038179047987796366,0.0021380267571657896
1772720889835954400,5.408954345703125,0.0005345066892914474,0.00038179047987796366,0.000610864779446274
1772720889854550800,5.42755078125,-0.0006872228696011007,-0.001450803829357028,0.0009162971982732415
1772720889873147100,5.446147216796875,-0.00038179047987796366,-0.000839939049910754,0.0009162971982732415
1772720889891743500,5.464743408203125,-0.00038179047987796366,0.00038179047987796366,0.000610864779446274
1772720889910339800,5.48333984375,-0.00007635809743078426,-0.000839939049910754,0.0009162971982732415
1772720889928936200,5.501936279296875,0.000839939049910754,0.00038179047987796366,0.0015271619195118546
1772720889947532500,5.520532470703125,-0.00038179047987796366,0.0006872228696011007,0.001221729558892548
1772720889966129000,5.53912890625,0.00022907429956831038,-0.0011453714687377214,0.000610864779446274
1772720889984725200,5.557725341796875,-0.0006872228696011007,0.0009926552884280682,0.0009162971982732415
1772720890003321600,5.576321533203125,0.0005345066892914474,-0.0005345066892914474,0.001221729558892548
1772720890021918000,5.59491796875,0.0005345066892914474,0.00038179047987796366,0.0015271619195118546
1772720890040514300,5.613514404296875,-0.0006872228696011007,-0.00022907429956831038,0.0015271619195118546
1772720890059110700,5.632110595703125,-0.00007635809743078426,-0.0011453714687377214,0.0009162971982732415
1772720890077707000,5.65070703125,-0.0006872228696011007,-0.00022907429956831038,0.0009162971982732415
1772720890096303400,5.669303466796875,-0.0012980876490473747,-0.00022907429956831038,0
1772720890114899700,5.687899658203125,-0.00038179047987796366,-0.00022907429956831038,0.001221729558892548
1772720890133496000,5.70649609375,0.00022907429956831038,0.00007635809743078426,0.001832594396546483
1772720890152092400,5.725092529296875,-0.00038179047987796366,-0.00022907429956831038,0.000610864779446274
1772720890170688800,5.743688720703125,-0.0006872228696011007,-0.0011453714687377214,0.000610864779446274
1772720890189285000,5.76228515625,-0.00038179047987796366,0.00038179047987796366,0.0015271619195118546
1772720890207881500,5.780881591796875,0.0005345066892914474,0.00038179047987796366,0.001221729558892548
1772720890226477800,5.799477783203125,-0.0006872228696011007,-0.0005345066892914474,0.001221729558892548
1772720890245074400,5.818074462890625,-0.00007635809743078426,0.00038179047987796366,0.001221729558892548
1772720890263670800,5.8366708984375,-0.0009926552884280682,0.00007635809743078426,0
1772720890282267100,5.85526708984375,-0.00038179047987796366,0.0006872228696011007,0.001221729558892548
1772720890300863500,5.873863525390625,-0.00038179047987796366,0.00007635809743078426,0.001221729558892548
1772720890319459800,5.8924599609375,-0.00007635809743078426,-0.00022907429956831038,0.000610864779446274
1772720890338056200,5.91105615234375,-0.00007635809743078426,0.00038179047987796366,0.001221729558892548
1772720890356652500,5.929652587890625,-0.0006872228696011007,0.00007635809743078426,0.001221729558892548
1772720890375248600,5.94824853515625,-0.00007635809743078426,-0.00022907429956831038,0.001832594396546483
1772720890393845000,5.966844970703125,0.00022907429956831038,0.0006872228696011007,0.0021380267571657896
1772720890412441300,5.98544140625,-0.00007635809743078426,0.00007635809743078426,0.001221729558892548
1772720890431037700,6.00403759765625,-0.00038179047987796366,-0.00022907429956831038,0.0015271619195118546
1772720890449634000,6.022634033203125,0.0005345066892914474,-0.00022907429956831038,0.0009162971982732415
1772720890468230400,6.04123046875,0.00022907429956831038,0.00007635809743078426,0.000305432389723137
1772720890486826800,6.05982666015625,-0.00007635809743078426,-0.000839939049910754,0.0015271619195118546
1772720890505423000,6.078423095703125,-0.00038179047987796366,0.00007635809743078426,0.000610864779446274
1772720890524019500,6.09701953125,-0.00038179047987796366,0.00007635809743078426,0.0015271619195118546
1772720890542615800,6.11561572265625,-0.00038179047987796366,0.00038179047987796366,-0.000305432389723137
1772720890561212200,6.134212158203125,-0.00007635809743078426,-0.00022907429956831038,0.000305432389723137
1772720890579808500,6.15280859375,-0.00007635809743078426,-0.0005345066892914474,0.000305432389723137
1772720890598404900,6.17140478515625,-0.0006872228696011007,-0.00022907429956831038,0.001221729558892548
1772720890617001200,6.190001220703125,-0.0006872228696011007,0.0006872228696011007,0.0009162971982732415
1772720890635597300,6.208597412109375,0.00022907429956831038,-0.0005345066892914474,0.001221729558892548
1772720890654193700,6.227193603515625,-0.00007635809743078426,0.00038179047987796366,0.0009162971982732415
1772720890672790000,6.2457900390625,-0.00007635809743078426,0.00007635809743078426,0.000305432389723137
1772720890691386400,6.264386474609375,-0.00007635809743078426,0.00038179047987796366,0.000305432389723137
1772720890709982700,6.282982666015625,0.0005345066892914474,-0.0005345066892914474,0.000610864779446274
1772720890728579000,6.3015791015625,-0.0006872228696011007,-0.00022907429956831038,0.000610864779446274
1772720890747175400,6.320175537109375,0.00022907429956831038,0.00007635809743078426,0.0009162971982732415
1772720890765771800,6.338771728515625,-0.0006872228696011007,0.00038179047987796366,0.0009162971982732415
1772720890784368000,6.3573681640625,-0.0009926552884280682,0.00007635809743078426,0.000610864779446274
1772720890802964500,6.375964599609375,0.00022907429956831038,-0.00022907429956831038,0.001832594396546483
1772720890821560800,6.394560791015625,-0.00038179047987796366,0.00007635809743078426,0.001832594396546483
1772720890840157200,6.4131572265625,-0.00038179047987796366,-0.0005345066892914474,0.001221729558892548
1772720890858753500,6.43175341796875,-0.00007635809743078426,-0.00022907429956831038,0.001221729558892548
1772720890877349600,6.450349609375,-0.0006872228696011007,0.00007635809743078426,0.0009162971982732415
1772720890895946000,6.468946044921875,-0.00007635809743078426,-0.00022907429956831038,0.001221729558892548
1772720890914542300,6.487542236328125,0.0005345066892914474,-0.00022907429956831038,0.000305432389723137
1772720890933138700,6.506138671875,0.00022907429956831038,-0.0005345066892914474,0.000610864779446274
1772720890951735000,6.524735107421875,-0.00038179047987796366,-0.00022907429956831038,0.000610864779446274
1772720890970331400,6.543331298828125,-0.00007635809743078426,-0.00022907429956831038,0.0015271619195118546
1772720890988927700,6.561927734375,-0.00007635809743078426,0.00038179047987796366,0.0009162971982732415
1772720891007524000,6.580524169921875,-0.00038179047987796366,0.00038179047987796366,0.0009162971982732415
1772720891026120400,6.599120361328125,-0.00038179047987796366,0.00007635809743078426,0.000610864779446274
1772720891044716800,6.617716796875,-0.0009926552884280682,-0.00022907429956831038,-0.0009162971982732415
1772720891063313000,6.63631298828125,0.00022907429956831038,0.00038179047987796366,0.001832594396546483
1772720891081909200,6.6549091796875,-0.00038179047987796366,-0.0005345066892914474,0.001221729558892548
1772720891100505600,6.673505615234375,-0.00007635809743078426,-0.00022907429956831038,0.001221729558892548
1772720891119102000,6.69210205078125,-0.0006872228696011007,0.00007635809743078426,0.0015271619195118546
1772720891137698300,6.7106982421875,-0.00038179047987796366,0.00007635809743078426,0.000610864779446274
1772720891156294400,6.72929443359375,0.00022907429956831038,0.00007635809743078426,0.001221729558892548
1772720891174890800,6.747890869140625,-0.0006872228696011007,0.00038179047987796366,0.001221729558892548
1772720891193487000,6.766487060546875,-0.00007635809743078426,0.00038179047987796366,0.001221729558892548
1772720891212083500,6.78508349609375,0.0005345066892914474,0.0006872228696011007,0.001221729558892548
1772720891230679800,6.8036796875,-0.00038179047987796366,-0.00022907429956831038,0.001221729558892548
1772720891249276200,6.822276123046875,-0.0012980876490473747,-0.0005345066892914474,0.0009162971982732415
1772720891267872500,6.84087255859375,-0.00007635809743078426,-0.00022907429956831038,0.0009162971982732415
1772720891286468900,6.85946875,-0.00038179047987796366,-0.0011453714687377214,0.0009162971982732415
1772720891305065000,6.87806494140625,-0.0006872228696011007,-0.00022907429956831038,0.000610864779446274
1772720891323661300,6.896661376953125,-0.0009926552884280682,-0.0005345066892914474,0.0009162971982732415
1772720891342257700,6.915257568359375,-0.0006872228696011007,0.00007635809743078426,0.0009162971982732415
1772720891360854000,6.93385400390625,-0.0012980876490473747,0.00007635809743078426,0.0009162971982732415
1772720891379450400,6.952450439453125,-0.0006872228696011007,-0.00022907429956831038,0.000305432389723137
1772720891398046700,6.971046630859375,-0.00038179047987796366,0.00007635809743078426,0.001221729558892548
1772720891416642800,6.989642822265625,-0.00038179047987796366,0.00007635809743078426,0.000610864779446274
1772720891435239200,7.0082392578125,-0.00007635809743078426,-0.00022907429956831038,0.0015271619195118546
1772720891453835500,7.02683544921875,-0.0006872228696011007,-0.00022907429956831038,0.0015271619195118546
1772720891472431900,7.045431884765625,-0.00007635809743078426,-0.00022907429956831038,0.0009162971982732415
1772720891491028000,7.064028076171875,-0.00038179047987796366,-0.00022907429956831038,0.001221729558892548
1772720891509624300,7.082624267578125,-0.0006872228696011007,-0.0005345066892914474,0.000305432389723137
1772720891528220700,7.101220703125,-0.00007635809743078426,0.00007635809743078426,0.0015271619195118546
1772720891546817000,7.119817138671875,-0.00007635809743078426,-0.00022907429956831038,0
1772720891565413400,7.138413330078125,-0.00038179047987796366,-0.000839939049910754,0.0009162971982732415
1772720891584009700,7.157009765625,-0.00007635809743078426,0.00038179047987796366,0.000610864779446274
1772720891602605800,7.175605712890625,0.00022907429956831038,-0.00022907429956831038,0.001221729558892548
1772720891621202200,7.1942021484375,-0.00007635809743078426,-0.0005345066892914474,0.001221729558892548
1772720891639798500,7.212798583984375,-0.00038179047987796366,-0.0005345066892914474,0.0009162971982732415
1772720891658394600,7.23139453125,-0.0012980876490473747,0.00038179047987796366,0.0009162971982732415
1772720891676991000,7.249990966796875,-0.00007635809743078426,-0.00022907429956831038,0.0009162971982732415
1772720891695587300,7.26858740234375,-0.0006872228696011007,0.00007635809743078426,0.0009162971982732415
1772720891714183700,7.28718359375,-0.0009926552884280682,0.00007635809743078426,0.0015271619195118546
1772720891732780000,7.305780029296875,-0.00038179047987796366,0.00007635809743078426,0.0015271619195118546
1772720891751376100,7.324376220703125,-0.00038179047987796366,-0.0005345066892914474,0.000610864779446274
1772720891769972500,7.342972412109375,-0.00038179047987796366,0.00038179047987796366,0.000610864779446274
1772720891788568800,7.36156884765625,0.00022907429956831038,-0.000839939049910754,0.0015271619195118546
1772720891807165000,7.3801650390625,0.0005345066892914474,0.00038179047987796366,0.000305432389723137
1772720891825761300,7.39876123046875,0.0005345066892914474,-0.00022907429956831038,0.0015271619195118546
1772720891844357600,7.417357666015625,-0.00038179047987796366,-0.00022907429956831038,0.0015271619195118546
1772720891862954000,7.4359541015625,-0.0009926552884280682,0.00038179047987796366,-0.000305432389723137
1772720891881550300,7.45455029296875,-0.0006872228696011007,-0.00022907429956831038,0.001221729558892548
1772720891900146400,7.473146484375,0.00022907429956831038,-0.00022907429956831038,0.001832594396546483
1772720891918742800,7.49174267578125,-0.00038179047987796366,0.00007635809743078426,0.0009162971982732415
1772720891937339100,7.510339111328125,-0.00038179047987796366,0.00007635809743078426,0.001221729558892548
1772720891955935200,7.528935302734375,-0.00007635809743078426,0.00007635809743078426,0.0015271619195118546
1772720891974531600,7.547531494140625,0.00022907429956831038,-0.00022907429956831038,0.000610864779446274
1772720891993128000,7.5661279296875,-0.0012980876490473747,-0.00022907429956831038,0
1772720892011724300,7.584724365234375,-0.0012980876490473747,-0.0005345066892914474,0.0009162971982732415
1772720892030320400,7.6033203125,0.000839939049910754,0.00007635809743078426,0.0009162971982732415
1772720892048916700,7.621916748046875,-0.0006872228696011007,-0.00022907429956831038,0.000305432389723137
1772720892067513000,7.64051318359375,0.0005345066892914474,-0.00022907429956831038,0.001221729558892548
1772720892086109200,7.659109130859375,-0.0006872228696011007,-0.0005345066892914474,0.000610864779446274
1772720892104705500,7.67770556640625,0.00022907429956831038,-0.000839939049910754,0.0009162971982732415
1772720892123302000,7.696302001953125,0.00022907429956831038,0.00038179047987796366,0.000610864779446274
1772720892141898200,7.714898193359375,-0.0006872228696011007,0.00007635809743078426,0.000610864779446274
1772720892160494300,7.733494384765625,0.0005345066892914474,-0.0005345066892914474,0.0009162971982732415
1772720892179090700,7.752090576171875,0.00022907429956831038,-0.0005345066892914474,0.000610864779446274
1772720892197686800,7.770686767578125,0.0005345066892914474,0.00007635809743078426,0.0009162971982732415
1772720892216283100,7.789283203125,-0.00038179047987796366,-0.00022907429956831038,0
1772720892234879500,7.80787939453125,-0.00038179047987796366,0.00007635809743078426,0.000305432389723137
1772720892253475800,7.826475830078125,-0.00038179047987796366,0.00007635809743078426,0.001221729558892548
1772720892272072000,7.845072021484375,-0.0006872228696011007,0.00007635809743078426,0.001832594396546483
1772720892290668300,7.863668212890625,-0.00007635809743078426,0.00007635809743078426,0.0015271619195118546
1772720892309264600,7.8822646484375,0.0005345066892914474,0.00007635809743078426,0.000305432389723137
1772720892327861000,7.900861083984375,-0.00007635809743078426,-0.000839939049910754,0.0009162971982732415
1772720892346457000,7.91945703125,-0.0006872228696011007,0.00007635809743078426,0.000610864779446274
1772720892365053400,7.938053466796875,-0.00038179047987796366,0.00007635809743078426,0
1772720892383649500,7.9566494140625,0.0005345066892914474,0.00007635809743078426,0.000610864779446274
1772720892402246000,7.975245849609375,-0.00007635809743078426,0.0006872228696011007,0.000305432389723137
1772720892420842200,7.99384228515625,0.00022907429956831038,0.00038179047987796366,0.0009162971982732415
1772720892439438600,8.0124384765625,-0.00038179047987796366,0.0006872228696011007,0.000610864779446274
1772720892458034700,8.03103466796875,-0.0006872228696011007,-0.00022907429956831038,0.0009162971982732415
1772720892476631000,8.049631103515624,-0.00038179047987796366,0.00007635809743078426,0.0009162971982732415
1772720892495227100,8.06822705078125,-0.0006872228696011007,-0.000839939049910754,0.000305432389723137
1772720892513823500,8.086823486328125,-0.00007635809743078426,-0.00022907429956831038,0.0015271619195118546
1772720892532419800,8.105419921875,-0.00007635809743078426,-0.00022907429956831038,0.000610864779446274
1772720892551016200,8.12401611328125,-0.00007635809743078426,0.00007635809743078426,0
1772720892569612300,8.1426123046875,-0.00007635809743078426,-0.00022907429956831038,0.0009162971982732415
1772720892588208600,8.161208740234375,-0.00038179047987796366,0.00038179047987796366,0.001221729558892548
1772720892606804700,8.1798046875,-0.00038179047987796366,0.00007635809743078426,-0.000305432389723137
1772720892625401000,8.198401123046875,-0.00007635809743078426,-0.0005345066892914474,0.000610864779446274
1772720892643997400,8.21699755859375,-0.00007635809743078426,-0.00022907429956831038,0.000610864779446274
1772720892662593500,8.235593505859375,0.00022907429956831038,-0.0005345066892914474,0.0009162971982732415
1772720892681190000,8.25418994140625,-0.00007635809743078426,0.00007635809743078426,0.000610864779446274
1772720892699786200,8.2727861328125,-0.00007635809743078426,-0.00022907429956831038,0.0015271619195118546
1772720892718382300,8.29138232421875,-0.00038179047987796366,0.00007635809743078426,0.001221729558892548
1772720892736978700,8.309978759765626,-0.00007635809743078426,-0.000839939049910754,0.000610864779446274
1772720892755575000,8.328574951171875,-0.00038179047987796366,-0.00022907429956831038,0.0009162971982732415
1772720892774171100,8.347171142578125,0.0005345066892914474,0.00007635809743078426,0.000610864779446274
1772720892792767500,8.365767578125,0.00022907429956831038,-0.00022907429956831038,0.000610864779446274
1772720892811363600,8.384363525390626,-0.00007635809743078426,0.0006872228696011007,0.000610864779446274
1772720892829960000,8.4029599609375,-0.00038179047987796366,-0.00022907429956831038,0.0009162971982732415
1772720892848556300,8.421556396484375,-0.00038179047987796366,0.00038179047987796366,0.000305432389723137
1772720892867152600,8.440152587890625,-0.00038179047987796366,0.00007635809743078426,0.001221729558892548
1772720892885748700,8.458748779296876,-0.00038179047987796366,-0.00022907429956831038,0.0009162971982732415
1772720892904345000,8.477344970703125,-0.0009926552884280682,0.00007635809743078426,0.000610864779446274
1772720892922941200,8.495941162109375,-0.0009926552884280682,-0.00022907429956831038,0.000610864779446274
1772720892941537500,8.51453759765625,-0.0006872228696011007,0.00038179047987796366,0.0009162971982732415
1772720892960134000,8.5331337890625,-0.00007635809743078426,-0.00022907429956831038,0.000610864779446274
1772720892978730000,8.55172998046875,-0.00038179047987796366,-0.00022907429956831038,0.0009162971982732415
1772720892997326300,8.570326416015625,-0.00038179047987796366,-0.00022907429956831038,0.000610864779446274
1772720893015922400,8.58892236328125,-0.00007635809743078426,-0.000839939049910754,0.001221729558892548
1772720893034518800,8.607518798828124,-0.00038179047987796366,0.00007635809743078426,0.0009162971982732415
1772720893053115100,8.626115234375,0.0005345066892914474,0.00007635809743078426,0.001221729558892548
1772720893071711200,8.644711181640625,-0.00007635809743078426,0.00038179047987796366,0.000305432389723137
1772720893090307600,8.6633076171875,-0.00038179047987796366,-0.00022907429956831038,0
1772720893108903700,8.681903564453124,-0.0009926552884280682,-0.0005345066892914474,0.000305432389723137
1772720893127500000,8.7005,-0.00038179047987796366,-0.00022907429956831038,0.001221729558892548
1772720893146096400,8.719096435546875,-0.00038179047987796366,0.00007635809743078426,0.000305432389723137
1772720893164692500,8.7376923828125,-0.00007635809743078426,-0.00022907429956831038,0.000305432389723137
1772720893183288800,8.756288818359375,0.000839939049910754,0.00007635809743078426,0.0009162971982732415
1772720893201885000,8.774885009765624,0.00022907429956831038,0.00007635809743078426,0.0009162971982732415
1772720893220481300,8.793481201171875,-0.00038179047987796366,-0.00022907429956831038,0.000610864779446274
1772720893239077600,8.81207763671875,-0.0009926552884280682,0.00007635809743078426,0.0009162971982732415
1772720893257673700,8.830673828125,-0.00038179047987796366,-0.0005345066892914474,0.0015271619195118546
1772720893276270000,8.84927001953125,-0.00007635809743078426,-0.00022907429956831038,0.0009162971982732415
1772720893294866200,8.8678662109375,-0.0006872228696011007,-0.0005345066892914474,0.001221729558892548
1772720893313462500,8.886462646484375,-0.00038179047987796366,0.0006872228696011007,0.0015271619195118546
1772720893332059000,8.905058837890625,0.00022907429956831038,0.00007635809743078426,0.0009162971982732415
1772720893350655000,8.923655029296874,-0.00007635809743078426,-0.0005345066892914474,0.000610864779446274
1772720893369251300,8.942251220703126,0.00022907429956831038,0.00007635809743078426,0.0009162971982732415
1772720893387847400,8.960847412109375,-0.0006872228696011007,-0.00022907429956831038,0
1772720893406443800,8.97944384765625,0.00022907429956831038,-0.00022907429956831038,0.000305432389723137
1772720893425040100,8.9980400390625,-0.00007635809743078426,0.00038179047987796366,0.001221729558892548
1772720893443636200,9.01663623046875,-0.0006872228696011007,-0.0005345066892914474,0
1772720893462232600,9.035232666015625,0.00022907429956831038,0.00007635809743078426,0.001221729558892548
1772720893480828700,9.05382861328125,-0.0006872228696011007,-0.0005345066892914474,0.0009162971982732415
1772720893499425000,9.072425048828125,-0.00038179047987796366,0.00007635809743078426,0.000610864779446274
1772720893518021400,9.091021484375,-0.0012980876490473747,0.00007635809743078426,0.001221729558892548
1772720893536617500,9.109617431640626,-0.00038179047987796366,-0.00022907429956831038,0.000610864779446274
1772720893555213800,9.1282138671875,-0.0006872228696011007,0.00007635809743078426,0
1772720893573810000,9.146809814453125,0.00022907429956831038,0.00007635809743078426,0.000610864779446274
1772720893592406300,9.16540625,-0.00038179047987796366,-0.00022907429956831038,0.000610864779446274
1772720893611002600,9.184002685546876,-0.0012980876490473747,-0.00022907429956831038,0.000305432389723137
1772720893629598700,9.2025986328125,0.00022907429956831038,-0.0005345066892914474,0.0009162971982732415
1772720893648195000,9.221195068359375,-0.0006872228696011007,-0.00022907429956831038,0.0009162971982732415
1772720893666791200,9.239791259765624,-0.00038179047987796366,-0.000839939049910754,0.001221729558892548
1772720893685387500,9.258387451171876,-0.0006872228696011007,0.00038179047987796366,0.000610864779446274
1772720893703983600,9.276983642578125,-0.00038179047987796366,-0.0005345066892914474,0.0015271619195118546
1772720893722580000,9.295580078125,-0.0009926552884280682,-0.000839939049910754,0.001221729558892548
1772720893741176000,9.314176025390625,-0.00007635809743078426,0.00007635809743078426,0.000305432389723137
1772720893759772400,9.3327724609375,-0.0006872228696011007,0.00007635809743078426,0.0009162971982732415
1772720893778368800,9.35136865234375,0.00022907429956831038,0.00038179047987796366,0.001221729558892548
1772720893796964900,9.36996484375,0.00022907429956831038,-0.0005345066892914474,0.0009162971982732415
1772720893815561200,9.388561279296875,-0.00007635809743078426,-0.0005345066892914474,0.001221729558892548
1772720893834157300,9.4071572265625,0.00022907429956831038,-0.0005345066892914474,0.000610864779446274
1772720893852753700,9.425753662109376,-0.0012980876490473747,0.00007635809743078426,0.000305432389723137
1772720893871349800,9.444349853515625,-0.00007635809743078426,0.00007635809743078426,0.0015271619195118546
1772720893889946000,9.462946044921875,-0.00038179047987796366,0.00038179047987796366,0.0009162971982732415
1772720893908542200,9.481542236328124,-0.00038179047987796366,-0.0005345066892914474,0
1772720893927138600,9.500138671875,-0.00007635809743078426,-0.00022907429956831038,0
1772720893945735000,9.51873486328125,0.0005345066892914474,-0.0005345066892914474,0.000610864779446274
1772720893964331000,9.5373310546875,-0.00038179047987796366,-0.0011453714687377214,0.000610864779446274
1772720893982927400,9.55592724609375,-0.0009926552884280682,0.0006872228696011007,0.0009162971982732415
1772720894001523500,9.5745234375,0.00022907429956831038,-0.0005345066892914474,0.001221729558892548
1772720894020119800,9.593119873046875,-0.00038179047987796366,0.00038179047987796366,0.0009162971982732415
1772720894038716000,9.6117158203125,-0.00007635809743078426,-0.00022907429956831038,0.0009162971982732415
1772720894057312300,9.630312255859375,-0.0012980876490473747,0.0009926552884280682,0.0009162971982732415
1772720894075908400,9.648908447265624,-0.00007635809743078426,-0.00022907429956831038,0
1772720894094504700,9.667504638671875,0.000839939049910754,-0.000839939049910754,0.001221729558892548
1772720894113100800,9.686100830078125,0.00022907429956831038,-0.0005345066892914474,0.001221729558892548
1772720894131697200,9.704697265625,-0.0006872228696011007,0.0006872228696011007,0.000305432389723137
1772720894150293200,9.723293212890624,-0.0009926552884280682,0.00007635809743078426,0.001832594396546483
1772720894168889600,9.7418896484375,-0.00007635809743078426,-0.00022907429956831038,0.001221729558892548
1772720894187486000,9.76048583984375,0.0005345066892914474,0.00038179047987796366,0.000610864779446274
1772720894206082000,9.77908203125,0.00022907429956831038,-0.0005345066892914474,0.0009162971982732415
1772720894224678100,9.79767822265625,-0.00007635809743078426,-0.000839939049910754,0.0009162971982732415
1772720894243274500,9.8162744140625,-0.0006872228696011007,-0.0005345066892914474,0.001221729558892548
1772720894261870800,9.834870849609375,-0.00007635809743078426,-0.0005345066892914474,0
1772720894280467000,9.853467041015625,-0.0009926552884280682,0.0006872228696011007,0.0015271619195118546
1772720894299063000,9.87206298828125,-0.0016035200096666813,0.00038179047987796366,0.001221729558892548
1772720894317659400,9.890659423828126,-0.0006872228696011007,-0.00022907429956831038,0.000610864779446274
1772720894336255700,9.909255859375,0.00022907429956831038,-0.0011453714687377214,0.000610864779446274
1772720894354851800,9.927851806640625,0.00022907429956831038,-0.000839939049910754,0.000305432389723137
1772720894373448000,9.946447998046875,0.00022907429956831038,-0.00022907429956831038,0.0009162971982732415
1772720894392044300,9.965044189453126,-0.00007635809743078426,0.0009926552884280682,0.0009162971982732415
1772720894410640600,9.983640625,-0.0009926552884280682,0.0012980876490473747,0.001221729558892548
1772720894429236700,10.00223681640625,-0.00038179047987796366,-0.00022907429956831038,0.000610864779446274
1772720894447832800,10.020832763671875,0.00022907429956831038,-0.0005345066892914474,0.0009162971982732415
1772720894466429200,10.03942919921875,0.00022907429956831038,-0.0005345066892914474,0.000305432389723137
1772720894485025500,10.058025634765626,-0.0006872228696011007,-0.0005345066892914474,0
1772720894503621600,10.07662158203125,-0.0006872228696011007,0.00038179047987796366,0.0009162971982732415
1772720894522217700,10.0952177734375,-0.0012980876490473747,0.00007635809743078426,0.001221729558892548
1772720894540814000,10.11381396484375,-0.00007635809743078426,0.00038179047987796366,0.001221729558892548
1772720894559410200,10.13241015625,-0.0019089524867013097,-0.00022907429956831038,0.000305432389723137
1772720894578006500,10.151006591796875,-0.00038179047987796366,0.00007635809743078426,0.0009162971982732415
1772720894596602600,10.1696025390625,-0.00007635809743078426,0.00038179047987796366,0.000610864779446274
1772720894615199000,10.188198974609374,-0.0006872228696011007,0.00007635809743078426,0.0009162971982732415
1772720894633795000,10.206795166015626,0.0005345066892914474,0.00038179047987796366,0.000305432389723137
1772720894652391400,10.225391357421875,-0.00007635809743078426,-0.000839939049910754,-0.000305432389723137
1772720894670987500,10.243987548828125,0.00022907429956831038,0.00007635809743078426,0.000305432389723137
1772720894689583900,10.262583984375,-0.00038179047987796366,-0.0005345066892914474,0
1772720894708180000,10.281179931640626,-0.00038179047987796366,0.00007635809743078426,0.001221729558892548
1772720894726776000,10.299776123046875,-0.00007635809743078426,0.0006872228696011007,0.0009162971982732415
1772720894745372400,10.318372314453125,-0.0009926552884280682,0.00038179047987796366,0.001221729558892548
1772720894763968800,10.33696875,-0.00007635809743078426,0.00007635809743078426,0.001221729558892548
1772720894782564900,10.35556494140625,0.00022907429956831038,0.00007635809743078426,0
1772720894801161000,10.374160888671875,0.00022907429956831038,-0.0005345066892914474,0.000610864779446274
1772720894819757300,10.39275732421875,-0.00007635809743078426,0.00038179047987796366,0.000610864779446274
1772720894838353400,10.411353515625,-0.00038179047987796366,-0.0005345066892914474,0.0009162971982732415
1772720894856949800,10.42994970703125,-0.00007635809743078426,-0.00022907429956831038,0.000305432389723137
1772720894875545900,10.4485458984375,-0.0006872228696011007,-0.00022907429956831038,0
1772720894894142200,10.46714208984375,-0.00007635809743078426,-0.00022907429956831038,0.0009162971982732415
1772720894912738300,10.48573828125,-0.00038179047987796366,-0.000839939049910754,0.000610864779446274
1772720894931334400,10.50433447265625,-0.00007635809743078426,0.00007635809743078426,0.000610864779446274
1772720894949930800,10.5229306640625,-0.0009926552884280682,0.0006872228696011007,0.000610864779446274
1772720894968526800,10.54152685546875,0.000839939049910754,0.00038179047987796366,0.0009162971982732415
1772720894987123200,10.560123291015625,-0.00038179047987796366,-0.000839939049910754,-0.000610864779446274
1772720895005719300,10.57871923828125,-0.0006872228696011007,0.00038179047987796366,-0.000305432389723137
1772720895024315600,10.597315673828126,0.00022907429956831038,-0.00022907429956831038,0.001221729558892548
1772720895042911700,10.615911865234375,-0.0009926552884280682,-0.00022907429956831038,0.000305432389723137
1772720895061507800,10.6345078125,-0.00038179047987796366,0.00007635809743078426,0.000610864779446274
1772720895080104200,10.653104248046875,-0.0006872228696011007,-0.00022907429956831038,0
1772720895098700300,10.6717001953125,-0.0006872228696011007,0.00038179047987796366,0.000305432389723137
1772720895117296400,10.69029638671875,-0.00038179047987796366,0.00038179047987796366,0.001221729558892548
1772720895135892700,10.708892822265625,-0.00038179047987796366,-0.00022907429956831038,-0.000305432389723137
1772720895154488800,10.72748876953125,-0.0006872228696011007,0.00038179047987796366,0.0015271619195118546
1772720895173085200,10.746085205078124,-0.0006872228696011007,0.00007635809743078426,0.000305432389723137
1772720895191681300,10.764681396484375,-0.0016035200096666813,-0.0005345066892914474,0.000610864779446274
1772720895210277600,10.783277587890625,-0.00007635809743078426,-0.0005345066892914474,0.001221729558892548
1772720895228873700,10.801873779296875,-0.0006872228696011007,0.0006872228696011007,0.0009162971982732415
1772720895247469800,10.8204697265625,-0.0009926552884280682,0.00007635809743078426,0.001221729558892548
1772720895266066200,10.839066162109376,-0.0012980876490473747,-0.00022907429956831038,0.000305432389723137
1772720895284662300,10.857662353515625,-0.0016035200096666813,-0.00022907429956831038,0.000610864779446274
1772720895303258400,10.87625830078125,-0.00038179047987796366,0.00038179047987796366,0.000305432389723137
1772720895321854700,10.894854736328124,-0.0006872228696011007,-0.0011453714687377214,0.000610864779446274
1772720895340450800,10.913450927734376,-0.0006872228696011007,0.0009926552884280682,0.000610864779446274
1772720895359047000,10.932046875,0.0005345066892914474,-0.000839939049910754,0.001221729558892548
1772720895377643300,10.950643310546875,-0.0009926552884280682,0.00038179047987796366,0
1772720895396239400,10.9692392578125,-0.0012980876490473747,0.00007635809743078426,0
1772720895414835700,10.987835693359376,-0.0009926552884280682,0.00038179047987796366,0.000610864779446274
1772720895433431800,11.006431884765625,-0.00007635809743078426,-0.0011453714687377214,0.0009162971982732415
1772720895452028200,11.025028076171875,-0.00038179047987796366,0.00007635809743078426,0.000305432389723137
1772720895470624300,11.043624267578124,-0.00038179047987796366,0.00007635809743078426,0.001221729558892548
1772720895489220400,11.062220458984376,-0.00007635809743078426,0.00007635809743078426,0.000610864779446274
1772720895507816700,11.080816650390625,-0.00007635809743078426,0.00007635809743078426,-0.000305432389723137
1772720895526412800,11.099412841796875,-0.0006872228696011007,-0.0005345066892914474,0.000610864779446274
1772720895545009000,11.1180087890625,-0.00038179047987796366,-0.00022907429956831038,0.000610864779446274
1772720895563605200,11.136605224609376,-0.0012980876490473747,0.00007635809743078426,0.0009162971982732415
1772720895582201300,11.155201416015625,-0.0009926552884280682,0.0006872228696011007,0.000305432389723137
1772720895600797400,11.17379736328125,-0.00038179047987796366,0.00007635809743078426,0.000610864779446274
1772720895619393800,11.192393798828125,-0.00038179047987796366,0.00007635809743078426,0.000610864779446274
1772720895637990000,11.210989990234374,-0.0006872228696011007,0.00038179047987796366,0.0009162971982732415
1772720895656586000,11.2295859375,-0.00007635809743078426,-0.00022907429956831038,0.0009162971982732415
1772720895675182300,11.248182373046875,-0.0006872228696011007,0.00038179047987796366,0.000610864779446274
1772720895693778400,11.2667783203125,-0.00038179047987796366,0.014431680552661419,0.010690134018659592
1772720895712374800,11.285374755859374,0.0005345066892914474,-0.003894262947142124,0.001221729558892548
1772720895730971000,11.303970947265626,-0.0012980876490473747,0.03764454275369644,0.01740964688360691
1772720895749567000,11.32256689453125,0.00022907429956831038,-0.017944153398275375,-0.008857538923621178
1772720895768163300,11.341163330078125,0.001450803829357028,-0.04085158184170723,-0.020158538594841957
1772720895786759400,11.359759521484374,-0.0012980876490473747,0.0022143847309052944,0.001832594396546483
