time,seconds_elapsed,z,y,x
1772796593898336500,0.07433642578125,0.1024380456894636,-0.1656371369242668,0.6180874746799468
1772796593908328200,0.084328125,0.09649871876835822,-0.18738222800344229,0.506011539812386
1772796593918320400,0.0943203125,0.1004512557864189,-0.2517817810691893,0.3399964364212006
1772796593928312300,0.104312255859375,0.047485973796248436,-0.3323099005065858,0.16669541380554437
1772796593938304300,0.11430419921875,-0.010352467188239097,-0.3768066293589771,0.04727605737261474
1772796593948296200,0.124296142578125,-0.013107903376221657,-0.3898253931470215,-0.028558643551543354
1772796593958289200,0.1342890625,-0.05386836830973625,-0.4153957416027784,-0.08857121370472014
1772796593968281300,0.14428125,-0.12162439219653606,-0.40122736938819287,-0.20071736426427958
1772796593978273300,0.154273193359375,-0.18566519495248793,-0.38250805587098,-0.32839119269289074
1772796593988265200,0.16426513671875,-0.21931553561985492,-0.36780981456339357,-0.37167255440615116
1772796593998257200,0.174257080078125,-0.22464403716623782,-0.3312134835720062,-0.3027714521374553
1772796594008249300,0.184249267578125,-0.18749124133586884,-0.2724079511210322,-0.2009396287128329
1772796594018241300,0.1942412109375,-0.12365151410996914,-0.21188173235729335,-0.12242635622918605
1772796594028233200,0.204233154296875,-0.10614683707952499,-0.15229133313894272,-0.13203406946472823
1772796594038225200,0.21422509765625,-0.15659750590026378,-0.14203633497580884,-0.2066157015878707
1772796594048217300,0.22421728515625,-0.23244506630599499,-0.1132319730348885,-0.2931429153095931
1772796594058209300,0.234209228515625,-0.3263748113691807,-0.0866942408517003,-0.39070802120044823
1772796594068201200,0.244201171875,-0.37715690410137176,-0.03837853823304176,-0.4052480762716382
1772796594078193200,0.254193115234375,-0.4498141440331936,-0.005711071123182773,-0.41153935843557116
1772796594088185300,0.264185302734375,-0.47315877926349637,0.003921265096962452,-0.42323045381642876
1772796594098177300,0.27417724609375,-0.4405389506876468,0.034686697977781296,-0.4084879349756986
1772796594108169200,0.284169189453125,-0.3016600568294525,0.09230550486221908,-0.4679110148031264
1772796594118161200,0.2941611328125,-0.19890110862255095,0.12843041894957422,-0.43498233947381376
1772796594128153300,0.3041533203125,-0.106978611728549,0.12303864290863274,-0.4013059145171195
1772796594138145300,0.314145263671875,-0.08627192378640175,0.0806285110719502,-0.40730573945380744
1772796594148138200,0.32413818359375,-0.0484936895340681,0.08000789495557546,-0.4907514999035746
1772796594158130200,0.334130126953125,-0.027231705796718596,0.11108531639501452,-0.579512390961498
1772796594168122400,0.344122314453125,0.006177227330207824,0.15977160589173436,-0.6196480750601738
1772796594178114000,0.354114013671875,0.0034399113208055496,0.17401406625583768,-0.5767421225305647
1772796594188106200,0.364106201171875,-0.026125790381431577,0.15622034315094352,-0.5270571773853153
1772796594198098200,0.37409814453125,-0.04819382980465889,0.16288389269337056,-0.5491648181665688
1772796594208090400,0.38409033203125,-0.0048953708261251444,0.19099238132461904,-0.5404490122694522
1772796594218082300,0.394082275390625,0.06372808354496956,0.18697423172444105,-0.5456341598223895
1772796594228074200,0.40407421875,0.15906886444985865,0.11558832690268754,-0.5256040559675544
1772796594238066200,0.414066162109375,0.2983516629338264,0.07988485309779643,-0.4760154838688671
1772796594248058400,0.424058349609375,0.4159668194890022,0.08006488583981991,-0.42771702464595435
1772796594258050300,0.43405029296875,0.5043184721589088,0.013017010222375391,-0.33423750756829973
1772796594268042200,0.444042236328125,0.6972960359513759,0.12009981297776103,-0.035669717665761706
1772796594278034200,0.4540341796875,0.9095581459283828,0.381253818026185,0.4430971107378602
1772796594288026400,0.4640263671875,1.0453092631548642,0.5347580340862274,0.6457527495883405
1772796594298018300,0.474018310546875,0.9395897115767001,0.14180252621993422,0.3855698545943945
1772796594308010000,0.484010009765625,0.7737485765129327,-0.16162424802109598,-0.017943579904362558
1772796594318002200,0.494002197265625,0.60616439717412,-0.16508520212993025,-0.26288740471228955
1772796594327994000,0.503994140625,0.507570751953125,-0.16057415444627404,-0.6453356932200491
1772796594337987000,0.513987060546875,0.40842707163393493,-0.3721284084148705,-1.0307137515693903
1772796594347979300,0.523979248046875,0.30896482688486576,-0.6123167823240161,-1.214686244194582
1772796594357971200,0.53397119140625,0.256305834364891,-0.7522047070942819,-1.2381829281814396
1772796594367963400,0.54396337890625,0.25399521933495994,-0.8001495305739342,-1.2693063807196914
1772796594377955000,0.553955078125,0.2904565257698297,-0.8140520914591849,-1.1999655718594788
1772796594387947300,0.563947265625,0.32787761714756486,-0.7874494773462414,-1.0116274313706903
1772796594397939200,0.573939208984375,0.4364753545105457,-0.7436326935820281,-0.8086911489479244
1772796594407931400,0.583931396484375,0.5767348890721797,-0.6286934782378375,-0.645264600745216
1772796594417923300,0.59392333984375,0.6732844612449407,-0.49826589412167666,-0.5500068950138985
1772796594427915000,0.6039150390625,0.7277303371816873,-0.4438939602039754,-0.48552682405784725
1772796594437907200,0.6139072265625,0.7396499075561761,-0.4491700009107589,-0.4215807869132608
1772796594447899100,0.623899169921875,0.6636836892068386,-0.541890662445128,-0.3050804597321898
1772796594457891300,0.633891357421875,0.5603098239719867,-0.6275671045564115,-0.32135822531618174
1772796594467883000,0.643883056640625,0.4830249242395162,-0.6563426787942648,-0.4218225232472643
1772796594477875200,0.653875244140625,0.4562333634257316,-0.6517286091275513,-0.49735433223471043
1772796594487867100,0.6638671875,0.44846097585856914,-0.7058725795082748,-0.5561766696900129
1772796594497859300,0.673859375,0.4080190753549337,-0.8163802421458065,-0.6208518248267472
1772796594507851000,0.68385107421875,0.37138065878748894,-0.9879276260271668,-0.7231569648515432
1772796594517844200,0.69384423828125,0.21423837848603725,-0.9435822883442043,-0.7742104949362576
1772796594527836400,0.70383642578125,0.07784311813712119,-0.9174715494014323,-0.6817554255355149
1772796594537828000,0.713828125,-0.011367781710624695,-1.0218392479792238,-0.672967431185022
1772796594547820300,0.7238203125,-0.013463292685151099,-1.162581305360794,-0.7458425516512245
1772796594557812200,0.733812255859375,-0.015049685093760489,-1.1515890789642929,-0.7723178130574524
1772796594567804200,0.74380419921875,-0.13540741835534573,-1.1021575240582226,-0.6584582096435129
1772796594577796000,0.753796142578125,-0.25998773774802686,-1.1425991323009133,-0.5773570395585149
1772796594587788000,0.7637880859375,-0.3664858724832535,-1.1650098476819692,-0.5759210884712637
1772796594597780200,0.7737802734375,-0.5060644390434026,-1.1818275653615593,-0.6445554295625537
1772796594607772200,0.783772216796875,-0.630329116615653,-1.1584554576024413,-0.6440560286730528
1772796594617764400,0.793764404296875,-0.7096586739182472,-1.128498418495059,-0.715826914224401
1772796594627756000,0.803756103515625,-0.6992968543797731,-1.0528586556211113,-0.7421069453194737
1772796594637748200,0.813748291015625,-0.6186509537816047,-0.990005747475475,-0.728083388403058
1772796594647740200,0.823740234375,-0.47307694619894025,-0.9439151735603809,-0.6289134776640684
1772796594657732400,0.833732421875,-0.32241993626356125,-0.8743092840231954,-0.4966621121868491
1772796594667724000,0.84372412109375,-0.20229367367029188,-0.8326425178997218,-0.41750140864513813
1772796594677716200,0.85371630859375,-0.10191840572953223,-0.8608785784333944,-0.3429755252972245
1772796594687708200,0.863708251953125,-0.07719137623012065,-0.8614654384106397,-0.29701654187254606
1772796594697701000,0.873701171875,-0.10093816252052783,-0.8742465940505265,-0.2694340498767793
1772796594707693000,0.883693115234375,-0.1242021337300539,-0.928345848506689,-0.20239289626106619
1772796594717685200,0.893685302734375,-0.144191028791666,-1.0573474914729595,-0.09521328206770122
1772796594727677200,0.90367724609375,-0.06935352221131325,-1.1084029943190514,-0.04715199260152876
1772796594737669000,0.913669189453125,0.013828618866205214,-1.0250608403742312,-0.15455167928636074
1772796594747661000,0.9236611328125,0.022864158236980438,-0.8954114010237156,-0.255793939319998
1772796594757653200,0.9336533203125,-0.1118237136721611,-0.7900716425433755,-0.2981481762509793
1772796594767645200,0.943645263671875,-0.31578795090317724,-0.7007509987108409,-0.39083880797326565
1772796594777637000,0.95363720703125,-0.4481874196141958,-0.5442839873224496,-0.4888002927705645
1772796594787629000,0.963629150390625,-0.41870647358596325,-0.26636516382545233,-0.5201957671832294
1772796594797621200,0.973621337890625,-0.29663433762192726,-0.025905864020437,-0.3972985055066645
1772796594807613200,0.98361328125,-0.17185177365541457,0.07641907668337225,-0.1327831342663616
1772796594817605400,0.99360546875,0.05826221935451031,0.13190657062754035,0.21022724314853547
1772796594827597000,1.00359716796875,0.4132949699312448,0.16762750702388585,0.5660290784016251
1772796594837589200,1.01358935546875,0.8598615103453398,0.19124277588911354,0.8392500264059751
1772796594847581200,1.023581298828125,1.379748138514161,0.2861066599972546,1.0127909221921116
1772796594857573400,1.033573486328125,1.8841829305291176,0.4136357461929321,1.1036137872811407
1772796594867566000,1.043566162109375,2.250290617349744,0.4832508419498801,1.151750260875374
1772796594877558300,1.053558349609375,2.5154402679055927,0.5291128678061068,1.1829223748609423
1772796594887550200,1.06355029296875,2.7314807273775337,0.5256364238671958,1.1891430029414594
1772796594897542100,1.073542236328125,2.886020131704211,0.4891606505155563,1.2638406626597045
1772796594907534000,1.0835341796875,3.016042934411764,0.46403483095690606,1.3065230355665087
1772796594917526300,1.0935263671875,3.1155788289189337,0.49126259123086924,1.1832898199338466
1772796594927518200,1.103518310546875,3.294223331454396,0.579728664060682,0.9998146823715418
1772796594937510100,1.11351025390625,3.505217028930783,0.6739848645992577,0.8834072941709309
1772796594947502300,1.12350244140625,3.6456098344832655,0.6662041475951671,0.7785212708074599
1772796594957494500,1.13349462890625,3.765096630129218,0.5830294591717422,0.6544445170227438
1772796594967486500,1.143486572265625,3.7302258077561854,0.46058585954681036,0.6668090546857566
1772796594977478400,1.153478515625,3.4463661960333583,0.21350743386298418,0.9003669776044786
1772796594987470300,1.16347021484375,3.0139380710870025,-0.11611278916820883,1.038413804552704
1772796594997462500,1.173462646484375,2.5122183832496403,-0.31253128719478845,1.07855642984882
1772796595007454500,1.183454345703125,2.0734300756216046,-0.41480179429762065,1.1344051583208143
1772796595017446400,1.1934462890625,1.730861669820547,-0.4595638960879296,1.1385309330139308
1772796595027438300,1.203438232421875,1.3143319557517765,-0.5480693510800599,1.1787998881034552
1772796595037430500,1.213430419921875,0.8895990614831447,-0.6050391925364732,1.2886978944100438
1772796595047422500,1.22342236328125,0.5457154814302921,-0.5488008802250027,1.510213862683624
1772796595057415400,1.23341552734375,0.13253449326753616,-0.4565548504650593,1.69481931945011
1772796595067407400,1.243407470703125,-0.30180560277998447,-0.36890045934431254,1.7335918254368006
1772796595077399600,1.253399658203125,-0.6664929014086723,-0.2997302578106522,1.6940777073025703
1772796595087391500,1.2633916015625,-1.0516998409748077,-0.24725451290309428,1.6833261577941476
1772796595097383400,1.273383544921875,-1.275281801867485,-0.13615246456898747,1.689507330647111
1772796595107375400,1.283375244140625,-1.2523743890106678,0.09882000132277607,1.7293652937829493
1772796595117367600,1.293367431640625,-0.9990905328154563,0.32597711728848516,1.6920853644415734
1772796595127359500,1.303359375,-0.4586082758635282,0.593416120890528,1.6129541061900554
1772796595137351400,1.313351318359375,-0.11226561222076416,0.7111354684725404,1.255053106700629
1772796595147343400,1.32334326171875,0.19655249966979024,0.579952901270613,0.6200983761109411
1772796595157335600,1.33333544921875,0.6265145267635583,0.45349823937341566,0.1555174190459773
1772796595167327500,1.343327392578125,1.067471410602331,0.388644439734146,0.019016835159063338
1772796595177319400,1.3533193359375,1.4741262118667364,0.37792386988587673,0.016725070960074664
1772796595187311400,1.363311279296875,1.6381325327187775,0.43406822030358017,-0.03530559706110507
1772796595197303600,1.373303466796875,1.4899521420300006,0.5159570336349308,-0.27300840123221276
1772796595207295500,1.38329541015625,1.0741624326735735,0.5500850748166441,-0.805779133958742
1772796595217287400,1.393287353515625,0.589869680455327,0.5566392091678455,-1.479575563313812
1772796595227280400,1.4032802734375,-0.04935819740891456,0.5411367022726684,-2.2217774934403596
1772796595237272600,1.4132724609375,-0.3792968387395143,0.5766416578307747,-2.4382778255090116
1772796595247264500,1.423264404296875,-0.3373229063630104,0.5135694078460336,-1.8208998142726718
1772796595257256400,1.43325634765625,-0.14944880318939685,0.3528835366535932,-0.9430663016460835
1772796595267248400,1.443248291015625,-0.029613047975301742,0.2455101534537971,-0.0047314124360680575
1772796595277240600,1.453240478515625,-0.26446751351058484,0.14527864136528224,0.7109931373924017
1772796595287232500,1.463232421875,-0.7099041731119156,0.12799845727309583,0.9806162801004946
1772796595297224400,1.473224365234375,-1.2274912921667098,0.21637239484004675,0.940725729869306
1772796595307216400,1.48321630859375,-1.7474971628010272,0.3643421384528279,0.649809550698474
1772796595317208600,1.49320849609375,-2.0649282047361135,0.6712668378122151,0.2629207224600017
1772796595327200500,1.503200439453125,-2.3057617446810004,0.9523472671452909,-0.20325616202689706
1772796595337192400,1.5131923828125,-2.4751287157833577,0.9943236106745899,-0.4975166831895709
1772796595347184400,1.523184326171875,-2.544718384838104,0.8544165428124367,-0.6625548313073814
1772796595357176600,1.533176513671875,-2.5391560745358466,0.6071367493376135,-0.8505992495466023
1772796595367168500,1.54316845703125,-2.522634563323855,0.39025297090932726,-0.7929546506337821
1772796595377160200,1.55316015625,-2.7160090174794194,0.23914394289012997,-0.6653225424550473
1772796595387152400,1.56315234375,-3.131948948961496,0.1387218036003411,-0.6880385974582284
1772796595397144300,1.573144287109375,-3.657237143912911,0.08384666940085589,-0.6617628041468561
1772796595407137300,1.58313720703125,-4.285567780187725,0.025542364470288157,-0.6352401234023273
1772796595417129500,1.59312939453125,-4.986792387759685,-0.08449446578510104,-0.5479945688107982
1772796595427121400,1.603121337890625,-5.624234551250934,-0.11332096649259328,-0.5006956420192494
1772796595437113600,1.613113525390625,-6.102825292435288,-0.08379603519216179,-0.5961178175972774
1772796595447105300,1.623105224609375,-6.301927476587891,-0.08084229995310306,-0.8792059700235724
1772796595457097500,1.633097412109375,-6.250075124275684,-0.1673646183039993,-1.253484542209655
1772796595467089400,1.64308935546875,-5.8942906785488125,-0.2563454357229173,-1.5332432944849133
1772796595477081600,1.65308154296875,-5.119830154374242,-0.31287147893458606,-1.5157704738974571
1772796595487073500,1.663073486328125,-4.2142368204236025,-0.3916728476446122,-1.2472099919848143
1772796595497065200,1.673065185546875,-3.327910497000813,-0.4985388658441603,-0.7947079971071332
1772796595507057400,1.683057373046875,-2.540767016863823,-0.6880299026951193,-0.2004273866080679
1772796595517049300,1.69304931640625,-1.9267273562699556,-0.8890767181094735,0.39785866014007476
1772796595527041500,1.70304150390625,-1.433501356011629,-1.0897511930800974,0.9909899362072349
1772796595537033200,1.713033203125,-1.1072288359731435,-1.263253656551987,1.5152638395495712
1772796595547025400,1.723025390625,-0.8966700227826834,-1.439126940808445,1.877631170798093
1772796595557017300,1.733017333984375,-0.7551116805821657,-1.5758897192955017,2.0889241434819996
1772796595567009500,1.743009521484375,-0.7040320662081241,-1.7495662241600454,2.086783478191495
1772796595577002500,1.75300244140625,-0.7730775453835725,-1.880666446840763,1.938367817442119
1772796595586994400,1.762994384765625,-1.0007073203623293,-2.0360374796859917,1.642097052435577
1772796595596986600,1.772986572265625,-1.2648609456181525,-2.220155006805062,1.2106168758638203
1772796595606978300,1.782978271484375,-1.4992325960725545,-2.357392709327489,0.8809441189277917
1772796595616970500,1.792970458984375,-1.5670651923269032,-2.3201953437030314,0.875239696741104
1772796595626962400,1.80296240234375,-1.5092396108239887,-2.067296249041706,1.1033693110007792
1772796595636954400,1.812954345703125,-1.3096359068900345,-1.7176944374725223,1.4785259081304072
1772796595646946300,1.8229462890625,-1.001661260086298,-1.3562905444286764,1.98152672181949
1772796595656938200,1.832938232421875,-0.7457184138149022,-1.062429763173312,2.3933447510659693
1772796595666930400,1.842930419921875,-0.6416518901407718,-0.8770357863776386,2.625748900839686
1772796595676922400,1.85292236328125,-0.8987497516661882,-0.9203428670540451,2.583754510197043
1772796595686914600,1.86291455078125,-1.3886878162950276,-1.073121837579459,2.2627324580326675
1772796595696906200,1.87290625,-1.7274977463454007,-1.1197288365840912,1.9210684537254272
1772796595706898400,1.8828984375,-1.87226102206707,-1.030852648583427,1.7960694705292581
1772796595716890400,1.892890380859375,-1.6891542794257401,-0.8013533534057438,1.6783425241626797
1772796595726882600,1.902882568359375,-1.2042284900009632,-0.42876843339502807,1.4832232721664012
1772796595736874200,1.912874267578125,-0.6593120499938726,-0.20542225401960312,1.3420304022774099
1772796595746866400,1.922866455078125,-0.33024726888835426,-0.22262831342965364,1.3191329262927174
1772796595756859600,1.932859619140625,-0.24454583846628664,-0.3820395615763962,1.3713460747413337
1772796595766851300,1.942851318359375,-0.291422155931592,-0.5314270264999941,1.445573778860271
1772796595776843300,1.95284326171875,-0.3945639659762382,-0.5852099450159818,1.293257749671489
1772796595786835500,1.96283544921875,-0.3895779942572117,-0.538983981218189,1.0137515108525752
1772796595796827400,1.972827392578125,-0.36658641024827954,-0.5060658638155088,0.754745112292096
1772796595806819300,1.9828193359375,-0.37402503581643104,-0.5186966877318918,0.6698379740528762
1772796595816811300,1.992811279296875,-0.38408407301604747,-0.5290381951346993,0.7450991859380155
1772796595826803500,2.002803466796875,-0.38725218165814873,-0.49727805212810633,0.850270236787945
1772796595836795400,2.01279541015625,-0.32844518790245053,-0.34741639382150025,0.9207257288917898
1772796595846787300,2.022787353515625,-0.19286182845830915,-0.0662094794313889,0.8968914104484021
1772796595856779300,2.032779296875,-0.05703004721105098,0.23033678718144074,0.8602901840861886
1772796595866771500,2.042771484375,-0.10686638352572918,0.4529116716571152,0.7992723093479871
1772796595876763400,2.052763427734375,-0.45818391297161576,0.5570487032841891,0.5396487652698532
1772796595886755600,2.062755615234375,-0.8473883977413177,0.7142734742373228,0.18811244197413324
1772796595896747300,2.072747314453125,-1.0707704521477222,0.906979016155377,-0.16334833186734468
1772796595906739500,2.082739501953125,-1.11146895776093,1.1305503825888037,-0.5187987233342602
1772796595916731400,2.0927314453125,-0.9403104270666837,1.4012176275223494,-0.7753606148194522
1772796595926723600,2.1027236328125,-0.6720137106567621,1.6413760446846484,-0.8314454170696437
1772796595936716300,2.11271630859375,-0.38204876779615876,1.8284084363371134,-0.7817954701725393
1772796595946708500,2.12270849609375,-0.043404257440567015,1.990347595526278,-0.6857037247698754
1772796595956700700,2.13270068359375,0.07652794388532638,2.0314203412793574,-0.7085395336952061
1772796595966692400,2.1426923828125,0.09755085816979407,2.0222139753863213,-0.9594137714654206
1772796595976684500,2.1526845703125,0.1393038412719965,2.0249695577047766,-1.239554801056534
1772796595986676500,2.162676513671875,0.15984569404125212,2.0428530049197375,-1.4726057243011892
1772796595996668700,2.172668701171875,0.24359072969853876,2.056967308859527,-1.6424452813513577
1772796596006660400,2.182660400390625,0.3692863168567419,2.0673703371912238,-1.648962992682308
1772796596016652500,2.192652587890625,0.5120423444092274,2.110905965926498,-1.4459423199117183
1772796596026644500,2.20264453125,0.6417483362525701,2.09552997148782,-1.162956641479209
1772796596036636400,2.212636474609375,0.6616185733705758,2.0218064174987376,-1.0790703707203269
1772796596046628400,2.22262841796875,0.6663140377104282,1.9465937939956783,-1.1240981377094983
1772796596056620300,2.232620361328125,0.8149041782438755,2.021718300823867,-1.1733007061652838
1772796596066612500,2.242612548828125,1.0013140540838241,2.1520763268351555,-1.1913140633702277
1772796596076604400,2.2526044921875,1.1247948878020047,2.2490653133384884,-1.2064821141466497
1772796596086596600,2.2625966796875,1.2774912946105001,2.245004347509891,-1.1412299628395586
1772796596096588300,2.27258837890625,1.3917489574313162,2.2100212969340385,-0.993284988341853
1772796596106580500,2.28258056640625,1.3675123417973518,2.061685277292132,-0.8983056611604988
1772796596116573700,2.29257373046875,1.2268658537447452,1.863794660886377,-0.8533397073611616
1772796596126565400,2.3025654296875,0.9620470425784587,1.7674705680325626,-0.8162718133352697
1772796596136557600,2.3125576171875,0.7440788299143314,1.7341325081847607,-0.9619105567172169
1772796596146549500,2.322549560546875,0.5417781419813633,1.6336119865544139,-1.126491097260639
1772796596156541400,2.33254150390625,0.401962844055891,1.5432004787452518,-1.2391609794333576
1772796596166533400,2.342533447265625,0.36133506559133527,1.5431467027314005,-1.2586802111566067
1772796596176525300,2.352525390625,0.4010264399886131,1.6013190518453717,-1.1447368019167332
1772796596186517500,2.362517578125,0.5385463204532861,1.6768167759001253,-1.0528575596425682
1772796596196509400,2.372509521484375,0.7272434304475784,1.6679947331495582,-1.0011926196612417
1772796596206501400,2.38250146484375,0.9835264684587717,1.6277416332162915,-0.9060275606494397
1772796596216493300,2.392493408203125,1.1912766539692878,1.514441709511727,-0.8846581710148602
1772796596226485500,2.402485595703125,1.327179162365198,1.309169896813482,-0.960161082701385
1772796596236477400,2.4124775390625,1.4197083929806946,1.0518395417064428,-1.096032611437142
1772796596246469400,2.422469482421875,1.3909540076613425,0.7950693047001958,-1.2346620605789125
1772796596256461300,2.43246142578125,1.2931705097794532,0.5726200010992586,-1.2473875405088066
1772796596266453500,2.44245361328125,1.203836860334873,0.4565383377216756,-1.2329168243467807
1772796596276445400,2.452445556640625,1.2274381006747483,0.49455564142689107,-1.2759858584836126
1772796596286437600,2.462437744140625,1.2993991750359535,0.5608947842530906,-1.33283587295264
1772796596296430300,2.472430419921875,1.3396347393125294,0.5052601369231939,-1.2563111439377068
1772796596306422500,2.482422607421875,1.3390765209078788,0.3613993629992008,-1.1160561394207178
1772796596316414500,2.49241455078125,1.2984867363661527,0.14914718989431858,-1.0313083564616738
1772796596326406400,2.502406494140625,1.2360101141870021,-0.05018310392573475,-0.9364161961071192
1772796596336398300,2.5123984375,1.184775016990304,-0.2084437207326293,-0.902586553350091
1772796596346390500,2.522390625,1.1224281586706637,-0.2951366464100778,-0.9573311199724673
1772796596356382500,2.532382568359375,0.9763824419230223,-0.3205465436071157,-1.0104725622471422
1772796596366374400,2.54237451171875,0.8361749298095703,-0.32472222185656424,-0.9679444300539791
1772796596376366300,2.552366455078125,0.7893681704491377,-0.3942046311445534,-0.8353134906746447
1772796596386358500,2.562358642578125,0.7188748305529356,-0.5006453366041184,-0.7322977912276983
1772796596396350500,2.5723505859375,0.6765899325311183,-0.5468019614927471,-0.7095300791025161
1772796596406342400,2.58234228515625,0.7117986085563898,-0.5264930406965315,-0.6630924453154206
1772796596416334300,2.592334228515625,0.8323451423883438,-0.4814585517056286,-0.618478812085092
1772796596426326500,2.602326416015625,0.9703811556816101,-0.4352709471568465,-0.5405864114461466
1772796596436318500,2.612318359375,1.085009989902377,-0.46022667084559793,-0.3973276220032945
1772796596446310400,2.622310302734375,1.1510469349116086,-0.5293481378667056,-0.21310352923721074
1772796596456302300,2.63230224609375,1.119462294602394,-0.6412604066051543,-0.16145619797781108
1772796596466295600,2.642295654296875,1.0251076021254062,-0.7268522391729056,-0.211561377829127
1772796596476287500,2.65228759765625,0.8915706538170576,-0.8091409385420382,-0.2628389624606818
1772796596486279400,2.662279541015625,0.794682643470168,-0.8341070374943316,-0.30708292212840166
1772796596496271400,2.672271240234375,0.7092968548685312,-0.8164727427348494,-0.2812807011455297
1772796596506263600,2.682263671875,0.6788000097960233,-0.7445382641196251,-0.23601591053009033
1772796596516255500,2.69225537109375,0.7072592115610837,-0.6498793279990553,-0.17978136107828466
1772796596526247400,2.702247314453125,0.7437146727770566,-0.5876200018323957,-0.07033504406195133
1772796596536239400,2.7122392578125,0.7118593988329172,-0.5911323938675225,-0.08506959879193454
1772796596546231600,2.7222314453125,0.6276701265394687,-0.624869243774563,-0.14597433201186358
1772796596556223500,2.732223388671875,0.5503489864498377,-0.6450939934186637,-0.18753657831493764
1772796596566215400,2.74221533203125,0.46121407444775103,-0.6660331749424337,-0.2281502186562866
1772796596576207400,2.752207275390625,0.2657487854927778,-0.6954385715164244,-0.19542437242269514
1772796596586199600,2.762199462890625,0.03612520634829998,-0.7166713291592895,-0.23197306488007305
1772796596596191500,2.77219140625,-0.20000760855972766,-0.7084244559481739,-0.3473747101042419
1772796596606183400,2.782183349609375,-0.3700099549561739,-0.6942363561198115,-0.36636980835553257
1772796596616175400,2.79217529296875,-0.5208119263201951,-0.6851666222184896,-0.3934247328132391
1772796596626167600,2.80216748046875,-0.7121154194205999,-0.629520576711744,-0.47198396333046255
1772796596636160300,2.81216015625,-0.7878986824184656,-0.4724764960877597,-0.4961822562480345
1772796596646152400,2.82215234375,-0.7529238151490688,-0.40765272626057264,-0.38003424963597204
1772796596656144400,2.832144287109375,-0.6284031169891358,-0.3922204715900123,-0.15054448947161436
1772796596666136600,2.842136474609375,-0.4046399543106556,-0.4336652655258775,0.07238730041664093
1772796596676128500,2.85212841796875,-0.21965280475020407,-0.42629385997503993,0.1788742561707273
1772796596686120400,2.862120361328125,-0.11917232286930084,-0.40607101002708074,0.20696451502554117
1772796596696112400,2.8721123046875,-0.1297434012442827,-0.47944545831754803,0.1692318734806031
1772796596706104600,2.8821044921875,-0.2815472431272268,-0.5951330078110099,0.0834443722102791
1772796596716096500,2.892096435546875,-0.4891530517309904,-0.6222736743234097,-0.024601941815018652
1772796596726088400,2.90208837890625,-0.66871642267704,-0.4749263734579086,-0.19480540027413515
1772796596736080400,2.912080322265625,-0.8497083651214837,-0.2691302446246147,-0.38768980589043345
1772796596746072600,2.922072509765625,-1.006136944195628,-0.04376783005595207,-0.512460862082243
1772796596756064500,2.932064453125,-1.1300731204658747,0.10082081975117325,-0.5136646483814343
1772796596766056400,2.942056396484375,-1.1708949601978063,0.17306465657651424,-0.3732187244022265
1772796596776048400,2.95204833984375,-1.1220108100414274,0.2750229559250176,-0.20214779892619697
1772796596786040600,2.96204052734375,-0.9427057977706194,0.37969548266828057,-0.08995616525709628
1772796596796032500,2.972032470703125,-0.7097194641947746,0.41358313922286033,0.02709624284878373
1772796596806024400,2.9820244140625,-0.4576204338699579,0.378585913991183,0.14356624795682726
1772796596816017400,2.992017333984375,-0.23852935465574263,0.25494156027436254,0.22840638537444172
1772796596826009600,3.002009521484375,0.001464227333664894,0.11193097343891859,0.2411896599061787
1772796596836001300,3.012001220703125,0.2055868699967861,-0.008171177626401186,0.14938786678239702
1772796596845993500,3.021993408203125,0.28333178845643997,-0.14559958041533827,0.056245180443674325
1772796596855985400,3.0319853515625,0.36124037304520606,-0.26769816599488255,-0.02356229656897485
1772796596865977600,3.0419775390625,0.43756724140048026,-0.36091713244020934,-0.10429324510209262
1772796596875969500,3.051969482421875,0.48312780009210105,-0.3715234282590449,-0.18558606530167163
1772796596885961500,3.06196142578125,0.47653556222021576,-0.322635770971328,-0.24594627984873949
1772796596895953400,3.071953369140625,0.5108645328015089,-0.23341171938106417,-0.29343503012396394
1772796596905945600,3.081945556640625,0.5110094942301512,-0.14627718741595744,-0.3127119775239378
1772796596915937500,3.0919375,0.4354115246713161,0.00608984130769968,-0.23286014991290865
1772796596925929500,3.101929443359375,0.37186756552159783,0.1434955938734114,-0.14612243524566293
1772796596935921400,3.11192138671875,0.2762491367191076,0.25168781917542216,-0.07004479241110384
1772796596945913600,3.12191357421875,0.18108897307813165,0.36117899824678895,0.028055589400231836
1772796596955905500,3.131905517578125,0.09403671256899833,0.4746861349612474,0.15322174585685133
1772796596965897500,3.1418974609375,0.09729074592888355,0.5996412790156901,0.23460392484031617
1772796596975889400,3.151889404296875,0.1342582483202219,0.7765178950957954,0.27786950446255504
1772796596985882600,3.161882568359375,0.22732173194289207,0.9275561594337225,0.327501988768205
1772796596995874600,3.17187451171875,0.3520277235418558,1.0411300777740775,0.36779622442945836
1772796597005866500,3.181866455078125,0.5272469278037548,1.0908081547871231,0.4268219024371355
1772796597015858700,3.191858642578125,0.6657073039889335,1.1467317020609975,0.4816184915076941
1772796597025850600,3.2018505859375,0.7200391981571912,1.14097810697034,0.49561640252619976
1772796597035842600,3.211842529296875,0.7562725410550832,1.1465268271386622,0.5008723502930253
1772796597045834500,3.22183447265625,0.7773971621483564,1.1476830114364622,0.5196882560525089
1772796597055826700,3.23182666015625,0.7772165448844433,1.1619912305131554,0.5803018608387559
1772796597065818600,3.241818603515625,0.7630728687196969,1.1952229073770344,0.5779496716894209
1772796597075810600,3.251810546875,0.7493307590931654,1.1987658406808972,0.5775642525684088
1772796597085802500,3.261802490234375,0.6867004076570272,1.192295621753484,0.5953684970673173
1772796597095794400,3.27179443359375,0.6133797353804111,1.1658517053335904,0.5855499906253069
1772796597105786600,3.28178662109375,0.457086765384674,1.1433604720622301,0.563302576047182
1772796597115778600,3.291778564453125,0.24508476764857767,1.1225139372579753,0.5486650519508868
1772796597125770500,3.3017705078125,0.11661211699247359,1.092015192489326,0.5219464102428406
1772796597135762400,3.311762451171875,-0.032744331738352776,1.0856627547226845,0.5464038290206342
1772796597145755600,3.321755615234375,-0.21154080996513366,1.0810929625891148,0.5709063290491699
1772796597155747600,3.33174755859375,-0.34290041423439976,1.0398018979102372,0.5410357991814613
1772796597165739500,3.341739501953125,-0.4454658856958151,0.9968350089736282,0.48345783576406537
1772796597175731700,3.351731689453125,-0.5054530291467905,0.9761031865902244,0.3981525650527328
1772796597185723600,3.3617236328125,-0.5051520003736019,0.9113540894344448,0.3512094659615308
1772796597195715600,3.371715576171875,-0.3928267669200897,0.8543333945736289,0.2968901390139013
1772796597205707500,3.38170751953125,-0.2906470799058676,0.7409601133719086,0.34284335028491913
1772796597215699500,3.391699462890625,-0.16264087771773336,0.6140855455622076,0.36455578120350834
1772796597225691600,3.401691650390625,-0.0284732302904129,0.4676549211502075,0.36608364835791285
1772796597235683300,3.411683349609375,0.08364742050170898,0.3037240036219358,0.36260296663530167
1772796597245675500,3.421675537109375,0.1921586486250162,0.16440160377994179,0.3333458194255829
1772796597255667500,3.43166748046875,0.24168869546949862,0.027778379894047973,0.2909081419948488
1772796597265659600,3.44165966796875,0.2472930913478136,-0.1127944584004581,0.2325207618907094
1772796597275651300,3.4516513671875,0.23078736222684382,-0.2040760270424187,0.1706997540760785
1772796597285643500,3.4616435546875,0.2215373033225536,-0.30423239153549075,0.1284991733368486
1772796597295635500,3.471635498046875,0.1999754598557949,-0.3607216098681092,0.06855170430913567
1772796597305627600,3.481627685546875,0.1764770953685045,-0.39985213551223275,0.03499174533896148
1772796597315619600,3.49161962890625,0.13708499617874623,-0.437283309892565,0.010935746968910098
1772796597325612500,3.501612548828125,0.0836293003231287,-0.4892927524626255,0.08489815121516585
1772796597335604700,3.511604736328125,0.08949497748613357,-0.5173585709959269,0.21169263952597975
1772796597345596700,3.5215966796875,0.0917898104250431,-0.530317275159806,0.3675117814648896
1772796597355588400,3.53158837890625,0.10005202733576297,-0.59634954399392,0.47332807141579686
1772796597365580500,3.54158056640625,0.09108487702608108,-0.6223880944833159,0.5299741608105599
1772796597375572500,3.551572509765625,0.048668461579084395,-0.6989036172784865,0.5736544587135315
1772796597385564700,3.561564697265625,0.01138882449865341,-0.819790342850238,0.6222003898914903
1772796597395556400,3.571556396484375,-0.07850245882868766,-0.9000298546046018,0.6482484388615936
1772796597405548500,3.581548583984375,-0.18054010702371595,-0.9506259232454002,0.6173525114689022
1772796597415540500,3.59154052734375,-0.3694628424674272,-0.9545432428196072,0.5575666627436876
1772796597425532700,3.60153271484375,-0.5806827499151229,-0.920504341226071,0.46714361062720416
1772796597435524400,3.6115244140625,-0.8669155205100775,-0.8768729970313608,0.41828138004168863
1772796597445516500,3.6215166015625,-1.190977963283658,-0.81657415728271,0.3723487731672823
1772796597455508500,3.631508544921875,-1.5271932006657123,-0.7920571172721683,0.42476146277599036
1772796597465500700,3.641500732421875,-1.7541846777409313,-0.874116099538654,0.6568317044202238
1772796597475492400,3.651492431640625,-1.8519664220571517,-0.9594529344320296,0.8558166919339447
1772796597485484500,3.661484619140625,-1.7711153542757034,-0.833277162541449,0.819113466501981
1772796597495477500,3.6714775390625,-1.6069874528706072,-0.48471229280456896,0.5512471408659592
1772796597505469400,3.681469482421875,-1.6250684684842824,-0.23316914279684423,0.19215490403166038
1772796597515461400,3.69146142578125,-1.8652216249495743,-0.1797417962528765,0.07296398605974391
1772796597525453600,3.70145361328125,-2.0520926885604855,-0.22431553586423394,0.1766981359743513
1772796597535445500,3.711445556640625,-2.1159300776988266,-0.14139248411431907,0.303445077082701
1772796597545437700,3.721437744140625,-2.0618828456908465,0.13629808358475565,0.31119276860002426
1772796597555429400,3.731429443359375,-1.9301555771529673,0.4443773598067462,0.22050993303619323
1772796597565421600,3.741421630859375,-1.8035609953284262,0.6780433462098241,0.2439723494272679
1772796597575413500,3.75141357421875,-1.7453204032838343,0.7933562171719968,0.36785460355319083
1772796597585405700,3.76140576171875,-1.7283762827455997,0.7951692579433322,0.4749428496686741
1772796597595397400,3.7713974609375,-1.7491157039135694,0.8236981639437377,0.5839938106918707
1772796597605389600,3.7813896484375,-1.6710691721588373,0.9233623610056936,0.6142712773926555
1772796597615381500,3.791381591796875,-1.489606105071306,1.0762446457751094,0.521723342076689
1772796597625373700,3.801373779296875,-1.1862304764956235,1.2372199283681808,0.3585046279383823
1772796597635365400,3.811365478515625,-0.8588099554657935,1.331964643076062,0.16023913207193835
1772796597645357600,3.821357666015625,-0.4550537982523441,1.372613902720064,0.011722166372556238
1772796597655350500,3.8313505859375,-0.009926350730657577,1.3439847512155771,-0.08460408190572634
1772796597665342500,3.841342529296875,0.4581482571363449,1.2362358857668936,-0.15278355536898597
1772796597675334400,3.85133447265625,0.8773357922375201,1.1290360325030981,-0.18554120324663817
1772796597685326600,3.86132666015625,1.2356921342790126,1.0091294040098786,-0.19326478323601184
1772796597695318500,3.871318603515625,1.555855231526494,0.8845007154308259,-0.2621914035384543
1772796597705310500,3.881310546875,1.8166683141827582,0.7432293734781443,-0.29231404500370844
1772796597715302400,3.891302490234375,1.9887480513751505,0.6056617083489895,-0.29431036992007864
1772796597725294600,3.901294677734375,2.071585909059644,0.49212724523618817,-0.2776848503443412
1772796597735286500,3.91128662109375,2.0535417183250186,0.4349927147373557,-0.23097643679184837
1772796597745278700,3.92127880859375,1.9617548305094241,0.45241833518221974,-0.13612031586505471
1772796597755270400,3.9312705078125,1.8418734825879335,0.496904688771069,0.004271320643648505
1772796597765262600,3.9412626953125,1.6908581607341766,0.5928627247914672,0.12534494708962737
1772796597775254500,3.951254638671875,1.501616860860586,0.7539446826294064,0.23429242947204038
1772796597785246700,3.961246826171875,1.2392775915503502,0.8758968454755842,0.3378536157062277
1772796597795238400,3.97123828125,0.9547609772235155,1.0482692820042372,0.331806042637676
1772796597805230600,3.981230712890625,0.7225491351515054,1.17743882888332,0.258896782439854
1772796597815222500,3.991222412109375,0.40047114419341084,1.2257235518418252,0.23898095261445268
1772796597825215500,4.001215576171875,0.12890578137636183,1.268645286462456,0.22392480124728753
1772796597835207400,4.01120751953125,-0.06305822145938873,1.3171477438248693,0.2159163216356188
1772796597845199600,4.02119970703125,-0.23626316328942773,1.3725157030425965,0.22683687103539704
1772796597855191600,4.031191650390625,-0.36064825237095355,1.3900664111718535,0.23490177527572959
1772796597865183500,4.04118359375,-0.48174599034488197,1.4138893314383922,0.2851192198624834
1772796597875175400,4.051175537109375,-0.5398351912200451,1.4503716806612907,0.3453856186462566
1772796597885167600,4.061167724609375,-0.6233961024820804,1.4711300987906752,0.4184045680299401
1772796597895159600,4.07115966796875,-0.6632996583253145,1.4711087637417017,0.4764120089057833
1772796597905151500,4.0811513671875,-0.6451958463579416,1.4602040694981813,0.556335440448299
1772796597915143400,4.091143310546875,-0.5576110864073037,1.4412740358397365,0.6170744982451201
1772796597925135600,4.101135498046875,-0.492232897567749,1.3870701519653201,0.641558366638422
1772796597935127600,4.11112744140625,-0.38275720832645893,1.2921166168123484,0.6083076928131282
1772796597945119700,4.12111962890625,-0.2506172673344612,1.1482948597244917,0.5709027853852138
1772796597955112200,4.1311123046875,-0.09419102634787559,0.984742712380737,0.5184046825153753
1772796597965104000,4.141104248046875,0.06857084740102291,0.868077403896302,0.4533255862202495
1772796597975096300,4.151096435546875,0.21092121676206588,0.7411036134958267,0.35791553947143256
1772796597985088000,4.161087890625,0.33973405915796756,0.6322711905941367,0.2873450426857918
1772796597995081200,4.171081298828125,0.4200450287133455,0.5247609562069178,0.2129587139390409
1772796598005073200,4.1810732421875,0.4640086736023426,0.43061727613210676,0.15638992756418882
1772796598015065000,4.191065185546875,0.46565234915614123,0.3654395783007145,0.07442468799576163
1772796598025057000,4.20105712890625,0.4802192191690206,0.31314751939699054,0.055706908848509186
1772796598035049200,4.21104931640625,0.44209494795799253,0.25477014923021196,0.07926905928701163
1772796598045041200,4.221041259765625,0.3442933298975229,0.22196064330115914,0.0835442523881793
1772796598055033000,4.231033203125,0.2627630476802587,0.23921134557053444,0.08675715002007782
1772796598065025000,4.24102490234375,0.20924597702622413,0.28633462353423234,0.10464973038956522
1772796598075017200,4.251017333984375,0.1153045415252447,0.35846900863572956,0.043833004246652124
1772796598085009200,4.261009033203125,-0.03285246828794479,0.43359994520470496,0.006164769707433879
1772796598095001300,4.27100146484375,-0.2117828020274639,0.4820452655524015,-0.014159494788385928
1772796598104993000,4.280992919921875,-0.3176110746771097,0.5437636167101562,-0.019978702461160718
1772796598114985200,4.290985107421875,-0.4043611373692751,0.6084726741164922,0.01973177849538624
1772796598124977200,4.30097705078125,-0.4559340882182121,0.6810359521545469,0.04581793098617345
1772796598134969300,4.31096923828125,-0.49294952140450476,0.7532071621350943,0.06165628223959356
1772796598144961000,4.3209609375,-0.5020107797384262,0.8320767007105052,0.0838723883640021
1772796598154953200,4.330953125,-0.4902805944561958,0.8668677358455955,0.08829966675434262
1772796598164946200,4.3409462890625,-0.5095072729736566,0.8917026096336543,0.12423351524900644
1772796598174938000,4.350938232421875,-0.5375631546348333,0.8983036153338849,0.11222776442840694
1772796598184930000,4.360929931640625,-0.547580690780282,0.8924721327014267,0.09074092242661863
1772796598194922200,4.370922119140625,-0.5216612366259098,0.9269038330048323,0.1170428730925545
1772796598204914200,4.3809140625,-0.4711895250171423,0.956476695100218,0.12346983740013091
1772796598214906000,4.390906005859375,-0.40842297998070715,0.9761037711121141,0.16187847851049153
1772796598224898000,4.40089794921875,-0.32805531180202957,0.9828604057654737,0.2514264648254961
1772796598234890200,4.41089013671875,-0.2574485746592283,0.9775231363907456,0.3140858231604099
1772796598244882200,4.420882080078125,-0.12778525291383266,0.9797169931732117,0.38437487265616654
1772796598254874000,4.4308740234375,-0.050341363227367396,0.9623664837911724,0.3621014468539506
1772796598264866000,4.440865966796875,-0.007931377521157265,0.9365624727100134,0.26694851667135955
1772796598274858200,4.450858154296875,-0.07900514765381812,0.9293873203836381,0.15061989279538393
1772796598284850200,4.46085009765625,-0.2671305952399969,0.9042809361778199,-0.03805697812847793
1772796598294842400,4.47084228515625,-0.35667058091163634,0.8835624116674065,-0.03544906065240502
1772796598304834000,4.480833984375,-0.40826691263616083,0.8852750608041882,-0.015417568558081983
1772796598314826200,4.490826171875,-0.3465601057857275,0.9186464383997023,-0.012713241502828895
1772796598324819200,4.500819091796875,-0.25074060145318505,0.9738929631948471,-0.028554150039516387
1772796598334811100,4.51081103515625,-0.03191314161121845,1.058075805747509,-0.005079531753994524
1772796598344803000,4.520802978515625,0.20686931102275846,1.1200617218002675,0.0518967759758234
1772796598354795300,4.530795166015625,0.40733401570022104,1.1681231573969124,0.09561090308316052
1772796598364787200,4.540787109375,0.5177911171942949,1.135303714595735,0.1577736370075494
1772796598374779100,4.550779052734375,0.5261942038804293,1.0430088772580026,0.23818090654425322
1772796598384771000,4.56077099609375,0.5159767612487077,0.8715428880497813,0.3911187939584255
1772796598394763300,4.57076318359375,0.5652864433407783,0.7442500948280095,0.43392574309296905
1772796598404755200,4.580755126953125,0.5665443344473838,0.7280877723172307,0.34778796708025034
1772796598414747100,4.5907470703125,0.5814385367184877,0.8112558848693966,0.1384323191344738
1772796598424739000,4.600739013671875,0.5561363376796246,0.9257184226125478,-0.10017938004247844
1772796598434731300,4.610731201171875,0.34297114138305185,1.0235670946851372,-0.2283095739364624
1772796598444723200,4.62072314453125,0.05511515350043773,1.1229361081928013,-0.22568813939169047
1772796598454715100,4.630715087890625,-0.24187866508364675,1.2494541176497935,-0.061382799060456454
1772796598464707000,4.64070703125,-0.44672962202131744,1.4038506063744425,0.14540424050632864
1772796598474699300,4.65069921875,-0.555210455006361,1.6095979276299475,0.27447865644786507
1772796598484692200,4.660692138671875,-0.5670522839695215,1.8178546013578771,0.3196201860098168
1772796598494684200,4.67068408203125,-0.5096966580659151,1.9632291408456861,0.4006119774362072
1772796598504676000,4.680676025390625,-0.4490595262736082,1.9511200392484664,0.4385412009991705
1772796598514668300,4.690668212890625,-0.43702246699929237,1.816706746497005,0.499067967752181
1772796598524660200,4.70066015625,-0.41992812433540816,1.5794098562456667,0.6104998690951615
1772796598534652200,4.710652099609375,-0.4274737174093723,1.3815323915824294,0.6546610093176365
1772796598544644000,4.72064404296875,-0.4018944549947977,1.2788564454838633,0.5878865438140929
1772796598554636300,4.73063623046875,-0.37946985721886156,1.2195276198111473,0.5435234878113493
1772796598564628200,4.740628173828125,-0.3914449571728706,1.171137829042971,0.4839171238388866
1772796598574620200,4.7506201171875,-0.3944862245649099,1.1093472894318401,0.46529454869441683
1772796598584612000,4.760612060546875,-0.4277618867009878,1.0356050307422875,0.46383770094960924
1772796598594604300,4.770604248046875,-0.4010866457432508,1.006430812575668,0.497625550391525
1772796598604596200,4.78059619140625,-0.384745167273283,0.9866412394784391,0.5919454272834583
1772796598614588200,4.790588134765625,-0.38032851987481114,0.9504401914149522,0.704887733189389
1772796598624580000,4.800580078125,-0.38187867192625996,0.9309823344901204,0.8349214956823736
1772796598634572300,4.810572265625,-0.3611065175324678,0.9125377462610602,0.9947661668103188
1772796598644565000,4.82056494140625,-0.40526305464506146,0.9119799662478267,1.16765232501477
1772796598654557200,4.83055712890625,-0.4564806161850691,0.9415805931329727,1.2501032292082905
1772796598664549000,4.840549072265625,-0.5410147563934325,0.9526903084293007,1.3343359022520482
1772796598674541300,4.850541259765625,-0.631638445648551,1.033368796122819,1.3843383889138698
1772796598684533000,4.860532958984375,-0.7187766308754682,1.0993315068520606,1.4370960195027291
1772796598694525200,4.870525146484375,-0.8415046003997325,1.1564121152065694,1.3667162229835987
1772796598704517000,4.88051708984375,-0.944163010841608,1.216090923360735,1.3030688034594058
1772796598714509300,4.89050927734375,-1.0405851572424172,1.228030952001363,1.2413394925162196
1772796598724501200,4.900501220703125,-1.1197931339919567,1.253972179596126,1.2278010887682438
1772796598734493200,4.9104931640625,-1.1603297270417212,1.3130661735996603,1.205615048988536
1772796598744485000,4.920485107421875,-1.1562129393726586,1.374632402935624,1.1744865549489856
1772796598754477300,4.930477294921875,-1.1514496704936026,1.4261381337672472,1.1562824244122951
1772796598764469200,4.94046923828125,-1.108315462166071,1.4286099307082594,1.090105997867137
1772796598774461200,4.950461181640625,-1.0859504856228828,1.4334987256631255,0.9484083933264017
1772796598784453000,4.960453125,-1.0510486835896968,1.4088617125347256,0.8445238751556724
1772796598794445300,4.9704453125,-1.0107663575619459,1.3912395466044545,0.7676648726850748
1772796598804437200,4.980437255859375,-0.9514584285467863,1.3966110105097294,0.7433936971943825
1772796598814430200,4.99043017578125,-0.8563245683908463,1.4096499403029679,0.7251485039949417
1772796598824422100,5.000422119140625,-0.6993792719662189,1.4311866493284702,0.7182161474484949
1772796598834414300,5.010414306640625,-0.4908686234772205,1.4306003738731146,0.6924624783150851
1772796598844406000,5.020406005859375,-0.29230770659446714,1.4155501042574643,0.621850261279568
1772796598854398200,5.030398193359375,-0.12783844440579414,1.3724723022922873,0.5839019676899537
1772796598864390100,5.04039013671875,0.018596563920378683,1.3112386659115551,0.6052824267078191
1772796598874382300,5.05038232421875,0.13266367260515688,1.2621902651041745,0.6378484062045813
1772796598884374000,5.0603740234375,0.20307050326168535,1.2220438404157756,0.6676651600584388
1772796598894366200,5.0703662109375,0.24417583611011504,1.2024188102304936,0.6778821642987429
1772796598904358100,5.080358154296875,0.28638649985194203,1.1883134202495216,0.6810336140669881
1772796598914350300,5.090350341796875,0.3293757467508316,1.210094167163968,0.6709035574577749
1772796598924342300,5.10034228515625,0.3322159386128187,1.1926999647706746,0.6801788238685578
1772796598934334200,5.110334228515625,0.31311551682353017,1.164712764431536,0.7229721828691661
1772796598944326100,5.120326171875,0.2948918778687715,1.1155708401218056,0.762385982434079
1772796598954317800,5.13031787109375,0.24664076491892337,1.0619172836065291,0.7423502525560557
1772796598964310000,5.14031005859375,0.19660159950852393,0.985431717558205,0.6615509880270809
1772796598974303000,5.150302978515625,0.15992226640880106,0.9435472170308232,0.6331406669050454
1772796598984295000,5.160294921875,0.1458861422717571,0.8977601561069488,0.5963725595433265
1772796598994287000,5.170287109375,0.16455343334078787,0.8676090557321906,0.5628320359259843
1772796599004278800,5.18027880859375,0.18861410788595676,0.8371858604177832,0.5622614329637959
1772796599014271000,5.19027099609375,0.21018004300594328,0.7918529730021953,0.5588242615893483
1772796599024263000,5.200262939453125,0.19416531227231024,0.730446318142116,0.5641534937880933
1772796599034255000,5.210255126953125,0.1981143421590328,0.6667743486985563,0.5777299279915169
1772796599044247000,5.2202470703125,0.19112404488027096,0.6256202082723379,0.5570044257510454
1772796599054239000,5.230239013671875,0.1869920596420765,0.5961953763455152,0.5033524766709655
1772796599064231000,5.24023095703125,0.14094400969445706,0.560353955374658,0.48423258299622685
1772796599074223000,5.25022314453125,0.1107166292130947,0.5359384760424495,0.4857826985150575
1772796599084215000,5.260215087890625,0.10605097548961638,0.5068278246313334,0.4670202399758622
1772796599094206700,5.270206787109375,0.06653963383436202,0.4753118656441569,0.46395917190480973
1772796599104199000,5.280198974609375,0.06497837586700916,0.4406614080235362,0.4393209532000124
1772796599114190800,5.29019091796875,0.0792635063290596,0.41217853312194347,0.466770977922529
1772796599124183800,5.300183837890625,0.09906710795164107,0.3805947695955634,0.4670416846226901
1772796599134176000,5.310176025390625,0.08634849615395068,0.3312845029816031,0.49902533418685197
1772796599144168000,5.32016796875,0.11249708288908004,0.3167708244606852,0.5199933764789253
1772796599154160000,5.33016015625,0.0783487295717001,0.3049032765343785,0.4952923216709867
1772796599164151800,5.34015185546875,0.031633155626058576,0.2628817056238651,0.393784798297286
1772796599174144000,5.35014404296875,-0.00985737714767456,0.20287673425525427,0.3744913381539285
1772796599184136000,5.360135986328125,-0.041166123124957085,0.14473010410442946,0.3894499474307522
1772796599194128100,5.370128173828125,-0.034871991416811944,0.13721359099447727,0.3320025881230831
1772796599204119800,5.380119873046875,-0.0657084437072277,0.14383666239604354,0.30074904293175786
1772796599214111700,5.39011181640625,-0.061523851498961446,0.16349062641486525,0.30799605491794646
1772796599224104000,5.40010400390625,-0.031442016968131065,0.15420008936971424,0.32860710046589375
1772796599234095900,5.410095947265625,-0.04009001832604408,0.16626462117284535,0.32546043647062034
1772796599244087800,5.420087890625,-0.02794131537079811,0.19932094146981835,0.3465548450887203
1772796599254079700,5.430079833984375,0.001502221256494522,0.19396277543753385,0.41494923994429406
1772796599264072000,5.440072021484375,0.02500292383134365,0.18359584133252502,0.47704314641617235
1772796599274064000,5.45006396484375,0.07555237685143947,0.21224559723362324,0.5079718070346861
1772796599284056800,5.460056884765625,0.09845043735802173,0.2545888013139367,0.5045315669203176
1772796599294049000,5.470049072265625,0.15341303064525127,0.25537147612422706,0.5278825588261709
1772796599304041000,5.480041015625,0.25559096409380433,0.27618410865888,0.5570679925065487
1772796599314033200,5.490033203125,0.3237076379865408,0.27812822846397756,0.5924111816316843
1772796599324024800,5.50002490234375,0.3287695975512266,0.23840178275331853,0.6073444738041609
1772796599334017000,5.51001708984375,0.3130705086380243,0.18721753896102308,0.5948572596095502
1772796599344009000,5.520009033203125,0.27973756335675715,0.12887421719431877,0.5787149569734931
1772796599354001000,5.5300009765625,0.20106208604872225,0.07678440286442637,0.5844561675066128
1772796599363992800,5.539992919921875,0.12997253382503984,0.052310325212776655,0.5802654012858868
1772796599373984800,5.54998486328125,0.04816109657883644,0.03724500415846705,0.6247074773415923
1772796599383977000,5.55997705078125,0.016785715106129646,0.04070303565785289,0.7018809525888413
1772796599393969000,5.569968994140625,0.006932429611682891,0.04226137101575732,0.8198114587035029
1772796599403960800,5.5799609375,-0.005874444991350173,0.03812164086252451,0.9206108703404664
1772796599413952800,5.589952880859375,-0.03441664886474609,0.03405176107510924,1.0126548016570507
1772796599423945000,5.599945068359375,-0.0767535693347454,0.010443798733502626,1.1223372655168176
1772796599433938000,5.60993798828125,-0.13187398353219032,-0.028210779961943624,1.1874085072990506
1772796599443929900,5.619929931640625,-0.20209493622779845,-0.1335023153863847,1.2822707839719951
1772796599453922000,5.629922119140625,-0.22330431299507617,-0.19400529940500855,1.29172206453681
1772796599463914000,5.6399140625,-0.2327139463752508,-0.0911214096441865,1.0170045212991534
1772796599473906000,5.649906005859375,-0.34556115787625313,0.16532821710556744,0.5615841912893578
1772796599483897900,5.65989794921875,-0.6283084244430065,0.36600130383670326,0.29661197965964675
1772796599493889800,5.669889892578125,-0.9790162975579499,0.3884003287799656,0.38116347286161034
1772796599503882000,5.679882080078125,-1.3369020994782448,0.3088355014167726,0.5957091271985322
1772796599513874000,5.6898740234375,-1.5690747785836456,0.38164033312574025,0.6827423907462508
1772796599523865900,5.699865966796875,-1.6320067433148622,0.5731834802009165,0.6311171982534229
1772796599533857800,5.70985791015625,-1.6488696153104305,0.7292730365790426,0.4946233729008585
1772796599543850000,5.71985009765625,-1.6519208195745945,0.7405411573074757,0.3662678458184004
1772796599553842000,5.729842041015625,-1.7120564315855502,0.6022109833732247,0.3004199205752462
1772796599563833900,5.739833740234375,-1.7831418921560047,0.4408984316498041,0.2924578921874985
1772796599573825800,5.74982568359375,-1.814990151837468,0.31740400779768824,0.259246490926668
1772796599583818000,5.75981787109375,-1.8395149367630481,0.32170652729719873,0.2919313110301271
1772796599593811000,5.76981103515625,-1.8866098654150962,0.42799730289205906,0.3014197452675551
1772796599603803000,5.779802978515625,-1.8419231669485567,0.6117080027759075,0.2942840481687337
1772796599613795000,5.789795166015625,-1.7710504723459481,0.7870508334174752,0.19340020965132862
1772796599623787000,5.799787109375,-1.6367857942849398,0.9425076448500156,0.08507727064173669
1772796599633778700,5.80977880859375,-1.3534002298146486,1.074600385699421,-0.05736969096157699
1772796599643771000,5.81977099609375,-0.9709358669549226,1.1682473682984709,-0.2066751036249101
1772796599653762800,5.8297626953125,-0.5991115560531616,1.1821085742600261,-0.3220009071338922
1772796599663755000,5.839755126953125,-0.21041618984937666,1.049078114169091,-0.4345863989587873
1772796599673747000,5.849746826171875,0.21015081691145895,0.8130534358106553,-0.53012803619802
1772796599683739000,5.85973876953125,0.6081757369965315,0.5916907584026455,-0.622527795214951
1772796599693730800,5.869730712890625,0.9467021739304066,0.393754987680912,-0.7133141276858747
1772796599703723000,5.879722900390625,1.2235913621187209,0.23452888684272766,-0.7679729887861758
1772796599713715000,5.88971484375,1.3879296914041042,0.16520546750873327,-0.8145830565307289
1772796599723707000,5.899706787109375,1.418197403895855,0.11285422576367854,-0.8000867675360291
1772796599733698800,5.90969873046875,1.3435253170102834,0.10276333212107419,-0.7217759588219225
1772796599743692000,5.919692138671875,1.2122849552065134,0.1802966536566615,-0.6415479913748801
1772796599753683700,5.92968359375,1.067803419035673,0.34689620587229725,-0.651516062355414
1772796599763676000,5.939676025390625,0.8919266276478767,0.5157908832877874,-0.7096599890924989
1772796599773667800,5.949667724609375,0.7153618539959192,0.5898685114115476,-0.7556893343396485
1772796599783660000,5.959659912109375,0.5098410349726676,0.5970948094032704,-0.8376594692789018
1772796599793651700,5.969651611328125,0.27565643152296543,0.5587653710089624,-0.9692091892927884
1772796599803644000,5.979643798828125,0.0679044924467802,0.5193972372166812,-1.0513640331491827
1772796599813635800,5.9896357421875,-0.09241115719377994,0.5030743173167109,-1.0862320790432394
1772796599823628000,5.9996279296875,-0.17756021443009376,0.4715501750230789,-1.0812359512563794
1772796599833619700,6.00961962890625,-0.20567571732401846,0.4129949640713632,-1.0418464093498885
1772796599843612000,6.01961181640625,-0.1460217513501644,0.3691385789491236,-1.0453204421360045
1772796599853603800,6.029603759765625,-0.04322013304531574,0.3715888947106898,-1.072110614710301
1772796599863596000,6.039595947265625,0.07040858422219753,0.3296409735582769,-1.1162522465147078
1772796599873588000,6.049587890625,0.18324761241674423,0.2619540693849325,-1.1461610625661909
1772796599883580000,6.059579833984375,0.29814708027243614,0.17944427461102605,-1.1244320458389818
1772796599893571800,6.06957177734375,0.38762744471132754,0.11041881531029939,-1.0894279524751007
1772796599903565000,6.07956494140625,0.42877486313581464,0.05977320843935013,-1.0072000433824957
1772796599913556700,6.089556640625,0.4852046063661575,0.025158991175889968,-0.9633946577951311
1772796599923549000,6.099548828125,0.582316488596797,0.012225275322794913,-0.9230397779878229
1772796599933540900,6.109540771484375,0.6726186908125877,-0.0258612942263484,-0.882468113624677
1772796599943533000,6.119532958984375,0.7341080555200576,-0.0625800825536251,-0.9076277623876928
1772796599953525000,6.12952490234375,0.7335416538089513,-0.11905775657892226,-0.9384349885836243
1772796599963517000,6.139516845703125,0.7447539526969194,-0.19310732765197752,-0.923400281863287
1772796599973509000,6.149509033203125,0.7319874101042747,-0.2199061949893832,-0.932033012586832
1772796599983501000,6.1595009765625,0.7351753924906254,-0.2668620074316859,-0.9172581989116966
1772796599993493000,6.169492919921875,0.7840162880271673,-0.28768823010027406,-0.8843590419378131
1772796600003485000,6.17948486328125,0.767104900714755,-0.32268384789675475,-0.8325260519132017
1772796600013477000,6.18947705078125,0.7570692443907261,-0.34390155410096046,-0.8161293361246585
1772796600023469000,6.199468994140625,0.7258359017372131,-0.3713102238997817,-0.8395064853850751
1772796600033461000,6.2094609375,0.6451958463579416,-0.3940769131116569,-0.8298500376369804
1772796600043453000,6.219452880859375,0.5542015702247619,-0.3982202965267002,-0.7564430022511631
1772796600053445000,6.229445068359375,0.4548971463859081,-0.41219416908249257,-0.6733681940056383
1772796600063437800,6.239437744140625,0.3539928861349821,-0.39015594027563927,-0.5867175730999559
1772796600073430000,6.249429931640625,0.2651210089832544,-0.3475369879938662,-0.5167618837444111
1772796600083422000,6.259421875,0.14252514140605926,-0.3135429484553635,-0.47217210631370543
1772796600093414100,6.2694140625,-0.004435352098941803,-0.3367484674759209,-0.3576573634592816
1772796600103406000,6.279406005859375,-0.13112287290394306,-0.3574702068567276,-0.29372930036280304
1772796600113398000,6.28939794921875,-0.20035715264976023,-0.3895458455532789,-0.32807394343726337
1772796600123390000,6.299389892578125,-0.214602535623312,-0.41391456313431263,-0.374005271670036
1772796600133382100,6.309382080078125,-0.21408874088227747,-0.4521994317345321,-0.4393177748622373
1772796600143374000,6.3193740234375,-0.11887947740256785,-0.4817946517921984,-0.47303299745935945
1772796600153366000,6.329365966796875,0.016028759258985517,-0.5138124228216707,-0.47259533669445664
1772796600163358000,6.33935791015625,0.14444354224801062,-0.5459923986755311,-0.489008747889474
1772796600173350100,6.34935009765625,0.2668202141165733,-0.6079533264175057,-0.4634772701393813
1772796600183342000,6.359342041015625,0.33791268894970417,-0.6656615651510656,-0.42802557913847267
1772796600193334000,6.369333984375,0.34225276398062704,-0.7301376905843615,-0.38864853138737376
1772796600203326000,6.379325927734375,0.2979372369140386,-0.7626153342105447,-0.32251813594102857
1772796600213318100,6.389318115234375,0.22817454937994477,-0.7639347462460399,-0.23769728774577378
1772796600223310800,6.399310791015625,0.13003800027668475,-0.7291735217273235,-0.19738968114629388
1772796600233303000,6.409302978515625,0.05279050994515419,-0.6767256877399981,-0.21401742921173572
1772796600243295000,6.419294921875,-0.09272562997043132,-0.6388743882514536,-0.24405484007894993
1772796600253287200,6.429287109375,-0.27933775038421155,-0.6294681158721447,-0.20308182837329802
1772796600263278800,6.43927880859375,-0.4257704206228256,-0.6164610425218939,-0.12410663746632634
1772796600273271000,6.44927099609375,-0.4707002801954746,-0.5763540730610489,-0.05003258953914046
1772796600283263000,6.459262939453125,-0.44678748968839643,-0.5713887057386339,0.03360167922005057
1772796600293255200,6.469255126953125,-0.42199382469356056,-0.718687491287291,0.2605455908264965
1772796600303246800,6.479246826171875,-0.35611586963832376,-0.9430191015034913,0.4819397593513131
1772796600313239000,6.489239013671875,-0.2076356192201376,-1.0043713958278297,0.37625177195519205
1772796600323231000,6.49923095703125,-0.028501871863007545,-0.7258763798780739,-0.10143990149758755
1772796600333223200,6.50922314453125,-0.03504091824293137,-0.5292841327197849,-0.5053848592814058
1772796600343215000,6.519215087890625,-0.2856809819310903,-0.5729745136253536,-0.5081946560051291
1772796600353207000,6.52920703125,-0.6034206514239311,-0.6435097929671406,-0.2874348398610949
1772796600363199000,6.539198974609375,-0.8437444882810116,-0.5004200034156442,-0.05772533599883318
1772796600373191200,6.549191162109375,-0.9673422263771295,-0.13315072546973825,-0.012689093442261217
1772796600383184000,6.559183837890625,-0.9367945279002189,0.27992884814515706,0.003663052552193403
1772796600393176000,6.569176025390625,-0.8168488825708627,0.5929312599830329,0.12309461087957024
1772796600403168000,6.57916796875,-0.761793350303173,0.7506761823527515,0.27694537535496055
1772796600413160200,6.58916015625,-0.7724959461033344,0.7345854637734591,0.308995075892657
1772796600423151900,6.59915185546875,-0.7734019550323485,0.6627822103224694,0.2951682105921209
1772796600433144000,6.60914404296875,-0.7327139708131551,0.554828908342868,0.2129054493818432
1772796600443136000,6.619135986328125,-0.6391033747017383,0.42993601586967706,0.154006612624228
1772796600453128200,6.629128173828125,-0.48675358937382696,0.2615342365376651,0.128790776694566
1772796600463120000,6.639119873046875,-0.29919162088930606,0.1121532378874719,0.07647913630753755
1772796600473112000,6.649112060546875,-0.17585399503409863,0.03655161506682634,-0.0015601619888097047
1772796600483104000,6.65910400390625,-0.1222059914767742,0.023283114301413298,-0.07543707990869879
1772796600493096200,6.66909619140625,-0.051746553850173946,0.015115297675877808,-0.09132416567467153
1772796600503087900,6.679087890625,0.041748891448974604,0.028445319370180366,-0.0722919137507677
1772796600513080000,6.689080078125,0.15392390277683735,0.04613806631863117,0.01562174936067313
1772796600523072000,6.699072021484375,0.30909868239760396,0.11695815395116806,0.10938695151191204
1772796600533064200,6.709064208984375,0.4945779993891716,0.1859188774526119,0.14617051217108964
1772796600543057000,6.719056884765625,0.659473378035426,0.21272768166214226,0.22046412113308905
1772796600553049000,6.729049072265625,0.746052760335803,0.22382132260650395,0.3161461897563189
1772796600563041000,6.739041015625,0.7823468935102224,0.2314461183965206,0.3962616367395967
1772796600573033200,6.749033203125,0.766381262615323,0.26985855889916416,0.48133185658603905
1772796600583025000,6.75902490234375,0.6900199074685573,0.2926274400681257,0.5550305683948099
1772796600593017000,6.76901708984375,0.55681613663733,0.3375868179962039,0.616877295172587
1772796600603009000,6.779009033203125,0.40360067439079284,0.41334114716053005,0.6762802820600569
1772796600613001200,6.789001220703125,0.26600012990534305,0.5362281066387892,0.7491194544300437
1772796600622993000,6.798992919921875,0.20428397070467472,0.6884177329689264,0.8286604625262319
1772796600632985000,6.808985107421875,0.20714929700791834,0.8379115443438291,0.8942661765113472
1772796600642977000,6.81897705078125,0.22681553598642348,0.9286728885039687,0.9084512075997888
1772796600652969200,6.82896923828125,0.223093885114789,0.931639337094128,0.919416765185073
1772796600662961000,6.8389609375,0.22103227640986442,0.8821709573090076,0.9458310171190649
1772796600672953000,6.848953125,0.2521820324331522,0.8008575327128171,0.974746219023317
1772796600682945000,6.858945068359375,0.3186521081626415,0.6657263009503483,0.9859507729962468
1772796600692937200,6.868937255859375,0.3481669564604759,0.5701590178132057,0.9796658475078642
1772796600702930000,6.878929931640625,0.3735036422908306,0.5546271021604537,0.9582201047014445
1772796600712922000,6.888922119140625,0.38339258362054823,0.5254480616882443,0.9026362377107143
1772796600722914000,6.8989140625,0.3489420324862003,0.4814402853965759,0.8774231782600284
1772796600732906000,6.908906005859375,0.37236031747460363,0.4833043257027864,0.9038608110696077
1772796600742898000,6.91889794921875,0.31110008534789085,0.6006845044583082,0.908809957909584
1772796600752890000,6.92889013671875,0.12948562709093092,0.7004682362467051,0.919507219947502
1772796600762882000,6.938882080078125,0.049931028860807414,0.7560571447387338,0.9009400282520801
1772796600772874200,6.948874267578125,0.00976677625477314,0.7831324909299612,0.8499771721255034
1772796600782866000,6.958865966796875,0.06555412992835044,0.6547466417744755,0.8492098410148173
1772796600792858000,6.968858154296875,0.19026070604920386,0.43197015204578637,0.8576368930984288
1772796600802850000,6.97885009765625,0.38703123238384723,0.2784429935015738,0.7437742940098047
1772796600812842200,6.98884228515625,0.6258908419072627,0.25263810563758016,0.659980377709493
1772796600822834000,6.998833984375,0.7608984472900628,0.32451676241233945,0.6776109461419284
1772796600832826000,7.008826171875,0.6957523136407137,0.3951522872582078,0.7543889192655682
