time,seconds_elapsed,z,y,x
1772796593898336500,0.07433642578125,0.8911824822425842,0.2740353047847748,-0.2938026189804077
1772796593908328200,0.084328125,0.8901398181915283,0.2514539659023285,-0.28830066323280334
1772796593918320400,0.0943203125,0.880003809928894,0.20562072098255157,-0.2778885066509247
1772796593928312300,0.104312255859375,0.84853595495224,0.14871308207511902,-0.2532481849193573
1772796593938304300,0.11430419921875,0.810047447681427,0.10054074972867966,-0.2209317982196808
1772796593948296200,0.124296142578125,0.7734965682029724,0.06303660571575165,-0.18152660131454468
1772796593958289200,0.1342890625,0.7280737161636353,0.05378557741641998,-0.15166564285755157
1772796593968281300,0.14428125,0.6816338300704956,0.07178287208080292,-0.13584832847118378
1772796593978273300,0.154273193359375,0.6350473761558533,0.1084735095500946,-0.12916086614131927
1772796593988265200,0.16426513671875,0.6125355958938599,0.13831056654453278,-0.12406366318464279
1772796593998257200,0.174257080078125,0.6054204702377319,0.14861834049224854,-0.1257116198539734
1772796594008249300,0.184249267578125,0.6100195646286011,0.13429825007915497,-0.13843794167041779
1772796594018241300,0.1942412109375,0.6137171387672424,0.09895144402980804,-0.16152141988277435
1772796594028233200,0.204233154296875,0.6044073700904846,0.0528341606259346,-0.16862429678440094
1772796594038225200,0.21422509765625,0.5818322896957397,0.012283802032470703,-0.16056211292743683
1772796594048217300,0.22421728515625,0.5510774254798889,-0.019465938210487366,-0.12250019609928131
1772796594058209300,0.234209228515625,0.5229325890541077,-0.054292626678943634,-0.07651139795780182
1772796594068201200,0.244201171875,0.501596212387085,-0.080096535384655,-0.019511433318257332
1772796594078193200,0.254193115234375,0.5027858018875122,-0.07762885093688965,0.031251344829797745
1772796594088185300,0.264185302734375,0.5012497901916504,-0.057101666927337646,0.09763393551111221
1772796594098177300,0.27417724609375,0.48099616169929504,-0.046507082879543304,0.15532706677913666
1772796594108169200,0.284169189453125,0.4640922248363495,-0.08014272898435593,0.18887916207313538
1772796594118161200,0.2941611328125,0.46134090423583984,-0.14086972177028656,0.1990324705839157
1772796594128153300,0.3041533203125,0.46883800625801086,-0.20442946255207062,0.1866009384393692
1772796594138145300,0.314145263671875,0.4686281383037567,-0.24910639226436615,0.16812925040721893
1772796594148138200,0.32413818359375,0.4583008289337158,-0.25663548707962036,0.14027906954288483
1772796594158130200,0.334130126953125,0.44797283411026,-0.2470363825559616,0.10303741693496704
1772796594168122400,0.344122314453125,0.4534660577774048,-0.22101090848445892,0.07080218940973282
1772796594178114000,0.354114013671875,0.4735487103462219,-0.18306298553943634,0.053931061178445816
1772796594188106200,0.364106201171875,0.49261048436164856,-0.12356032431125641,0.06330179423093796
1772796594198098200,0.37409814453125,0.5100557804107666,-0.05484144389629364,0.10277889668941498
1772796594208090400,0.38409033203125,0.5093154311180115,0.0187454242259264,0.16806496679782867
1772796594218082300,0.394082275390625,0.5119013786315918,0.07205098867416382,0.2427077740430832
1772796594228074200,0.40407421875,0.5148411393165588,0.10570774972438812,0.31880006194114685
1772796594238066200,0.414066162109375,0.5252125263214111,0.12007230520248413,0.3936351537704468
1772796594248058400,0.424058349609375,0.5677388310432434,0.08937113732099533,0.4588949382305145
1772796594258050300,0.43405029296875,0.7222591638565063,0.11465252190828323,0.42446479201316833
1772796594268042200,0.444042236328125,0.9376602172851562,0.24070346355438232,0.2622196078300476
1772796594278034200,0.4540341796875,1.1869251728057861,0.364912748336792,0.06870128214359283
1772796594288026400,0.4640263671875,1.383821964263916,0.419829398393631,-0.05066310614347458
1772796594298018300,0.474018310546875,1.4820572137832642,0.48045891523361206,-0.11555875092744827
1772796594308010000,0.484010009765625,1.4780516624450684,0.5452451705932617,-0.14089339971542358
1772796594318002200,0.494002197265625,1.414413332939148,0.5583929419517517,-0.13986141979694366
1772796594327994000,0.503994140625,1.305675983428955,0.519524097442627,-0.09594476222991943
1772796594337987000,0.513987060546875,1.1702367067337036,0.4620658755302429,-0.022915562614798546
1772796594347979300,0.523979248046875,1.0273666381835938,0.39639559388160706,0.07746434956789017
1772796594357971200,0.53397119140625,0.9028018116950989,0.31637585163116455,0.17703860998153687
1772796594367963400,0.54396337890625,0.8006479740142822,0.1924201399087906,0.27034276723861694
1772796594377955000,0.553955078125,0.7164502739906311,0.04307965934276581,0.34930095076560974
1772796594387947300,0.563947265625,0.6425994038581848,-0.09201690554618835,0.40904220938682556
1772796594397939200,0.573939208984375,0.5835512280464172,-0.1881927102804184,0.41876381635665894
1772796594407931400,0.583931396484375,0.5363506078720093,-0.2550438940525055,0.3823404610157013
1772796594417923300,0.59392333984375,0.5272977352142334,-0.30363354086875916,0.29985252022743225
1772796594427915000,0.6039150390625,0.5452325940132141,-0.3182847797870636,0.1963585913181305
1772796594437907200,0.6139072265625,0.5933250188827515,-0.2736683189868927,0.08878206461668015
1772796594447899100,0.623899169921875,0.6562962532043457,-0.16912327706813812,-0.020867204293608665
1772796594457891300,0.633891357421875,0.7357961535453796,-0.03792104870080948,-0.1348576843738556
1772796594467883000,0.643883056640625,0.8111823201179504,0.09898033738136292,-0.25415128469467163
1772796594477875200,0.653875244140625,0.8774713277816772,0.23817764222621918,-0.37149202823638916
1772796594487867100,0.6638671875,0.9301838278770447,0.3631473481655121,-0.486519992351532
1772796594497859300,0.673859375,0.9341090321540833,0.45816120505332947,-0.6171501874923706
1772796594507851000,0.68385107421875,0.9454279541969299,0.481412798166275,-0.6697553396224976
1772796594517844200,0.69384423828125,0.9718097448348999,0.5051496028900146,-0.6785687804222107
1772796594527836400,0.70383642578125,0.9844021201133728,0.5359092950820923,-0.6818279027938843
1772796594537828000,0.713828125,0.9721841216087341,0.5571666359901428,-0.7065854668617249
1772796594547820300,0.7238203125,0.9502390623092651,0.5242330431938171,-0.7274776101112366
1772796594557812200,0.733812255859375,0.9394588470458984,0.44384950399398804,-0.7119585275650024
1772796594567804200,0.74380419921875,0.9350875616073608,0.3584143817424774,-0.682073175907135
1772796594577796000,0.753796142578125,0.9231669902801514,0.2735642194747925,-0.6396660804748535
1772796594587788000,0.7637880859375,0.9074983596801758,0.19550581276416779,-0.5784399509429932
1772796594597780200,0.7737802734375,0.8807461261749268,0.15522684156894684,-0.49027711153030396
1772796594607772200,0.783772216796875,0.8508436679840088,0.13992957770824432,-0.39006179571151733
1772796594617764400,0.793764404296875,0.8258943557739258,0.1251612901687622,-0.28907713294029236
1772796594627756000,0.803756103515625,0.8046593070030212,0.1339324563741684,-0.20181895792484283
1772796594637748200,0.813748291015625,0.8002131581306458,0.13824491202831268,-0.12610529363155365
1772796594647740200,0.823740234375,0.8044861555099487,0.1191386729478836,-0.06744299829006195
1772796594657732400,0.833732421875,0.8183223605155945,0.09306898713111877,-0.031972888857126236
1772796594667724000,0.84372412109375,0.8303972482681274,0.06079527363181114,-0.005365383345633745
1772796594677716200,0.85371630859375,0.8429340720176697,0.029814986512064934,0.006141869351267815
1772796594687708200,0.863708251953125,0.8557904362678528,0.021170565858483315,0.014563270844519138
1772796594697701000,0.873701171875,0.8597316741943359,0.08255935460329056,0.018852025270462036
1772796594707693000,0.883693115234375,0.8693965077400208,0.1835309863090515,0.012543530203402042
1772796594717685200,0.893685302734375,0.887302041053772,0.2070261836051941,-0.020270608365535736
1772796594727677200,0.90367724609375,0.8975164294242859,0.10742276161909103,-0.09737181663513184
1772796594737669000,0.913669189453125,0.8955965638160706,-0.05099484324455261,-0.20450997352600098
1772796594747661000,0.9236611328125,0.8807995915412903,-0.17063307762145996,-0.3135860562324524
1772796594757653200,0.9336533203125,0.86214679479599,-0.22080810368061066,-0.38440242409706116
1772796594767645200,0.943645263671875,0.8303587436676025,-0.21732495725154877,-0.42092856764793396
1772796594777637000,0.95363720703125,0.7910193204879761,-0.18679207563400269,-0.4378896951675415
1772796594787629000,0.963629150390625,0.7663784623146057,-0.13845418393611908,-0.4198286831378937
1772796594797621200,0.973621337890625,0.7686647772789001,-0.0444970577955246,-0.375569611787796
1772796594807613200,0.98361328125,0.8075225949287415,0.08439027518033981,-0.30391690135002136
1772796594817605400,0.99360546875,0.8738089203834534,0.21893185377120972,-0.2150120735168457
1772796594827597000,1.00359716796875,0.9634884595870972,0.33610355854034424,-0.13230887055397034
1772796594837589200,1.01358935546875,1.0587942600250244,0.4070783853530884,-0.05945995822548866
1772796594847581200,1.023581298828125,1.1547542810440063,0.4127252995967865,0.003055752255022526
1772796594857573400,1.033573486328125,1.2365425825119019,0.3332517743110657,0.04408068209886551
1772796594867566000,1.043566162109375,1.2922395467758179,0.18370221555233002,0.07162641733884811
1772796594877558300,1.053558349609375,1.3413887023925781,0.017638415098190308,0.09070077538490295
1772796594887550200,1.06355029296875,1.396384835243225,-0.09128367900848389,0.12255708128213882
1772796594897542100,1.073542236328125,1.4598960876464844,-0.11123501509428024,0.1600181758403778
1772796594907534000,1.0835341796875,1.5085458755493164,-0.03967520594596863,0.19226668775081635
1772796594917526300,1.0935263671875,1.5370407104492188,0.10295890271663666,0.18804824352264404
1772796594927518200,1.103518310546875,1.5567622184753418,0.2530655264854431,0.13544677197933197
1772796594937510100,1.11351025390625,1.5766024589538574,0.3165494203567505,0.03339789807796478
1772796594947502300,1.12350244140625,1.604257583618164,0.26460447907447815,-0.10999592393636703
1772796594957494500,1.13349462890625,1.6510149240493774,0.10796825587749481,-0.27103620767593384
1772796594967486500,1.143486572265625,1.7027431726455688,-0.07641717791557312,-0.41973692178726196
1772796594977478400,1.153478515625,1.7482728958129883,-0.24296914041042328,-0.5368755459785461
1772796594987470300,1.16347021484375,1.7533793449401855,-0.35967332124710083,-0.6130601763725281
1772796594997462500,1.173462646484375,1.705591082572937,-0.40423014760017395,-0.6589776277542114
1772796595007454500,1.183454345703125,1.6015762090682983,-0.42618903517723083,-0.7039522528648376
1772796595017446400,1.1934462890625,1.4732038974761963,-0.47929033637046814,-0.7459800839424133
1772796595027438300,1.203438232421875,1.362345576286316,-0.5820876955986023,-0.765421986579895
1772796595037430500,1.213430419921875,1.3041709661483765,-0.6780120730400085,-0.7511301040649414
1772796595047422500,1.22342236328125,1.2753251791000366,-0.6842839121818542,-0.692391574382782
1772796595057415400,1.23341552734375,1.2521344423294067,-0.6469876766204834,-0.6100963950157166
1772796595067407400,1.243407470703125,1.2344423532485962,-0.601434588432312,-0.49601638317108154
1772796595077399600,1.253399658203125,1.2384741306304932,-0.5085302591323853,-0.3394869863986969
1772796595087391500,1.2633916015625,1.2646640539169312,-0.3590334355831146,-0.1513521373271942
1772796595097383400,1.273383544921875,1.3217384815216064,-0.1952386349439621,0.048800140619277954
1772796595107375400,1.283375244140625,1.3886821269989014,-0.0022254372015595436,0.22063039243221283
1772796595117367600,1.293367431640625,1.4625214338302612,0.22403939068317413,0.34774893522262573
1772796595127359500,1.303359375,1.4888014793395996,0.5178033709526062,0.4004773795604706
1772796595137351400,1.313351318359375,1.4233866930007935,0.827191174030304,0.3537314236164093
1772796595147343400,1.32334326171875,1.2934874296188354,1.0598387718200684,0.19472208619117737
1772796595157335600,1.33333544921875,1.1338328123092651,1.2370697259902954,-0.05537617951631546
1772796595167327500,1.343327392578125,0.9931868314743042,1.369404673576355,-0.3614735007286072
1772796595177319400,1.3533193359375,0.8951953053474426,1.414127230644226,-0.6797547936439514
1772796595187311400,1.363311279296875,0.8334076404571533,1.3926068544387817,-0.9609435796737671
1772796595197303600,1.373303466796875,0.7550747394561768,1.4535655975341797,-1.1758073568344116
1772796595207295500,1.38329541015625,0.6256014108657837,1.5857720375061035,-1.3209941387176514
1772796595217287400,1.393287353515625,0.4467843174934387,1.6517283916473389,-1.4178929328918457
1772796595227280400,1.4032802734375,0.28215837478637695,1.6067228317260742,-1.4540729522705078
1772796595237272600,1.4132724609375,0.17784501612186432,1.4388518333435059,-1.4362419843673706
1772796595247264500,1.423264404296875,0.14852280914783478,1.07989501953125,-1.3798128366470337
1772796595257256400,1.43325634765625,0.19092832505702972,0.5325751900672913,-1.2862005233764648
1772796595267248400,1.443248291015625,0.25496742129325867,-0.10168831050395966,-1.1420633792877197
1772796595277240600,1.453240478515625,0.3097324073314667,-0.7004398703575134,-0.9390764832496643
1772796595287232500,1.463232421875,0.3300148546695709,-1.119853138923645,-0.6879176497459412
1772796595297224400,1.473224365234375,0.3014841377735138,-1.3089826107025146,-0.43687695264816284
1772796595307216400,1.48321630859375,0.26878640055656433,-1.382310152053833,-0.23672395944595337
1772796595317208600,1.49320849609375,0.24594129621982574,-1.4329016208648682,-0.08754032850265503
1772796595327200500,1.503200439453125,0.23818448185920715,-1.3873637914657593,0.011818930506706238
1772796595337192400,1.5131923828125,0.1974245309829712,-1.2583048343658447,0.05431046336889267
1772796595347184400,1.523184326171875,0.10344313830137253,-1.1763980388641357,0.01909404620528221
1772796595357176600,1.533176513671875,-0.014887232333421707,-1.1955169439315796,-0.08197318017482758
1772796595367168500,1.54316845703125,-0.13007956743240356,-1.223665714263916,-0.21487705409526825
1772796595377160200,1.55316015625,-0.23946544528007507,-1.186692476272583,-0.3410800099372864
1772796595387152400,1.56315234375,-0.34738412499427795,-1.1144315004348755,-0.46198228001594543
1772796595397144300,1.573144287109375,-0.44387391209602356,-1.0665518045425415,-0.5785821080207825
1772796595407137300,1.58313720703125,-0.5290167927742004,-1.011502981185913,-0.6434481739997864
1772796595417129500,1.59312939453125,-0.59980708360672,-0.893233060836792,-0.6477595567703247
1772796595427121400,1.603121337890625,-0.669363796710968,-0.7083895206451416,-0.5833474397659302
1772796595437113600,1.613113525390625,-0.7535103559494019,-0.488216370344162,-0.48074808716773987
1772796595447105300,1.623105224609375,-0.8598602414131165,-0.18680685758590698,-0.35429251194000244
1772796595457097500,1.633097412109375,-0.9874166250228882,0.19384434819221497,-0.24485737085342407
1772796595467089400,1.64308935546875,-1.105686068534851,0.6007351875305176,-0.20042680203914642
1772796595477081600,1.65308154296875,-1.206038475036621,0.9715127348899841,-0.24360224604606628
1772796595487073500,1.663073486328125,-1.2629772424697876,1.269269347190857,-0.37251344323158264
1772796595497065200,1.673065185546875,-1.2603455781936646,1.518950343132019,-0.5434300899505615
1772796595507057400,1.683057373046875,-1.18653404712677,1.701673984527588,-0.716152012348175
1772796595517049300,1.69304931640625,-1.0454403162002563,1.7813984155654907,-0.850649356842041
1772796595527041500,1.70304150390625,-0.8603135943412781,1.7325509786605835,-0.9166691303253174
1772796595537033200,1.713033203125,-0.6468614935874939,1.5493968725204468,-0.9058687090873718
1772796595547025400,1.723025390625,-0.42858177423477173,1.274041771888733,-0.8262835144996643
1772796595557017300,1.733017333984375,-0.23911705613136292,0.9565266966819763,-0.696153998374939
1772796595567009500,1.743009521484375,-0.1009875163435936,0.6248605847358704,-0.5384665727615356
1772796595577002500,1.75300244140625,-0.02716841734945774,0.3340689539909363,-0.3665885329246521
1772796595586994400,1.762994384765625,-0.020231420174241066,0.11109412461519241,-0.18494825065135956
1772796595596986600,1.772986572265625,-0.07200193405151367,-0.023971812799572945,-0.019024264067411423
1772796595606978300,1.782978271484375,-0.12520700693130493,-0.1144493818283081,0.12124093621969223
1772796595616970500,1.792970458984375,-0.14674319326877594,-0.17441684007644653,0.22523072361946106
1772796595626962400,1.80296240234375,-0.10592042654752731,-0.1946713924407959,0.3051019310951233
1772796595636954400,1.812954345703125,0.00030640745535492897,-0.2017918825149536,0.3481556475162506
1772796595646946300,1.8229462890625,0.1590227633714676,-0.245883509516716,0.369525283575058
1772796595656938200,1.832938232421875,0.3451350927352905,-0.3489536941051483,0.3856579065322876
1772796595666930400,1.842930419921875,0.4922466278076172,-0.462756484746933,0.4372175335884094
1772796595676922400,1.85292236328125,0.5683818459510803,-0.5079529881477356,0.5514171123504639
1772796595686914600,1.86291455078125,0.5936539173126221,-0.5124161243438721,0.7107505798339844
1772796595696906200,1.87290625,0.5986006855964661,-0.4680899381637573,0.8925294280052185
1772796595706898400,1.8828984375,0.6156166195869446,-0.3904644548892975,1.0516221523284912
1772796595716890400,1.892890380859375,0.6407911777496338,-0.3474871516227722,1.1572010517120361
1772796595726882600,1.902882568359375,0.6401916742324829,-0.4011615514755249,1.1741787195205688
1772796595736874200,1.912874267578125,0.6102620363235474,-0.5256446599960327,1.1213890314102173
1772796595746866400,1.922866455078125,0.5897506475448608,-0.6186149716377258,1.0337685346603394
1772796595756859600,1.932859619140625,0.5997062921524048,-0.6027505397796631,0.9560089111328125
1772796595766851300,1.942851318359375,0.606743335723877,-0.47781771421432495,0.888609766960144
1772796595776843300,1.95284326171875,0.5664420127868652,-0.31516197323799133,0.8161513209342957
1772796595786835500,1.96283544921875,0.48190051317214966,-0.15437696874141693,0.7222110629081726
1772796595796827400,1.972827392578125,0.38823261857032776,-0.0032446973491460085,0.6114369034767151
1772796595806819300,1.9828193359375,0.3263746201992035,0.1554889678955078,0.49614888429641724
1772796595816811300,1.992811279296875,0.3048613369464874,0.32757577300071716,0.39347895979881287
1772796595826803500,2.002803466796875,0.3152373135089874,0.4647276997566223,0.31088948249816895
1772796595836795400,2.01279541015625,0.3447331488132477,0.5162119269371033,0.24540716409683228
1772796595846787300,2.022787353515625,0.39939072728157043,0.4897257387638092,0.21017934381961823
1772796595856779300,2.032779296875,0.4636187255382538,0.39824429154396057,0.22395293414592743
1772796595866771500,2.042771484375,0.5104953050613403,0.2741415798664093,0.30455055832862854
1772796595876763400,2.052763427734375,0.5395996570587158,0.15968477725982666,0.45777687430381775
1772796595886755600,2.062755615234375,0.5396572351455688,0.08961939811706543,0.6516584753990173
1772796595896747300,2.072747314453125,0.5145292282104492,0.07539412379264832,0.8460231423377991
1772796595906739500,2.082739501953125,0.4853222072124481,0.08926147222518921,1.013296365737915
1772796595916731400,2.0927314453125,0.4656313359737396,0.09838945418596268,1.141292929649353
1772796595926723600,2.1027236328125,0.47258052229881287,0.0856410339474678,1.2315969467163086
1772796595936716300,2.11271630859375,0.5042819976806641,0.04402142018079758,1.2913321256637573
1772796595946708500,2.12270849609375,0.5219728946685791,-0.008208959363400936,1.3150458335876465
1772796595956700700,2.13270068359375,0.5203883051872253,-0.054629188030958176,1.332547903060913
1772796595966692400,2.1426923828125,0.4835415482521057,-0.07272743433713913,1.3301180601119995
1772796595976684500,2.1526845703125,0.4327491819858551,-0.0715085044503212,1.3000171184539795
1772796595986676500,2.162676513671875,0.36698853969573975,-0.04523156210780144,1.2477596998214722
1772796595996668700,2.172668701171875,0.30184200406074524,-0.009105249308049679,1.1623159646987915
1772796596006660400,2.182660400390625,0.2730053663253784,0.020426945760846138,1.062130093574524
1772796596016652500,2.192652587890625,0.2803412973880768,0.06244336813688278,0.9631351232528687
1772796596026644500,2.20264453125,0.3009713292121887,0.14301437139511108,0.8685262203216553
1772796596036636400,2.212636474609375,0.31624191999435425,0.2586296796798706,0.7828549742698669
1772796596046628400,2.22262841796875,0.3312540054321289,0.37712734937667847,0.6715853214263916
1772796596056620300,2.232620361328125,0.3536114990711212,0.4763079881668091,0.5594707727432251
1772796596066612500,2.242612548828125,0.38448837399482727,0.5632908940315247,0.4478755295276642
1772796596076604400,2.2526044921875,0.4295932650566101,0.6334441304206848,0.33892694115638733
1772796596086596600,2.2625966796875,0.48244431614875793,0.6351884603500366,0.23029875755310059
1772796596096588300,2.27258837890625,0.5395187735557556,0.5810980796813965,0.13759200274944305
1772796596106580500,2.28258056640625,0.6026564836502075,0.4947802722454071,0.08508701622486115
1772796596116573700,2.29257373046875,0.6417620778083801,0.38802239298820496,0.07663653790950775
1772796596126565400,2.3025654296875,0.6480075716972351,0.28301650285720825,0.10097014158964157
1772796596136557600,2.3125576171875,0.6277049779891968,0.19381123781204224,0.15288473665714264
1772796596146549500,2.322549560546875,0.5946223139762878,0.10744020342826843,0.2161358743906021
1772796596156541400,2.33254150390625,0.5678037405014038,0.012400775216519833,0.2844158411026001
1772796596166533400,2.342533447265625,0.5675445795059204,-0.0870862677693367,0.3347789943218231
1772796596176525300,2.352525390625,0.5786494016647339,-0.21108384430408478,0.3675853908061981
1772796596186517500,2.362517578125,0.6076679825782776,-0.3251769244670868,0.3805024027824402
1772796596196509400,2.372509521484375,0.6415783166885376,-0.41196349263191223,0.37169399857521057
1772796596206501400,2.38250146484375,0.6721055507659912,-0.46213650703430176,0.3466116487979889
1772796596216493300,2.392493408203125,0.6790825128555298,-0.49400442838668823,0.2973833680152893
1772796596226485500,2.402485595703125,0.6408387422561646,-0.5111613273620605,0.2104078084230423
1772796596236477400,2.4124775390625,0.5948091745376587,-0.5206853151321411,0.11645974218845367
1772796596246469400,2.422469482421875,0.5581049919128418,-0.42925992608070374,0.04246871918439865
1772796596256461300,2.43246142578125,0.5392860174179077,-0.24167963862419128,-0.007451969664543867
1772796596266453500,2.44245361328125,0.5186890363693237,-0.03613127022981644,-0.03842592611908913
1772796596276445400,2.452445556640625,0.49041640758514404,0.13681679964065552,-0.07134073227643967
1772796596286437600,2.462437744140625,0.4609454274177551,0.23647288978099823,-0.09587226808071136
1772796596296430300,2.472430419921875,0.42833900451660156,0.27634358406066895,-0.11137985438108444
1772796596306422500,2.482422607421875,0.3970898687839508,0.27896055579185486,-0.12387730181217194
1772796596316414500,2.49241455078125,0.37151819467544556,0.2480013072490692,-0.1323581337928772
1772796596326406400,2.502406494140625,0.3452625870704651,0.20173586905002594,-0.1473381072282791
1772796596336398300,2.5123984375,0.31194138526916504,0.12612873315811157,-0.16908681392669678
1772796596346390500,2.522390625,0.2595070004463196,-0.0016856803558766842,-0.18482497334480286
1772796596356382500,2.532382568359375,0.21247424185276031,-0.12122699618339539,-0.1948736160993576
1772796596366374400,2.54237451171875,0.17986544966697693,-0.15557697415351868,-0.20205239951610565
1772796596376366300,2.552366455078125,0.168430894613266,-0.09980373084545135,-0.18978215754032135
1772796596386358500,2.562358642578125,0.1742880642414093,0.035409826785326004,-0.14652271568775177
1772796596396350500,2.5723505859375,0.1892387717962265,0.20527610182762146,-0.0876479372382164
1772796596406342400,2.58234228515625,0.19850805401802063,0.34875935316085815,-0.03045920841395855
1772796596416334300,2.592334228515625,0.19339212775230408,0.42176803946495056,0.018750149756669998
1772796596426326500,2.602326416015625,0.18385069072246552,0.4217107892036438,0.054659292101860046
1772796596436318500,2.612318359375,0.17987272143363953,0.35809454321861267,0.08131060749292374
1772796596446310400,2.622310302734375,0.17796827852725983,0.24599575996398926,0.10543356835842133
1772796596456302300,2.63230224609375,0.15535351634025574,0.13395071029663086,0.12615056335926056
1772796596466295600,2.642295654296875,0.11978187412023544,0.053911734372377396,0.1430513858795166
1772796596476287500,2.65228759765625,0.08244834840297699,0.010052932426333427,0.15252238512039185
1772796596486279400,2.662279541015625,0.05573965609073639,-0.00943014957010746,0.15620733797550201
1772796596496271400,2.672271240234375,0.040607839822769165,-0.010103397071361542,0.14345799386501312
1772796596506263600,2.682263671875,0.047357313334941864,-0.01793862134218216,0.10461661964654922
1772796596516255500,2.69225537109375,0.0751122385263443,-0.025861525908112526,0.056659478694200516
1772796596526247400,2.702247314453125,0.0980934202671051,-0.03229845315217972,0.00048504892038181424
1772796596536239400,2.7122392578125,0.11632569134235382,-0.029516249895095825,-0.06538611650466919
1772796596546231600,2.7222314453125,0.1292363405227661,-0.016163421794772148,-0.1270253211259842
1772796596556223500,2.732223388671875,0.13572725653648376,-0.023112142458558083,-0.1831493079662323
1772796596566215400,2.74221533203125,0.13595759868621826,-0.057176705449819565,-0.2276361882686615
1772796596576207400,2.752207275390625,0.12601681053638458,-0.11459685117006302,-0.24822695553302765
1772796596586199600,2.762199462890625,0.1054021418094635,-0.16949784755706787,-0.25692710280418396
1772796596596191500,2.77219140625,0.08679649978876114,-0.17879734933376312,-0.24668698012828827
1772796596606183400,2.782183349609375,0.05971050634980202,-0.13574588298797607,-0.22292830049991608
1772796596616175400,2.79217529296875,0.03543392941355705,-0.053910937160253525,-0.18411459028720856
1772796596626167600,2.80216748046875,0.022937683388590813,0.07063911110162735,-0.14492513239383698
1772796596636160300,2.81216015625,0.026797136291861534,0.24419757723808289,-0.11144335567951202
1772796596646152400,2.82215234375,0.04374975338578224,0.4220394790172577,-0.088003009557724
1772796596656144400,2.832144287109375,0.07604511082172394,0.5172472596168518,-0.08444582670927048
1772796596666136600,2.842136474609375,0.11348149180412292,0.5029274225234985,-0.10701870918273926
1772796596676128500,2.85212841796875,0.13640011847019196,0.39716315269470215,-0.1550607979297638
1772796596686120400,2.862120361328125,0.14086458086967468,0.2345777153968811,-0.21656736731529236
1772796596696112400,2.8721123046875,0.13275445997714996,0.052146125584840775,-0.277595579624176
1772796596706104600,2.8821044921875,0.11942603439092636,-0.11668596416711807,-0.3322788178920746
1772796596716096500,2.892096435546875,0.10047684609889984,-0.2446756362915039,-0.37338578701019287
1772796596726088400,2.90208837890625,0.0694296732544899,-0.3254118263721466,-0.39604246616363525
1772796596736080400,2.912080322265625,0.030540062114596367,-0.3391268253326416,-0.38935792446136475
1772796596746072600,2.922072509765625,0.00768266711384058,-0.2647821605205536,-0.34712567925453186
1772796596756064500,2.932064453125,0.012706720270216465,-0.12392597645521164,-0.2667829096317291
1772796596766056400,2.942056396484375,0.04315833002328873,0.0695430263876915,-0.15904004871845245
1772796596776048400,2.95204833984375,0.09391578286886215,0.27672895789146423,-0.04916839674115181
1772796596786040600,2.96204052734375,0.15791967511177063,0.4585666060447693,0.05291037634015083
1772796596796032500,2.972032470703125,0.22158733010292053,0.5827535390853882,0.14728908240795135
1772796596806024400,2.9820244140625,0.2803086042404175,0.6248176693916321,0.2310829609632492
1772796596816017400,2.992017333984375,0.32631659507751465,0.6032494902610779,0.28767940402030945
1772796596826009600,3.002009521484375,0.342623770236969,0.5378034114837646,0.3201320767402649
1772796596836001300,3.012001220703125,0.33377328515052795,0.43167993426322937,0.33326491713523865
1772796596845993500,3.021993408203125,0.3147616684436798,0.31909382343292236,0.327847421169281
1772796596855985400,3.0319853515625,0.285650372505188,0.21355324983596802,0.3158413767814636
1772796596865977600,3.0419775390625,0.24131657183170319,0.11573994904756546,0.2913915812969208
1772796596875969500,3.051969482421875,0.18903684616088867,0.028456442058086395,0.262236624956131
1772796596885961500,3.06196142578125,0.13227470219135284,-0.04215887561440468,0.229989692568779
1772796596895953400,3.071953369140625,0.07218100130558014,-0.08800998330116272,0.19666288793087006
1772796596905945600,3.081945556640625,0.01780112087726593,-0.11585786193609238,0.1652032434940338
1772796596915937500,3.0919375,-0.021464526653289795,-0.12808869779109955,0.14075088500976562
1772796596925929500,3.101929443359375,-0.04582001641392708,-0.12373489141464233,0.13089612126350403
1772796596935921400,3.11192138671875,-0.06757804751396179,-0.09850596636533737,0.13405808806419373
1772796596945913600,3.12191357421875,-0.07175666838884354,-0.05171136558055878,0.1547490656375885
1772796596955905500,3.131905517578125,-0.06848976761102676,0.024122945964336395,0.1913808435201645
1772796596965897500,3.1418974609375,-0.057030074298381805,0.09603781253099442,0.2245476245880127
1772796596975889400,3.151889404296875,-0.041330739855766296,0.1448088139295578,0.2569180727005005
1772796596985882600,3.161882568359375,-0.01658421941101551,0.1748020052909851,0.2818785607814789
1772796596995874600,3.17187451171875,0.0029290278907865286,0.19202493131160736,0.2900315821170807
1772796597005866500,3.181866455078125,0.024706527590751648,0.18302612006664276,0.27589184045791626
1772796597015858700,3.191858642578125,0.03891129791736603,0.1507539302110672,0.2436172515153885
1772796597025850600,3.2018505859375,0.048230934888124466,0.11337512731552124,0.19703634083271027
1772796597035842600,3.211842529296875,0.05631016567349434,0.09236332029104233,0.1358022838830948
1772796597045834500,3.22183447265625,0.07479485869407654,0.07916056364774704,0.07125985622406006
1772796597055826700,3.23182666015625,0.10091248154640198,0.06665275990962982,-0.0006012852536514401
1772796597065818600,3.241818603515625,0.11899378150701523,0.06433481723070145,-0.0772770419716835
1772796597075810600,3.251810546875,0.1315484642982483,0.05653148517012596,-0.1577330082654953
1772796597085802500,3.261802490234375,0.13425424695014954,0.026966601610183716,-0.24305807054042816
1772796597095794400,3.27179443359375,0.13719065487384796,-0.02902769111096859,-0.32234570384025574
1772796597105786600,3.28178662109375,0.13558177649974823,-0.10718215256929398,-0.3949648439884186
1772796597115778600,3.291778564453125,0.14154379069805145,-0.18106649816036224,-0.4577869474887848
1772796597125770500,3.3017705078125,0.15451954305171967,-0.23831526935100555,-0.5065814852714539
1772796597135762400,3.311762451171875,0.17897988855838776,-0.2690556049346924,-0.5261325240135193
1772796597145755600,3.321755615234375,0.20697402954101562,-0.26234444975852966,-0.51973956823349
1772796597155747600,3.33174755859375,0.2310202419757843,-0.21578998863697052,-0.493254691362381
1772796597165739500,3.341739501953125,0.2530095875263214,-0.1460232138633728,-0.45235776901245117
1772796597175731700,3.351731689453125,0.2760501801967621,-0.061983443796634674,-0.4077839255332947
1772796597185723600,3.3617236328125,0.3041102886199951,0.034445688128471375,-0.37087514996528625
1772796597195715600,3.371715576171875,0.33833882212638855,0.11679808795452118,-0.34571731090545654
1772796597205707500,3.38170751953125,0.36309555172920227,0.1570611596107483,-0.3397088944911957
1772796597215699500,3.391699462890625,0.3872826397418976,0.17286860942840576,-0.3398132920265198
1772796597225691600,3.401691650390625,0.40377911925315857,0.16522520780563354,-0.3430384695529938
1772796597235683300,3.411683349609375,0.40258151292800903,0.14655113220214844,-0.34911900758743286
1772796597245675500,3.421675537109375,0.38768309354782104,0.11877168715000153,-0.3529330790042877
1772796597255667500,3.43166748046875,0.3584578335285187,0.08052550256252289,-0.3610098958015442
1772796597265659600,3.44165966796875,0.32526350021362305,0.047833800315856934,-0.3590737581253052
1772796597275651300,3.4516513671875,0.29147037863731384,0.033226896077394485,-0.3608756363391876
1772796597285643500,3.4616435546875,0.26158374547958374,0.02776748314499855,-0.3555445671081543
1772796597295635500,3.471635498046875,0.2261250913143158,0.028499051928520203,-0.35418662428855896
1772796597305627600,3.481627685546875,0.1906888633966446,0.03592081740498543,-0.34891849756240845
1772796597315619600,3.49161962890625,0.16236534714698792,0.05091201514005661,-0.3388884961605072
1772796597325612500,3.501612548828125,0.14524231851100922,0.08174203336238861,-0.32820314168930054
1772796597335604700,3.511604736328125,0.14824636280536652,0.10659944266080856,-0.3148833215236664
1772796597345596700,3.5215966796875,0.15715216100215912,0.11255447566509247,-0.29951411485671997
1772796597355588400,3.53158837890625,0.1711241751909256,0.10372902452945709,-0.2870180308818817
1772796597365580500,3.54158056640625,0.17642347514629364,0.08594603091478348,-0.27225518226623535
1772796597375572500,3.551572509765625,0.18181611597537994,0.05177820473909378,-0.2552037537097931
1772796597385564700,3.561564697265625,0.17498409748077393,-0.009826629422605038,-0.24003519117832184
1772796597395556400,3.571556396484375,0.16264912486076355,-0.11283823102712631,-0.21967504918575287
1772796597405548500,3.581548583984375,0.13894160091876984,-0.26607799530029297,-0.20187176764011383
1772796597415540500,3.59154052734375,0.11078692972660065,-0.4341903030872345,-0.16674652695655823
1772796597425532700,3.60153271484375,0.06762506812810898,-0.5821462869644165,-0.12257727235555649
1772796597435524400,3.6115244140625,0.029270492494106293,-0.6811428666114807,-0.06166279315948486
1772796597445516500,3.6215166015625,-0.0024437792599201202,-0.6828269362449646,0.01541798748075962
1772796597455508500,3.631508544921875,-0.005704021081328392,-0.578117847442627,0.1059524193406105
1772796597465500700,3.641500732421875,0.006169455125927925,-0.447346955537796,0.18657758831977844
1772796597475492400,3.651492431640625,0.021282892674207687,-0.4083060920238495,0.21935337781906128
1772796597485484500,3.661484619140625,0.009212937206029892,-0.4745464622974396,0.19243118166923523
1772796597495477500,3.6714775390625,-0.03717373311519623,-0.5731680393218994,0.11233340948820114
1772796597505469400,3.681469482421875,-0.07830682396888733,-0.6236638426780701,0.030358009040355682
1772796597515461400,3.69146142578125,-0.0768897607922554,-0.5673545002937317,-0.02147136628627777
1772796597525453600,3.70145361328125,-0.03930211439728737,-0.4375022053718567,-0.040890809148550034
1772796597535445500,3.711445556640625,0.007818527519702911,-0.28611135482788086,-0.04409752041101456
1772796597545437700,3.721437744140625,0.05112685263156891,-0.15422308444976807,-0.05120443180203438
1772796597555429400,3.731429443359375,0.09761019796133041,-0.07834537327289581,-0.049072038382291794
1772796597565421600,3.741421630859375,0.14971445500850677,-0.041657861322164536,-0.0300750695168972
1772796597575413500,3.75141357421875,0.21571849286556244,-0.0318148210644722,0.008604148402810097
1772796597585405700,3.76140576171875,0.2993887960910797,-0.05032758787274361,0.07542374730110168
1772796597595397400,3.7713974609375,0.39344632625579834,-0.07434237748384476,0.16201964020729065
1772796597605389600,3.7813896484375,0.4858359396457672,-0.06613011658191681,0.2610020637512207
1772796597615381500,3.791381591796875,0.5673574805259705,-0.01159230712801218,0.3792448043823242
1772796597625373700,3.801373779296875,0.6382361650466919,0.0751090943813324,0.4963238537311554
1772796597635365400,3.811365478515625,0.6899132132530212,0.17862270772457123,0.6087321639060974
1772796597645357600,3.821357666015625,0.7248873710632324,0.28707048296928406,0.7117677330970764
1772796597655350500,3.8313505859375,0.7561675310134888,0.37508314847946167,0.794059157371521
1772796597665342500,3.841342529296875,0.7744091153144836,0.44451776146888733,0.8485752940177917
1772796597675334400,3.85133447265625,0.7759494781494141,0.4963786005973816,0.8760750889778137
1772796597685326600,3.86132666015625,0.7614392638206482,0.5219950079917908,0.8691069483757019
1772796597695318500,3.871318603515625,0.7265149354934692,0.5259405970573425,0.8435773253440857
1772796597705310500,3.881310546875,0.6745923757553101,0.5039976239204407,0.7963575124740601
1772796597715302400,3.891302490234375,0.6030321717262268,0.4526928961277008,0.72209632396698
1772796597725294600,3.901294677734375,0.5291737914085388,0.3617374002933502,0.627240777015686
1772796597735286500,3.91128662109375,0.45440739393234253,0.26075008511543274,0.5216712355613708
1772796597745278700,3.92127880859375,0.38801485300064087,0.16514265537261963,0.4011651575565338
1772796597755270400,3.9312705078125,0.3486187160015106,0.08345258235931396,0.28310057520866394
1772796597765262600,3.9412626953125,0.3296141028404236,0.014937635511159897,0.16570167243480682
1772796597775254500,3.951254638671875,0.33260536193847656,-0.021493608132004738,0.062279678881168365
1772796597785246700,3.961246826171875,0.3440329134464264,-0.015992581844329834,-0.026017243042588234
1772796597795238400,3.97123828125,0.3566584289073944,0.032082002609968185,-0.09510044008493423
1772796597805230600,3.981230712890625,0.3623019754886627,0.10516133159399033,-0.1459808051586151
1772796597815222500,3.991222412109375,0.3710605800151825,0.17656894028186798,-0.18497507274150848
1772796597825215500,4.001215576171875,0.38479748368263245,0.24978649616241455,-0.21239644289016724
1772796597835207400,4.01120751953125,0.4041677415370941,0.3074681758880615,-0.23396910727024078
1772796597845199600,4.02119970703125,0.434993177652359,0.36120083928108215,-0.24452075362205505
1772796597855191600,4.031191650390625,0.4743933081626892,0.38195937871932983,-0.2400176078081131
1772796597865183500,4.04118359375,0.5197551846504211,0.38679414987564087,-0.22445698082447052
1772796597875175400,4.051175537109375,0.5708602070808411,0.38496455550193787,-0.19935056567192078
1772796597885167600,4.061167724609375,0.6351274847984314,0.39084169268608093,-0.1639166921377182
1772796597895159600,4.07115966796875,0.7151493430137634,0.4118843674659729,-0.12078627198934555
1772796597905151500,4.0811513671875,0.8101488351821899,0.4413529932498932,-0.07159881293773651
1772796597915143400,4.091143310546875,0.906082808971405,0.4716203510761261,-0.026006026193499565
1772796597925135600,4.101135498046875,0.9936314225196838,0.4859774708747864,0.021376216784119606
1772796597935127600,4.11112744140625,1.072594165802002,0.495157390832901,0.056093182414770126
1772796597945119700,4.12111962890625,1.136687159538269,0.5006608963012695,0.09212484210729599
1772796597955112200,4.1311123046875,1.1916017532348633,0.5001189708709717,0.10548538714647293
1772796597965104000,4.141104248046875,1.2374234199523926,0.48424214124679565,0.09569989889860153
1772796597975096300,4.151096435546875,1.27311110496521,0.45859935879707336,0.07377222925424576
1772796597985088000,4.161087890625,1.2982268333435059,0.43103352189064026,0.04262297600507736
1772796597995081200,4.171081298828125,1.3123620748519897,0.4014628231525421,-0.004434013739228249
1772796598005073200,4.1810732421875,1.3181415796279907,0.37306782603263855,-0.04528551921248436
1772796598015065000,4.191065185546875,1.3176467418670654,0.3487212061882019,-0.09138190746307373
1772796598025057000,4.20105712890625,1.3177165985107422,0.3094598948955536,-0.13679389655590057
1772796598035049200,4.21104931640625,1.312489628791809,0.2642900049686432,-0.17104534804821014
1772796598045041200,4.221041259765625,1.3060659170150757,0.2134423404932022,-0.20170408487319946
1772796598055033000,4.231033203125,1.3039028644561768,0.18355156481266022,-0.2192346155643463
1772796598065025000,4.24102490234375,1.2965517044067383,0.17536179721355438,-0.234727144241333
1772796598075017200,4.251017333984375,1.2914447784423828,0.17551864683628082,-0.24452756345272064
1772796598085009200,4.261009033203125,1.2903285026550293,0.17900432646274567,-0.24668923020362854
1772796598095001300,4.27100146484375,1.2924233675003052,0.19609622657299042,-0.2444220781326294
1772796598104993000,4.280992919921875,1.2978427410125732,0.21322356164455414,-0.2358439713716507
1772796598114985200,4.290985107421875,1.307327389717102,0.23273947834968567,-0.22166264057159424
1772796598124977200,4.30097705078125,1.3182092905044556,0.24523994326591492,-0.203280970454216
1772796598134969300,4.31096923828125,1.3346607685089111,0.25870490074157715,-0.18355174362659454
1772796598144961000,4.3209609375,1.3510172367095947,0.2757704257965088,-0.15372821688652039
1772796598154953200,4.330953125,1.365653395652771,0.2921041250228882,-0.12272370606660843
1772796598164946200,4.3409462890625,1.3799294233322144,0.3051493465900421,-0.09019812196493149
1772796598174938000,4.350938232421875,1.3894613981246948,0.3207908868789673,-0.0635920837521553
1772796598184930000,4.360929931640625,1.3983256816864014,0.3416639566421509,-0.039741408079862595
1772796598194922200,4.370922119140625,1.4136860370635986,0.3691645562648773,-0.025004269555211067
1772796598204914200,4.3809140625,1.4347264766693115,0.396870493888855,-0.016533082351088524
1772796598214906000,4.390906005859375,1.4693158864974976,0.41635897755622864,-0.010723130777478218
1772796598224898000,4.40089794921875,1.5181668996810913,0.4397869408130646,-0.012618470937013626
1772796598234890200,4.41089013671875,1.5750811100006104,0.454883337020874,-0.005685198120772839
1772796598244882200,4.420882080078125,1.6260572671890259,0.46872496604919434,-0.0018889728235080838
1772796598254874000,4.4308740234375,1.6699509620666504,0.4693201780319214,0.008015323430299759
1772796598264866000,4.440865966796875,1.695294737815857,0.4300038814544678,0.035969555377960205
1772796598274858200,4.450858154296875,1.703661322593689,0.37255364656448364,0.08192773163318634
1772796598284850200,4.46085009765625,1.7097117900848389,0.33941519260406494,0.15506930649280548
1772796598294842400,4.47084228515625,1.7291795015335083,0.3395427465438843,0.24703703820705414
1772796598304834000,4.480833984375,1.758503794670105,0.3643403947353363,0.34316885471343994
1772796598314826200,4.490826171875,1.7826567888259888,0.42773160338401794,0.4124448597431183
1772796598324819200,4.500819091796875,1.8230823278427124,0.5110052227973938,0.44139912724494934
1772796598334811100,4.51081103515625,1.8758214712142944,0.5999351143836975,0.42067068815231323
1772796598344803000,4.520802978515625,1.9369502067565918,0.671707272529602,0.35310298204421997
1772796598354795300,4.530795166015625,2.0055181980133057,0.7148811221122742,0.25774797797203064
1772796598364787200,4.540787109375,2.0690813064575195,0.7569527626037598,0.15108847618103027
1772796598374779100,4.550779052734375,2.130183219909668,0.8310674428939819,0.04578068479895592
1772796598384771000,4.56077099609375,2.183823823928833,0.8990542888641357,-0.06007878854870796
1772796598394763300,4.57076318359375,2.2099266052246094,0.8761601448059082,-0.15951083600521088
1772796598404755200,4.580755126953125,2.196716547012329,0.7565671801567078,-0.26234111189842224
1772796598414747100,4.5907470703125,2.142397403717041,0.5502092242240906,-0.3716380298137665
1772796598424739000,4.600739013671875,2.06325364112854,0.29730668663978577,-0.46700116991996765
1772796598434731300,4.610731201171875,2.0041344165802,0.06588730216026306,-0.5395981073379517
1772796598444723200,4.62072314453125,1.9942439794540405,-0.08046012371778488,-0.5733048915863037
1772796598454715100,4.630715087890625,2.0193214416503906,-0.11329902708530426,-0.5688992142677307
1772796598464707000,4.64070703125,2.0676732063293457,-0.04127417132258415,-0.5301951766014099
1772796598474699300,4.65069921875,2.130352258682251,0.10196128487586975,-0.4653911590576172
1772796598484692200,4.660692138671875,2.1748929023742676,0.2604001760482788,-0.38812902569770813
1772796598494684200,4.67068408203125,2.2046096324920654,0.389233261346817,-0.29415085911750793
1772796598504676000,4.680676025390625,2.213804244995117,0.4527677595615387,-0.19491374492645264
1772796598514668300,4.690668212890625,2.2046093940734863,0.4479610323905945,-0.10181175917387009
1772796598524660200,4.70066015625,2.1957712173461914,0.3763159513473511,-0.02528105117380619
1772796598534652200,4.710652099609375,2.1692802906036377,0.2749411463737488,0.02827298827469349
1772796598544644000,4.72064404296875,2.138531446456909,0.1592750996351242,0.0613018237054348
1772796598554636300,4.73063623046875,2.094531297683716,0.06667353212833405,0.07930799573659897
1772796598564628200,4.740628173828125,2.033997058868408,0.020797189325094223,0.09173454344272614
1772796598574620200,4.7506201171875,1.9605168104171753,0.02517276257276535,0.09928993880748749
1772796598584612000,4.760612060546875,1.8812048435211182,0.06214849650859833,0.10423165559768677
1772796598594604300,4.770604248046875,1.8014309406280518,0.11149367690086365,0.09653139114379883
1772796598604596200,4.78059619140625,1.7316144704818726,0.1586904078722,0.07697109878063202
1772796598614588200,4.790588134765625,1.6726491451263428,0.19680556654930115,0.04369835928082466
1772796598624580000,4.800580078125,1.6292235851287842,0.22240972518920898,0.002121152589097619
1772796598634572300,4.810572265625,1.5905145406723022,0.22754935920238495,-0.04129316657781601
1772796598644565000,4.82056494140625,1.5567398071289062,0.2105322927236557,-0.08393224328756332
1772796598654557200,4.83055712890625,1.5284783840179443,0.16836141049861908,-0.10479331016540527
1772796598664549000,4.840549072265625,1.5056191682815552,0.13253891468048096,-0.11346063017845154
1772796598674541300,4.850541259765625,1.4901930093765259,0.11281873285770416,-0.10403650254011154
1772796598684533000,4.860532958984375,1.4608452320098877,0.11478327959775925,-0.08013607561588287
1772796598694525200,4.870525146484375,1.4269213676452637,0.1238875538110733,-0.04264835640788078
1772796598704517000,4.88051708984375,1.3852615356445312,0.13868427276611328,-0.0042701829224824905
1772796598714509300,4.89050927734375,1.3457868099212646,0.16835269331932068,0.038192588835954666
1772796598724501200,4.900501220703125,1.3144530057907104,0.2156512290239334,0.0757579356431961
1772796598734493200,4.9104931640625,1.3049830198287964,0.26179903745651245,0.10374269634485245
1772796598744485000,4.920485107421875,1.2972159385681152,0.2999895513057709,0.12325860559940338
1772796598754477300,4.930477294921875,1.2883001565933228,0.33532917499542236,0.12925922870635986
1772796598764469200,4.94046923828125,1.2744485139846802,0.3667573928833008,0.13424435257911682
1772796598774461200,4.950461181640625,1.2525759935379028,0.4014301598072052,0.13305844366550446
1772796598784453000,4.960453125,1.232715368270874,0.43556901812553406,0.1324102133512497
1772796598794445300,4.9704453125,1.2189260721206665,0.4739683270454407,0.13433220982551575
1772796598804437200,4.980437255859375,1.2176833152770996,0.5307927131652832,0.13656626641750336
1772796598814430200,4.99043017578125,1.2250392436981201,0.6005832552909851,0.13418114185333252
1772796598824422100,5.000422119140625,1.2265098094940186,0.6766932010650635,0.1283634603023529
1772796598834414300,5.010414306640625,1.2246978282928467,0.725357711315155,0.11069206148386002
1772796598844406000,5.020406005859375,1.2215888500213623,0.7371607422828674,0.08950576186180115
1772796598854398200,5.030398193359375,1.2174615859985352,0.7159196138381958,0.06188745051622391
1772796598864390100,5.04039013671875,1.2168749570846558,0.6652168035507202,0.03972790017724037
1772796598874382300,5.05038232421875,1.2184594869613647,0.6084621548652649,0.018277736380696297
1772796598884374000,5.0603740234375,1.2219724655151367,0.5592132806777954,0.00512742530554533
1772796598894366200,5.0703662109375,1.2255631685256958,0.5271416306495667,-0.014782100915908813
1772796598904358100,5.080358154296875,1.2356263399124146,0.49748361110687256,-0.03389681503176689
1772796598914350300,5.090350341796875,1.2516422271728516,0.46953609585762024,-0.0528971366584301
1772796598924342300,5.10034228515625,1.2739053964614868,0.4422775208950043,-0.06707900017499924
1772796598934334200,5.110334228515625,1.2961102724075317,0.4215378761291504,-0.06997199356555939
1772796598944326100,5.120326171875,1.3071510791778564,0.40374132990837097,-0.06293177604675293
1772796598954317800,5.13031787109375,1.313863754272461,0.39981502294540405,-0.052535321563482285
1772796598964310000,5.14031005859375,1.3140037059783936,0.3967228829860687,-0.03950830176472664
1772796598974303000,5.150302978515625,1.311722993850708,0.39699292182922363,-0.023545311763882637
1772796598984295000,5.160294921875,1.3095154762268066,0.39678481221199036,-0.012650493532419205
1772796598994287000,5.170287109375,1.3034733533859253,0.39308542013168335,-0.006642668507993221
1772796599004278800,5.18027880859375,1.295702576637268,0.3724651634693146,-0.0002979689743369818
1772796599014271000,5.19027099609375,1.2833894491195679,0.3383335471153259,-0.002262849360704422
1772796599024263000,5.200262939453125,1.2729628086090088,0.3120993673801422,-0.0038246186450123787
1772796599034255000,5.210255126953125,1.261077642440796,0.2963033616542816,-0.012357121333479881
1772796599044247000,5.2202470703125,1.241411566734314,0.2852659225463867,-0.025423593819141388
1772796599054239000,5.230239013671875,1.2272610664367676,0.2831774652004242,-0.043994881212711334
1772796599064231000,5.24023095703125,1.2196331024169922,0.2881767153739929,-0.0624435655772686
1772796599074223000,5.25022314453125,1.2169095277786255,0.2966458201408386,-0.08322741091251373
1772796599084215000,5.260215087890625,1.2123533487319946,0.3103053867816925,-0.09928658604621887
1772796599094206700,5.270206787109375,1.2087852954864502,0.3199383020401001,-0.11226150393486023
1772796599104199000,5.280198974609375,1.2018418312072754,0.3264404535293579,-0.12136520445346832
1772796599114190800,5.29019091796875,1.1886608600616455,0.32311898469924927,-0.12160488963127136
1772796599124183800,5.300183837890625,1.1816182136535645,0.3128946125507355,-0.12054111808538437
1772796599134176000,5.310176025390625,1.173532247543335,0.3010334372520447,-0.11953790485858917
1772796599144168000,5.32016796875,1.1593810319900513,0.2805140018463135,-0.11489212512969971
1772796599154160000,5.33016015625,1.14051353931427,0.2600713074207306,-0.11304336786270142
1772796599164151800,5.34015185546875,1.1119872331619263,0.24138443171977997,-0.11151431500911713
1772796599174144000,5.35014404296875,1.0869756937026978,0.21688494086265564,-0.11098301410675049
1772796599184136000,5.360135986328125,1.0567539930343628,0.19669964909553528,-0.10832220315933228
1772796599194128100,5.370128173828125,1.0246953964233398,0.17514295876026154,-0.10691072791814804
1772796599204119800,5.380119873046875,0.9941054582595825,0.16773857176303864,-0.10533475130796432
1772796599214111700,5.39011181640625,0.9659300446510315,0.1727309226989746,-0.10903068631887436
1772796599224104000,5.40010400390625,0.936547577381134,0.18754136562347412,-0.11806067824363708
1772796599234095900,5.410095947265625,0.916081964969635,0.2074516862630844,-0.1307956427335739
1772796599244087800,5.420087890625,0.9041469097137451,0.229317307472229,-0.1456923633813858
1772796599254079700,5.430079833984375,0.9027085304260254,0.23851026594638824,-0.1550440490245819
1772796599264072000,5.440072021484375,0.8983269333839417,0.21872977912425995,-0.16339579224586487
1772796599274064000,5.45006396484375,0.8892490267753601,0.1877649426460266,-0.1611957550048828
1772796599284056800,5.460056884765625,0.8799760937690735,0.14341005682945251,-0.1471230834722519
1772796599294049000,5.470049072265625,0.8682973384857178,0.1132175400853157,-0.1341628134250641
1772796599304041000,5.480041015625,0.8609998226165771,0.08446338772773743,-0.10964912921190262
1772796599314033200,5.490033203125,0.8528042435646057,0.03957900032401085,-0.08222522586584091
1772796599324024800,5.50002490234375,0.8298214673995972,-0.018142154440283775,-0.04685364291071892
1772796599334017000,5.51001708984375,0.8009328246116638,-0.06902184337377548,-0.011331601068377495
1772796599344009000,5.520009033203125,0.765347957611084,-0.12441359460353851,0.01995190978050232
1772796599354001000,5.5300009765625,0.7244476675987244,-0.1722804456949234,0.05540976673364639
1772796599363992800,5.539992919921875,0.6850734353065491,-0.19635237753391266,0.08395157009363174
1772796599373984800,5.54998486328125,0.6545323133468628,-0.200788676738739,0.112968310713768
1772796599383977000,5.55997705078125,0.6327062845230103,-0.20574726164340973,0.13879793882369995
1772796599393969000,5.569968994140625,0.6015116572380066,-0.22018904983997345,0.15713246166706085
1772796599403960800,5.5799609375,0.5768328905105591,-0.25115111470222473,0.1670089066028595
1772796599413952800,5.589952880859375,0.5489828586578369,-0.2938154935836792,0.17043372988700867
1772796599423945000,5.599945068359375,0.5308102965354919,-0.32678553462028503,0.1633560061454773
1772796599433938000,5.60993798828125,0.5179629325866699,-0.3297661542892456,0.14794136583805084
1772796599443929900,5.619929931640625,0.5013842582702637,-0.3296164870262146,0.11605539917945862
1772796599453922000,5.629922119140625,0.4661291241645813,-0.3970634341239929,0.04668324813246727
1772796599463914000,5.6399140625,0.3984333276748657,-0.5336832404136658,-0.07282105833292007
1772796599473906000,5.649906005859375,0.3277101516723633,-0.6669960618019104,-0.21178001165390015
1772796599483897900,5.65989794921875,0.28304147720336914,-0.6995512247085571,-0.3312419056892395
1772796599493889800,5.669889892578125,0.28413042426109314,-0.6094365119934082,-0.4098661541938782
1772796599503882000,5.679882080078125,0.32621344923973083,-0.4232487678527832,-0.43983596563339233
1772796599513874000,5.6898740234375,0.38921183347702026,-0.193381205201149,-0.437688946723938
1772796599523865900,5.699865966796875,0.4508514106273651,0.06515027582645416,-0.4149248003959656
1772796599533857800,5.70985791015625,0.49915212392807007,0.31093740463256836,-0.3699783682823181
1772796599543850000,5.71985009765625,0.5268115997314453,0.48243820667266846,-0.31134164333343506
1772796599553842000,5.729842041015625,0.5250339508056641,0.5498590469360352,-0.2512111961841583
1772796599563833900,5.739833740234375,0.5210142135620117,0.5111634731292725,-0.187244713306427
1772796599573825800,5.74982568359375,0.5210698843002319,0.3956534266471863,-0.1272604763507843
1772796599583818000,5.75981787109375,0.5452960729598999,0.26465827226638794,-0.060032058507204056
1772796599593811000,5.76981103515625,0.5907509326934814,0.17002202570438385,0.015508504584431648
1772796599603803000,5.779802978515625,0.6329352855682373,0.13881337642669678,0.10790178179740906
1772796599613795000,5.789795166015625,0.688025951385498,0.1937248259782791,0.21913883090019226
1772796599623787000,5.799787109375,0.754568338394165,0.31807732582092285,0.3252653479576111
1772796599633778700,5.80977880859375,0.8269650340080261,0.4938582181930542,0.4222760498523712
1772796599643771000,5.81977099609375,0.898988664150238,0.680323600769043,0.497638076543808
1772796599653762800,5.8297626953125,0.9575902223587036,0.8324039578437805,0.5506858825683594
1772796599663755000,5.839755126953125,0.9913702011108398,0.9338089823722839,0.5742743611335754
1772796599673747000,5.849746826171875,1.0035544633865356,0.9848694801330566,0.5659394264221191
1772796599683739000,5.85973876953125,0.9865524768829346,0.9769768714904785,0.5272164344787598
1772796599693730800,5.869730712890625,0.9510471820831299,0.9007713198661804,0.4536934494972229
1772796599703723000,5.879722900390625,0.9098092317581177,0.7559009194374084,0.35870561003685
1772796599713715000,5.88971484375,0.867411196231842,0.5742719769477844,0.24345386028289795
1772796599723707000,5.899706787109375,0.8455402255058289,0.4021587371826172,0.12158488482236862
1772796599733698800,5.90969873046875,0.845082700252533,0.28209546208381653,0.011870641261339188
1772796599743692000,5.919692138671875,0.8645430207252502,0.2227296531200409,-0.09034615010023117
1772796599753683700,5.92968359375,0.891906201839447,0.21403229236602783,-0.17154566943645477
1772796599763676000,5.939676025390625,0.9153093695640564,0.26227933168411255,-0.22687499225139618
1772796599773667800,5.949667724609375,0.9320478439331055,0.3405626714229584,-0.25537028908729553
1772796599783660000,5.959659912109375,0.9397659301757812,0.41571182012557983,-0.2612161934375763
1772796599793651700,5.969651611328125,0.9403771162033081,0.46554461121559143,-0.24885274469852448
1772796599803644000,5.979643798828125,0.9465832114219666,0.46486198902130127,-0.20870709419250488
1772796599813635800,5.9896357421875,0.9522567987442017,0.4408527910709381,-0.15813739597797394
1772796599823628000,5.9996279296875,0.947037398815155,0.4118379056453705,-0.0800776258111
1772796599833619700,6.00961962890625,0.9319276809692383,0.3769529163837433,0.0006814011139795184
1772796599843612000,6.01961181640625,0.9065366387367249,0.3432546555995941,0.07996727526187897
1772796599853603800,6.029603759765625,0.8741025328636169,0.32547885179519653,0.1467825174331665
1772796599863596000,6.039595947265625,0.8353526592254639,0.3078509569168091,0.2005370855331421
1772796599873588000,6.049587890625,0.795444905757904,0.297293096780777,0.2304838001728058
1772796599883580000,6.059579833984375,0.7611935138702393,0.28727030754089355,0.24052317440509796
1772796599893571800,6.06957177734375,0.7338069081306458,0.2667655646800995,0.22742974758148193
1772796599903565000,6.07956494140625,0.7108995318412781,0.240933358669281,0.20022477209568024
1772796599913556700,6.089556640625,0.6974644064903259,0.2320099025964737,0.15595397353172302
1772796599923549000,6.099548828125,0.6890115737915039,0.24004319310188293,0.1106918677687645
1772796599933540900,6.109540771484375,0.6756930947303772,0.267979234457016,0.06330624222755432
1772796599943533000,6.119532958984375,0.6590139865875244,0.30460840463638306,0.02284916490316391
1772796599953525000,6.12952490234375,0.6349502205848694,0.3437859117984772,-0.018685495480895042
1772796599963517000,6.139516845703125,0.6124244928359985,0.3847609758377075,-0.061514656990766525
1772796599973509000,6.149509033203125,0.586749255657196,0.4206419885158539,-0.1037430688738823
1772796599983501000,6.1595009765625,0.5652737021446228,0.43824273347854614,-0.14428214728832245
1772796599993493000,6.169492919921875,0.5438773036003113,0.4271498918533325,-0.18919795751571655
1772796600003485000,6.17948486328125,0.5232232809066772,0.3846754729747772,-0.22794677317142487
1772796600013477000,6.18947705078125,0.49706411361694336,0.3232177197933197,-0.2547219395637512
1772796600023469000,6.199468994140625,0.4583192765712738,0.2547384202480316,-0.2707865536212921
1772796600033461000,6.2094609375,0.42759969830513,0.19338400661945343,-0.2721106708049774
1772796600043453000,6.219452880859375,0.39190444350242615,0.1570752114057541,-0.2594078481197357
1772796600053445000,6.229445068359375,0.36937835812568665,0.14517487585544586,-0.23597577214241028
1772796600063437800,6.239437744140625,0.3544130027294159,0.14504311978816986,-0.21602942049503326
1772796600073430000,6.249429931640625,0.35688573122024536,0.13844725489616394,-0.19462719559669495
1772796600083422000,6.259421875,0.3695150315761566,0.13852635025978088,-0.17368297278881073
1772796600093414100,6.2694140625,0.3831765353679657,0.1365596055984497,-0.1483464539051056
1772796600103406000,6.279406005859375,0.4022831320762634,0.1553611308336258,-0.1181604340672493
1772796600113398000,6.28939794921875,0.4079841673374176,0.1970001757144928,-0.08605895936489105
1772796600123390000,6.299389892578125,0.4116000235080719,0.2541975677013397,-0.04148619621992111
1772796600133382100,6.309382080078125,0.40831422805786133,0.3183392882347107,0.009264863096177578
1772796600143374000,6.3193740234375,0.3988766074180603,0.35957103967666626,0.059916071593761444
1772796600153366000,6.329365966796875,0.38358819484710693,0.37333640456199646,0.10190293192863464
1772796600163358000,6.33935791015625,0.35975679755210876,0.35608917474746704,0.13504153490066528
1772796600173350100,6.34935009765625,0.33030247688293457,0.3138250708580017,0.14882045984268188
1772796600183342000,6.359342041015625,0.2981718182563782,0.2543618083000183,0.14830505847930908
1772796600193334000,6.369333984375,0.27418315410614014,0.17397695779800415,0.13312743604183197
1772796600203326000,6.379325927734375,0.2605587840080261,0.10450366884469986,0.1044541671872139
1772796600213318100,6.389318115234375,0.25321778655052185,0.054964084178209305,0.07373646646738052
1772796600223310800,6.399310791015625,0.24910157918930054,0.04978623241186142,0.043235111981630325
1772796600233303000,6.409302978515625,0.24352091550827026,0.07376347482204437,0.007254740223288536
1772796600243295000,6.419294921875,0.24683281779289246,0.10908924043178558,-0.0094797657802701
1772796600253287200,6.429287109375,0.26299989223480225,0.15342700481414795,-0.017380064353346825
1772796600263278800,6.43927880859375,0.28680187463760376,0.20808911323547363,-0.009352073073387146
1772796600273271000,6.44927099609375,0.31968286633491516,0.2808176577091217,0.004515805281698704
1772796600283263000,6.459262939453125,0.34836557507514954,0.40045610070228577,0.030251136049628258
1772796600293255200,6.469255126953125,0.37410131096839905,0.4926864206790924,0.06536705046892166
1772796600303246800,6.479246826171875,0.38033756613731384,0.44221818447113037,0.07919890433549881
1772796600313239000,6.489239013671875,0.334523469209671,0.2721404731273651,0.041026223450899124
1772796600323231000,6.49923095703125,0.24442780017852783,0.05077899247407913,-0.03611721843481064
1772796600333223200,6.50922314453125,0.1528872400522232,-0.16557994484901428,-0.11440189927816391
1772796600343215000,6.519215087890625,0.09809275716543198,-0.31631138920783997,-0.1680126041173935
1772796600353207000,6.52920703125,0.0728481262922287,-0.40789616107940674,-0.19215655326843262
1772796600363199000,6.539198974609375,0.05412175506353378,-0.44944995641708374,-0.19524502754211426
1772796600373191200,6.549191162109375,0.05233610421419144,-0.4175628423690796,-0.19519150257110596
1772796600383184000,6.559183837890625,0.08624240756034851,-0.3170388340950012,-0.17587260901927948
1772796600393176000,6.569176025390625,0.13985104858875275,-0.1687963753938675,-0.13772068917751312
1772796600403168000,6.57916796875,0.1917429268360138,-0.01205203216522932,-0.08902168273925781
1772796600413160200,6.58916015625,0.2385178804397583,0.11914700269699097,-0.03784451261162758
1772796600423151900,6.59915185546875,0.2684115171432495,0.2056310772895813,0.0025540259666740894
1772796600433144000,6.60914404296875,0.2905708849430084,0.22981524467468262,0.03485018014907837
1772796600443136000,6.619135986328125,0.30479419231414795,0.21425341069698334,0.06802596151828766
1772796600453128200,6.629128173828125,0.30939292907714844,0.17268545925617218,0.09206152707338333
1772796600463120000,6.639119873046875,0.2978854775428772,0.08883723616600037,0.12472530454397202
1772796600473112000,6.649112060546875,0.27382010221481323,0.003340443130582571,0.15422487258911133
1772796600483104000,6.65910400390625,0.24384886026382446,-0.052328016608953476,0.19678016006946564
1772796600493096200,6.66909619140625,0.21793843805789948,-0.06836264580488205,0.2536492943763733
1772796600503087900,6.679087890625,0.19156168401241302,-0.042332906275987625,0.3012695610523224
1772796600513080000,6.689080078125,0.17153924703598022,0.0018465365283191204,0.34968501329421997
1772796600523072000,6.699072021484375,0.14966008067131042,0.052212368696928024,0.3730672299861908
1772796600533064200,6.709064208984375,0.12481971830129623,0.09634840488433838,0.3680668771266937
1772796600543057000,6.719056884765625,0.10521651059389114,0.12404847145080566,0.3373319208621979
1772796600553049000,6.729049072265625,0.09172387421131134,0.1208372414112091,0.2770896255970001
1772796600563041000,6.739041015625,0.09077955782413483,0.08080040663480759,0.19689048826694489
1772796600573033200,6.749033203125,0.09880951792001724,0.013724703341722488,0.11090075224637985
1772796600583025000,6.75902490234375,0.10740744322538376,-0.0554325170814991,0.03242504596710205
1772796600593017000,6.76901708984375,0.11285734176635742,-0.11520956456661224,-0.021659759804606438
1772796600603009000,6.779009033203125,0.1258361041545868,-0.14280159771442413,-0.042760223150253296
1772796600613001200,6.789001220703125,0.13970345258712769,-0.13905265927314758,-0.03140317276120186
1772796600622993000,6.798992919921875,0.15471473336219788,-0.08561892807483673,-0.01643815077841282
1772796600632985000,6.808985107421875,0.17381945252418518,-0.001206046435981989,-0.004814517684280872
1772796600642977000,6.81897705078125,0.20434416830539703,0.08123230189085007,-0.00693144928663969
1772796600652969200,6.82896923828125,0.23939509689807892,0.1299668252468109,-0.011009015142917633
1772796600662961000,6.8389609375,0.2733592689037323,0.14765913784503937,-0.022161846980452538
1772796600672953000,6.848953125,0.28667744994163513,0.15587499737739563,-0.035316530615091324
1772796600682945000,6.858945068359375,0.2877790629863739,0.14014090597629547,-0.057664211839437485
1772796600692937200,6.868937255859375,0.27909156680107117,0.10990656912326813,-0.09484992921352386
1772796600702930000,6.878929931640625,0.2628103792667389,0.0947769433259964,-0.1434495747089386
1772796600712922000,6.888922119140625,0.24990630149841309,0.08565135300159454,-0.21394211053848267
1772796600722914000,6.8989140625,0.24199804663658142,0.08559169620275497,-0.2895449697971344
1772796600732906000,6.908906005859375,0.23186445236206055,0.13464979827404022,-0.26846766471862793
1772796600742898000,6.91889794921875,0.200496643781662,0.1700746864080429,-0.21152818202972412
1772796600752890000,6.92889013671875,0.17190414667129517,0.18362298607826233,-0.15570911765098572
1772796600762882000,6.938882080078125,0.16635428369045258,0.13564428687095642,-0.10556351393461227
1772796600772874200,6.948874267578125,0.17210164666175842,0.017634285613894463,-0.09402989596128464
1772796600782866000,6.958865966796875,0.1637934148311615,-0.12535423040390015,-0.13990966975688934
1772796600792858000,6.968858154296875,0.13504432141780853,-0.2680964469909668,-0.23417624831199646
1772796600802850000,6.97885009765625,0.11734778434038162,-0.3725430965423584,-0.3548818528652191
1772796600812842200,6.98884228515625,0.13095013797283173,-0.37679964303970337,-0.4453379809856415
1772796600822834000,6.998833984375,0.1491241157054901,-0.298822283744812,-0.46991363167762756
1772796600832826000,7.008826171875,0.15088047087192535,-0.18299555778503418,-0.46321338415145874
