time,seconds_elapsed,z,y,x
1772796601881891800,0.066891845703125,-0.18052724754214286,-0.4391964500375092,0.26765907609350975
1772796601891884000,0.076884033203125,-0.10374328306913375,-0.42916371632292866,0.41529418092444537
1772796601901876000,0.0868759765625,-0.0383943203240633,-0.3818153974317014,0.5070436593391001
1772796601911868200,0.0968681640625,0.023485505005717278,-0.3196760443829,0.5564565826099366
1772796601921860000,0.106860107421875,0.0950403366535902,-0.2715849443003535,0.6019637306138873
1772796601931852000,0.11685205078125,0.11090309169590473,-0.25456132878512144,0.6495951772954315
1772796601941844000,0.126843994140625,0.12977321186065674,-0.23814517764374613,0.6436451828498393
1772796601951837200,0.136837158203125,0.12325520826876163,-0.19446239552274344,0.5886232605908066
1772796601961829400,0.146829345703125,0.09368249230384826,-0.14947919832766055,0.49605640137866136
1772796601971821300,0.1568212890625,0.08118892143368721,-0.07836334261894226,0.3509422663927078
1772796601981813500,0.1668134765625,0.04527531200945377,-0.008175707671046256,0.25465463309176267
1772796601991805400,0.176805419921875,-0.00867313579916954,0.027221184402704237,0.21598777943663297
1772796602001797400,0.18679736328125,-0.03396013726890087,0.05516849112287164,0.18583200288675725
1772796602011789300,0.196789306640625,-0.04601356315612793,0.09894026670157909,0.12982223863415418
1772796602021781500,0.206781494140625,-0.011145663392543793,0.12354717695266007,0.08503200672790408
1772796602031773400,0.2167734375,0.044265258184075354,0.13166150982528924,0.012841361394524574
1772796602041765400,0.226765380859375,0.09469313065111637,0.1442591255918145,-0.03866290813237428
1772796602051757300,0.23675732421875,0.16111702915132045,0.1004518403083086,-0.06854388632886112
1772796602061749500,0.24674951171875,0.23069793037772177,0.04905892220139503,-0.08311857432201504
1772796602071741400,0.256741455078125,0.2880290063619613,-0.0021571780338883397,-0.05933993158861994
1772796602081733400,0.2667333984375,0.3737164082586765,-0.03459580482393503,-0.025286490013077853
1772796602091725300,0.276725341796875,0.4342594320267439,-0.0685484894387424,-0.023203107867762446
1772796602101718500,0.286718505859375,0.45919455131888387,-0.09374664358124137,-0.026481471951305863
1772796602111710200,0.296710205078125,0.48260932917594906,-0.11988310148715972,-0.09323504079729318
1772796602121702400,0.306702392578125,0.509350036585331,-0.13353139535039663,-0.12913082230389117
1772796602131694300,0.3166943359375,0.48485564679801463,-0.17932079436182974,-0.16293554981537162
1772796602141686500,0.3266865234375,0.46392742505967616,-0.21739026664569971,-0.21505751284919677
1772796602151678200,0.33667822265625,0.47705870931148525,-0.26572555074766274,-0.21887502531073985
1772796602161670400,0.34667041015625,0.4334668203443289,-0.2936176201492548,-0.24367972315624356
1772796602171662300,0.356662353515625,0.4077893582522869,-0.32132571128606796,-0.25507366222143174
1772796602181654500,0.366654541015625,0.38097500108480453,-0.34370632378980515,-0.25789061933830376
1772796602191646500,0.376646484375,0.3342377998292446,-0.36785292305275796,-0.234647544786334
1772796602201638400,0.386638427734375,0.2845429178118706,-0.40070582973212,-0.20902458936050533
1772796602211630300,0.39663037109375,0.2966495351910591,-0.44185573237463827,-0.16784546062350272
1772796602221622500,0.40662255859375,0.31031916410326954,-0.4425516056843102,-0.17689327495396137
1772796602231614500,0.416614501953125,0.29990766020417214,-0.4465907980725169,-0.15930223481431602
1772796602241606400,0.4266064453125,0.3144055566340685,-0.4463642958402633,-0.11216273636817932
1772796602251599400,0.436599365234375,0.34347616829574107,-0.46707186056524513,-0.0744474843494594
1772796602261591600,0.446591552734375,0.37351474820673464,-0.5067598739616572,-0.059995765148848294
1772796602271583200,0.456583251953125,0.40816579034924505,-0.5638198779195547,-0.045780046661198136
1772796602281575400,0.466575439453125,0.47601826034784317,-0.5938751167044043,-0.04285086134150624
1772796602291567400,0.4765673828125,0.4926695354193449,-0.6141909056328236,-0.029506518860906363
1772796602301559600,0.4865595703125,0.5274439116805791,-0.6112273796521127,-0.02810834250077605
1772796602311551200,0.49655126953125,0.5126549233496189,-0.6245601778253913,0.010053265045955776
1772796602321543400,0.50654345703125,0.49185938808023927,-0.5989364917472004,0.02917180701382458
1772796602331535400,0.516535400390625,0.5102279884636401,-0.563421087860316,0.049418330098316074
1772796602341527600,0.526527587890625,0.5355372017651796,-0.5103697350218892,0.07236658642217517
1772796602351519200,0.536519287109375,0.5706839184701442,-0.46375382205843924,0.06294146321192383
1772796602361511400,0.546511474609375,0.5709644889771938,-0.45936230910122394,0.023822701070830225
1772796602371503400,0.55650341796875,0.5435796384453773,-0.4802427461750805,-0.021798574832081793
1772796602381495600,0.56649560546875,0.5461620561540127,-0.5380702273741365,-0.11459266692884265
1772796602391487500,0.576487548828125,0.5350450343340635,-0.6250877088308334,-0.25789069240354
1772796602401480400,0.58648046875,0.5289461329370737,-0.705383626947552,-0.39290670028850433
1772796602411472400,0.596472412109375,0.5503273591399193,-0.8073698372162879,-0.5119318697720766
1772796602421464300,0.60646435546875,0.6023159050524235,-0.9149037447400391,-0.6265072202399373
1772796602431456300,0.616456298828125,0.6688362496644258,-0.9758907128833234,-0.7149021275296807
1772796602441448400,0.626448486328125,0.6883499284297228,-1.0362035811573267,-0.7685599948938936
1772796602451440400,0.6364404296875,0.7146803014725446,-1.1451374186068772,-0.7633557773143053
1772796602461432600,0.6464326171875,0.7406745744287967,-1.2496513937875628,-0.7054759814061224
1772796602471424300,0.65642431640625,0.7393336812138557,-1.3210729544445872,-0.6445390629496425
1772796602481416400,0.66641650390625,0.7550304320394993,-1.3427820974275468,-0.6633790802370757
1772796602491408400,0.676408447265625,0.7514478973776102,-1.380969789263606,-0.6279141644284129
1772796602501400600,0.686400634765625,0.6962281144589185,-1.439104728976637,-0.5936747718267142
1772796602511392300,0.696392333984375,0.591425093203783,-1.446485633008182,-0.580968361923471
1772796602521384400,0.706384521484375,0.47635319139063353,-1.4459284375168382,-0.5655214942056686
1772796602531376400,0.71637646484375,0.30672903065681456,-1.4391238720685242,-0.5092169117249549
1772796602541368600,0.72636865234375,0.15416180318593978,-1.3742533404901622,-0.42773251447603106
1772796602551360300,0.7363603515625,0.006568272474408149,-1.3022719539932905,-0.39960561340525746
1772796602561353500,0.746353515625,-0.15106091456115245,-1.2399151588015258,-0.34332886877954005
1772796602571345400,0.756345458984375,-0.24945523781776427,-1.141218637727946,-0.30975042430460453
1772796602581337300,0.76633740234375,-0.3599520868003368,-1.0392772895142435,-0.2455454439628869
1772796602591329300,0.776329345703125,-0.44080783075690266,-0.9609408349022268,-0.1552319166354835
1772796602601321500,0.786321533203125,-0.47413142368793487,-0.8874607342801988,-0.06113280635476112
1772796602611313400,0.7963134765625,-0.4559942939728498,-0.8464990476861596,0.04759955370593816
1772796602621305300,0.806305419921875,-0.4501081585437059,-0.806168352472037,0.15347970267329364
1772796602631297300,0.81629736328125,-0.35552316444218157,-0.7627611724220216,0.23169074080735444
1772796602641289500,0.82628955078125,-0.23425708416402338,-0.7582663452208042,0.3759133337810635
1772796602651281400,0.836281494140625,-0.10533668974041938,-0.7348226335301995,0.5555575879435986
1772796602661273600,0.846273681640625,-0.052207157099246976,-0.7597589218661188,0.797682190612331
1772796602671265300,0.856265380859375,-0.0235018716186285,-0.7363945590220391,0.8527975633084773
1772796602681257500,0.866257568359375,0.09617956981658934,-0.4131368567600846,0.4938733582511544
1772796602691249400,0.87624951171875,-0.053987026253342625,0.01699745816066861,0.04436972320554778
1772796602701242400,0.886242431640625,-0.528682513564825,0.3939622006908059,-0.1896102062512189
1772796602711234300,0.896234375,-1.0951245566815138,0.5474915511921048,-0.1147908198494464
1772796602721226500,0.9062265625,-1.5773814191579818,0.6280909823000431,0.1973386816114187
1772796602731218400,0.916218505859375,-1.9019389519721268,0.8523878134638071,0.4671755401354283
1772796602741210400,0.92621044921875,-2.005703862351179,1.2640762249812483,0.5733524070270359
1772796602751202300,0.936202392578125,-1.9543202965945004,1.6704066165968774,0.616834332813695
1772796602761194500,0.946194580078125,-1.719658723282814,1.9503562152691185,0.7302055681888013
1772796602771186400,0.9561865234375,-1.4035317496836184,1.9846124128751454,0.8853116664875298
1772796602781178400,0.966178466796875,-1.069316161686182,1.7539147747583685,1.1087304727077483
1772796602791170300,0.97617041015625,-0.6880296104341745,1.4534775377221405,1.242553398350626
1772796602801162500,0.98616259765625,-0.2696510536283254,1.131307046175003,1.2579105419583618
1772796602811154400,0.996154541015625,0.022231121030449864,0.8239806341469288,1.219752733803913
1772796602821146400,1.006146484375,0.3103121498405933,0.5698951061800122,1.113649516670406
1772796602831138300,1.01613818359375,0.5212269368618726,0.38149975561127064,0.9516367077231407
1772796602841130500,1.026130615234375,0.6540992837816476,0.3255380682840943,0.7848572688959539
1772796602851122400,1.036122314453125,0.7118605678766965,0.3037218116648495,0.6915208135508001
1772796602861115400,1.046115478515625,0.7097294010668993,0.28166020198240876,0.6734806414041667
1772796602871107300,1.056107421875,0.6682558194279671,0.24994097550809383,0.7628893288463353
1772796602881099500,1.066099609375,0.5626683697968721,0.23494433577582238,0.8121662777125835
1772796602891091500,1.076091552734375,0.4417009802043438,0.2824335244424641,0.9125810739461332
1772796602901083400,1.08608349609375,0.3344979120701551,0.37846331052482124,0.9977699517361819
1772796602911075300,1.096075439453125,0.2251420498162508,0.4697388878174126,1.0910606682434678
1772796602921067500,1.106067626953125,0.10546002385914326,0.5533128046914935,1.2776330411687493
1772796602931059500,1.1160595703125,-0.031440263402462004,0.6037449149422347,1.466001065339148
1772796602941051400,1.126051513671875,-0.1807820990860462,0.6542604656927287,1.645013524404168
1772796602951043300,1.136043212890625,-0.3045043403446674,0.7333513919338583,1.7505758395940065
1772796602961035500,1.146035400390625,-0.479877273863554,0.8102259572997689,1.814704905155301
1772796602971027500,1.15602734375,-0.6182336051523685,0.9251239638507366,1.8574299481600522
1772796602981019400,1.166019287109375,-0.781092509534955,1.0712998828493059,1.7775833812460302
1772796602991011300,1.17601123046875,-1.0199316607922315,1.2287804551944135,1.6057687247306107
1772796603001003500,1.18600341796875,-1.307885848352313,1.3386178173549472,1.4093229003056884
1772796603010996200,1.195996337890625,-1.6543302188038824,1.377119397445768,1.262001172272861
1772796603020988400,1.205988525390625,-2.0793986286371946,1.3575932975903153,1.1031721809934825
1772796603030980400,1.21598046875,-2.366995088800788,1.3820821344196796,0.9091500765841454
1772796603040972500,1.22597265625,-2.525713824638724,1.4532453364014624,0.7502950010154396
1772796603050964500,1.235964599609375,-2.4377105470150706,1.5571981705680489,0.6477453847102821
1772796603060956400,1.245956298828125,-2.130131621530652,1.6790172085538506,0.6200619896233082
1772796603070948400,1.2559482421875,-1.671726174762845,1.7626568841405212,0.6285947671037166
1772796603080940500,1.2659404296875,-1.1414660366177558,1.7139678181648252,0.6925945071969181
1772796603090932500,1.275932373046875,-0.5945972934991121,1.5442543717123567,0.8021523948289454
1772796603100924400,1.28592431640625,-0.161406952008605,1.3377461490869522,0.9267082373674959
1772796603110916400,1.295916259765625,0.2455500470727682,1.183614741039276,1.005464890152961
1772796603120908500,1.305908447265625,0.5398667554020882,1.0509406931705771,1.0459501183416693
1772796603130900500,1.315900390625,0.7269038232296705,0.933914880810678,1.0844154580753296
1772796603140892400,1.325892333984375,0.827538618889451,0.8879654689319432,1.0275311760105192
1772796603150884400,1.33588427734375,0.8968634995281696,0.8424662850387394,0.9616397769518196
1772796603160876500,1.34587646484375,0.914574512785673,0.832621475111693,0.8872767560154199
1772796603170869200,1.355869140625,0.887701703429222,0.8295198558345437,0.7977604434803128
1772796603180861400,1.365861328125,0.8379910393208265,0.7988727886363863,0.7144628593295812
1772796603190853400,1.375853271484375,0.7996931651085615,0.7519631534233688,0.6602366174928843
1772796603200845600,1.385845458984375,0.7348404614478349,0.695930592817068,0.6194494837481528
1772796603210837200,1.395837158203125,0.6309615693002939,0.6565370323225855,0.5854582572212442
1772796603220829400,1.405829345703125,0.5036497791171074,0.6373534622944891,0.5754018138375133
1772796603230821400,1.4158212890625,0.37513504288494587,0.659177025437355,0.49204566789995874
1772796603240813600,1.4258134765625,0.25057635080218316,0.6876514247715473,0.42640199652463195
1772796603250805500,1.435805419921875,0.12622984016537667,0.7386088740706444,0.3963530413500964
1772796603260797400,1.44579736328125,0.07008475909531116,0.7813033758066594,0.424192284585908
1772796603270789400,1.455789306640625,0.08242752331793307,0.7423661807775497,0.47742166087236254
1772796603280781600,1.465781494140625,0.11527063925564289,0.6798366593673825,0.5638907146660611
1772796603290773500,1.4757734375,0.20465338853895662,0.6054990651331842,0.6060229428768158
1772796603300765400,1.485765380859375,0.28546353978812694,0.5272920821197331,0.6215305278059094
1772796603310757400,1.49575732421875,0.3430558970570564,0.4263838763460517,0.6062940879683941
1772796603320749600,1.50574951171875,0.342554961797595,0.2898015689924359,0.6001808292524888
1772796603330742300,1.5157421875,0.2946311811059713,0.21970263524129985,0.6150148623015731
1772796603340734500,1.525734375,0.22638065170049665,0.17454437374025583,0.6203414641518146
1772796603350726400,1.535726318359375,0.1850561231434345,0.15323898925259707,0.5973572597317397
1772796603360718600,1.545718505859375,0.14827508323490618,0.12769655171707273,0.5642971765751019
1772796603370710300,1.555710205078125,0.11043898131549358,0.09736220372989773,0.5615019928986207
1772796603380702500,1.565702392578125,0.024665070179104805,0.0743273651011288,0.5700998349718749
1772796603390694400,1.5756943359375,-0.010082418075203894,0.018218378257751463,0.6017524624833837
1772796603400686600,1.5856865234375,-0.11037877556085586,-0.030691344731301067,0.6603782909858972
1772796603410678300,1.59567822265625,-0.22581951068639755,-0.0516362253434956,0.6812780903473497
1772796603420670500,1.60567041015625,-0.3197323046147823,-0.07262903675064444,0.6454978980444371
1772796603430662400,1.615662353515625,-0.4156523467123508,-0.09050225483253597,0.6360361691508442
1772796603440654600,1.625654541015625,-0.5152513695836067,-0.12628230100497603,0.6205659936226904
1772796603450646500,1.635646484375,-0.6127350077360868,-0.15369184758663176,0.6196062817450613
1772796603460638500,1.645638427734375,-0.6594874065607785,-0.18889701648056506,0.6452593400482088
1772796603470630400,1.65563037109375,-0.693532299503684,-0.17075258024185894,0.7121639347374439
1772796603480623400,1.665623291015625,-0.667864189761877,-0.1412622818633914,0.7500077815718948
1772796603490615300,1.675615234375,-0.6278922448575496,-0.10312281308323144,0.7875386169344186
1772796603500607500,1.685607421875,-0.5625672475099563,-0.09656272391527891,0.8187270244676619
1772796603510599400,1.695599365234375,-0.4846288523048162,-0.09656579265519977,0.8974849924273789
1772796603520591600,1.705591552734375,-0.4454395822107792,-0.13179434242472052,0.9514700459193438
1772796603530583300,1.715583251953125,-0.4359884477764368,-0.142729870197922,1.0135198209885508
1772796603540575500,1.725575439453125,-0.44017537807226176,-0.1125851995639503,1.0567482104055583
1772796603550567400,1.7355673828125,-0.46611470597088334,-0.033517654198408124,1.0876476449295878
1772796603560559600,1.7455595703125,-0.49959378172457214,0.030920769573003052,1.1692839448045937
1772796603570551300,1.75555126953125,-0.4748948092758655,0.06887509104460478,1.2150540545936672
1772796603580543500,1.76554345703125,-0.41218028668761253,0.1535746509477496,1.2759389506019652
1772796603590535400,1.775535400390625,-0.36324469860494135,0.21975728803798555,1.3598910531386732
1772796603600527600,1.785527587890625,-0.28177286857664585,0.24236206468641758,1.458357857109606
1772796603610519300,1.795519287109375,-0.21040391488969326,0.28680808626487847,1.5784192377731203
1772796603620511500,1.805511474609375,-0.14243103338181973,0.29619843042269345,1.702432424802333
1772796603630503400,1.81550341796875,-0.03605623276531696,0.3157693923331797,1.8844892199993133
1772796603640496400,1.825496337890625,0.10247077891528605,0.36179756853654976,1.9657113130502402
1772796603650488300,1.83548828125,0.22692659514546393,0.4018351260229945,1.9960928611800073
1772796603660480500,1.84548046875,0.2927192100048065,0.37829657565578817,1.9650185084804892
1772796603670472400,1.855472412109375,0.27139818955659867,0.2804772758081555,1.9574194316536186
1772796603680464400,1.86546435546875,0.12904431306421757,0.11635448896959423,1.9890872202016412
1772796603690456300,1.875456298828125,-0.00561491727232933,0.02736263870000839,1.9439321735709905
1772796603700448500,1.885448486328125,-0.07779577186405658,0.06732508512362838,1.785629032796621
1772796603710440400,1.8954404296875,-0.11407353842556477,0.2114670140765607,1.5916497446157036
1772796603720432600,1.9054326171875,-0.14139642963707447,0.3903255977541208,1.3612906908035278
1772796603730424300,1.91542431640625,-0.19640520015358923,0.5742135539010167,1.2318481722019612
1772796603740416500,1.92541650390625,-0.3342459831357002,0.7098860529333353,1.1726729296557605
1772796603750408400,1.935408447265625,-0.49289574539065356,0.8749716934546827,1.2042110274095088
1772796603760400400,1.945400390625,-0.668086308079958,1.0919020875036716,1.2771971339695154
1772796603770392300,1.955392333984375,-0.8543915545016527,1.3125783900827168,1.3301008950307964
1772796603780384300,1.96538427734375,-1.0548299556940794,1.5026209233365952,1.3761350625835358
1772796603790377500,1.97537744140625,-1.236545536237955,1.6826488430544733,1.3485675489611924
1772796603800369400,1.985369384765625,-1.427072784268856,1.8476023816287517,1.2192290021907537
1772796603810361300,1.995361328125,-1.552787076127529,2.035190799728781,1.0772546265352516
1772796603820353500,2.005353515625,-1.6066484301745891,2.240171666656434,0.9436790267169475
1772796603830345500,2.015345458984375,-1.5710253281295299,2.4063565005913374,0.8385347908087074
1772796603840337400,2.02533740234375,-1.5277327143698929,2.4915035120010374,0.7650313093110919
1772796603850329300,2.035329345703125,-1.4789888494670391,2.526603174693882,0.6378504520311952
1772796603860321500,2.045321533203125,-1.379188751065731,2.5557231784552332,0.5243693265408277
1772796603870313500,2.0553134765625,-1.2123106741696597,2.6248928685322404,0.3864824393946677
1772796603880305400,2.065305419921875,-0.9974047716856003,2.6718080567032096,0.31094284895956514
1772796603890297300,2.07529736328125,-0.7742793223887682,2.655221663561463,0.3138170892216265
1772796603900289300,2.085289306640625,-0.5293880314856767,2.589957456490397,0.31702699117884037
1772796603910281500,2.095281494140625,-0.27469956918954846,2.5011881629303097,0.2739217714837752
1772796603920273400,2.1052734375,-0.030601474490761754,2.413201544180512,0.24765558625096454
1772796603930265300,2.115265380859375,0.18496727581620215,2.3181436718702315,0.24049323860723523
1772796603940257300,2.12525732421875,0.34258535693585873,2.1613716861858965,0.22127941957134753
1772796603950250500,2.13525048828125,0.42634325207471846,2.0536466400042177,0.1852671720782295
1772796603960242000,2.145241943359375,0.5424222851037979,1.885220749144256,0.14608239549621937
1772796603970234000,2.155234130859375,0.54506666213274,1.7881582590132952,0.19269377841502427
1772796603980226000,2.16522607421875,0.5425187312155961,1.7384455490782855,0.26556292579816654
1772796603990218000,2.175218017578125,0.47897944824099536,1.7045099617287516,0.28514212581403553
1772796604000210000,2.1852099609375,0.3834586345940828,1.7527020379677414,0.3788184075728059
1772796604010201900,2.195201904296875,0.17586802355945108,1.812947832354903,0.5193946799334138
1772796604020194000,2.205194091796875,-0.13905366590321064,1.8577847529470919,0.6375591409344226
1772796604030186000,2.21518603515625,-0.3641968847632408,1.923624714079499,0.6553615588024259
1772796604040178200,2.22517822265625,-0.5510995125561953,1.9955279207736252,0.5835774484433234
1772796604050169900,2.235169921875,-0.6410556778132915,2.0304683012515303,0.4384087702585384
1772796604060162000,2.245162109375,-0.6323574075728654,1.99073089575544,0.2792572690265253
1772796604070154000,2.255154052734375,-0.5990425824701786,1.888173899861425,0.15555281915292143
1772796604080146200,2.265146240234375,-0.6022451779037714,1.7093737683728336,0.06805383778959512
1772796604090137900,2.275137939453125,-0.5913982051968574,1.5073654875151812,-0.07840374769456684
1772796604100131000,2.285131103515625,-0.49950201178789133,1.3615757913552224,-0.24969934877194463
1772796604110123000,2.295123046875,-0.40667350596487517,1.2478754701562225,-0.38499665781632064
1772796604120115000,2.305114990234375,-0.3298924641013145,1.1592426624573766,-0.5822083520472049
1772796604130107000,2.31510693359375,-0.26433891869485376,1.063438647954911,-0.6743574242386966
1772796604140099000,2.32509912109375,-0.1683732838898897,1.0223353609330952,-0.6708594991203397
1772796604150091000,2.335091064453125,-0.027598201021552086,1.0023086180791259,-0.6756554281599819
1772796604160083000,2.3450830078125,0.06528349629342556,0.9908157486841082,-0.6939773398574441
1772796604170075000,2.355074951171875,0.16486965968310832,0.9779333246268331,-0.6970241602074354
1772796604180067000,2.365067138671875,0.20765023226737975,0.9260457548707723,-0.705628322423622
1772796604190059000,2.37505908203125,0.19210954878628253,0.8986289017654955,-0.7109644227545708
1772796604200051000,2.385051025390625,0.13583762646615505,0.8918595537610352,-0.6394483887471258
1772796604210043000,2.39504296875,0.1167033024072647,0.9732482355505228,-0.5551472535770386
1772796604220035000,2.40503515625,0.0969920552432537,1.049276413220167,-0.4678658604871481
1772796604230027000,2.415027099609375,0.07377484578490257,1.0938899003200233,-0.39884098570831117
1772796604240019200,2.425019287109375,0.07240180386602878,1.1136612071081995,-0.36574740214087065
1772796604250011000,2.435010986328125,0.10464695391058922,1.1268741782940923,-0.3699062023207545
1772796604260004000,2.445004150390625,0.15394611460864543,1.1012889245301485,-0.43353754749298096
1772796604269996000,2.45499609375,0.1470154385626316,1.0862864395789802,-0.5414348084364086
1772796604279988000,2.464988037109375,0.11127192500829695,1.0787335399813949,-0.642210985328257
1772796604289980000,2.47497998046875,0.06308335590064525,1.0901109663031994,-0.7249408525936305
1772796604299972000,2.48497216796875,0.05286883587837219,1.12377781971395,-0.7616602254427969
1772796604309964000,2.494964111328125,0.046750060737133024,1.1683631036326287,-0.7951436120454222
1772796604319956000,2.5049560546875,-0.013060557103157042,1.1997745793320238,-0.8400506021991372
1772796604329948000,2.514947998046875,-0.029013328516483305,1.2323650356829166,-0.8666576002262533
1772796604339940000,2.524940185546875,-0.018835633373260496,1.2006326574660837,-0.8592189746581017
1772796604349932000,2.53493212890625,0.006053893211483955,1.1693541604965925,-0.8768111838415265
1772796604359924000,2.544924072265625,0.06018646541535854,1.0774378010824321,-0.8884587323416024
1772796604369916000,2.554916015625,0.09994038365483283,0.9978075072675943,-0.8971012538067996
1772796604379908000,2.564908203125,0.010777414602041244,0.9183549081072211,-0.8748968746528029
1772796604389900000,2.574900146484375,-0.08419453299045562,0.8562123401880264,-0.9363685575731098
1772796604399892000,2.58489208984375,-0.22771745326220988,0.8138119990929961,-1.0950292796134948
1772796604409885000,2.594885009765625,-0.33875498499274254,0.7893417208336293,-1.2926128758966922
1772796604419877000,2.604877197265625,-0.35555414410233493,0.7426914672091602,-1.511210910896957
1772796604429869000,2.614869140625,-0.30984511685073374,0.6849646699056029,-1.7169675845026968
1772796604439861000,2.624861083984375,-0.19937457135319708,0.5857942477099597,-1.8320839099794626
1772796604449853000,2.63485302734375,-0.17201894691586495,0.5044171102277935,-1.8175692085452377
1772796604459845000,2.64484521484375,-0.16998714882731436,0.42542993662208317,-1.700202181532234
1772796604469837000,2.654837158203125,-0.09457505722939967,0.324525968632102,-1.5931836761847138
1772796604479829000,2.6648291015625,-0.043460956063866615,0.17198869790807364,-1.3929881438374518
1772796604489821000,2.674821044921875,0.018935586616396903,-0.016733400397002697,-1.214218334421888
1772796604499813000,2.684813232421875,0.13512158715128897,-0.09399754960238933,-1.2693560650803148
1772796604509805000,2.69480517578125,0.08532967450022697,-0.032206425469368694,-1.521113880752027
1772796604519797000,2.704796875,-0.13036474801301956,0.061363984762132166,-1.711857401882112
1772796604529789000,2.714788818359375,-0.38494682732522484,0.053119888029992575,-1.7045716287881134
1772796604539781000,2.724781005859375,-0.6255985809624195,-0.04103182922080159,-1.48864807369411
1772796604549773000,2.73477294921875,-0.7985399034202099,0.01219129998795688,-1.2009899464711546
1772796604559765000,2.744764892578125,-0.7314876438885927,0.26597192672416564,-0.9610754941325634
1772796604569758000,2.754758056640625,-0.5727098713397979,0.5425486148972064,-0.7106847290303557
1772796604579750100,2.764750244140625,-0.37689036211967464,0.750048040517047,-0.41691959016919133
1772796604589741800,2.774741943359375,-0.21638006668984888,0.7847368573866784,-0.08205079896003008
1772796604599734000,2.784734130859375,-0.1335737731873989,0.6725817928683012,0.1641695485897362
1772796604609726000,2.794725830078125,-0.04619184233248234,0.5230510104838758,0.24167824714072048
1772796604619718100,2.80471826171875,0.06410393112003802,0.3776475371625274,0.27024427028112114
1772796604629710000,2.8147099609375,0.23136486985385415,0.19194369070008396,0.26630459274463353
1772796604639702000,2.824701904296875,0.405718981719017,0.05155819167122244,0.1993334356252104
1772796604649694000,2.83469384765625,0.5645020149648189,-0.060595192346721886,0.16475100173950194
1772796604659686100,2.84468603515625,0.6834066268086433,-0.20179040032327175,0.20068938027881084
1772796604669678000,2.854677978515625,0.7423486451208591,-0.34474092753455043,0.22302089294381439
1772796604679670000,2.864669921875,0.7374936063051223,-0.4444846926387399,0.32922223668955264
1772796604689662000,2.874661865234375,0.7015572005271912,-0.5230121397782117,0.40671420330144464
1772796604699654100,2.884654052734375,0.6950596552014351,-0.5053285990495234,0.41212724132612344
1772796604709646000,2.89464599609375,0.6458364823490381,-0.47891390872411427,0.47128034510575234
1772796604719639000,2.90463916015625,0.5224439114362001,-0.4158386630646884,0.545304781737551
1772796604729631000,2.914630859375,0.40110768853127954,-0.352227776158601,0.6095937140356749
1772796604739623200,2.924623046875,0.28885552031397815,-0.2889516010995954,0.6918021877754479
1772796604749614800,2.93461474609375,0.12011691024303435,-0.20848609856963157,0.790708479142189
1772796604759607000,2.94460693359375,-0.1513338862836361,-0.146361943089962,0.867499019486457
1772796604769599000,2.954598876953125,-0.3839776900321245,-0.04004369496628642,0.9048179656639694
1772796604779591200,2.964591064453125,-0.5625748462945223,0.14617175428010523,0.9381156204361468
1772796604789582800,2.974582763671875,-0.7416565712034702,0.3048089493144303,0.9103931354478001
1772796604799575000,2.984574951171875,-0.8687602715939283,0.4509115108158439,0.8194613300915807
1772796604809567000,2.99456689453125,-0.9613234044790268,0.5439816433750093,0.7471116217389703
1772796604819559200,3.00455908203125,-1.070955161064863,0.5470847239568829,0.6909938670672476
1772796604829551000,3.014551025390625,-1.0960182906508444,0.5585610075432806,0.6685004418388009
1772796604839543000,3.02454296875,-1.0442273131370543,0.5708213541794568,0.6698978875465691
1772796604849535000,3.034534912109375,-0.9508212996870279,0.5341342761646956,0.6607349224038421
1772796604859527200,3.044527099609375,-0.8325994094103574,0.5000414524268358,0.5766839260699227
1772796604869519000,3.05451904296875,-0.6528899079918861,0.43664442746713755,0.44959315822627394
1772796604879512000,3.064511962890625,-0.4455161545783281,0.3364089333232492,0.322514117353037
1772796604889504000,3.07450390625,-0.230205178424716,0.21211378754749893,0.14574972947575152
1772796604899496200,3.08449609375,-0.04130582385659218,0.07561272873654962,-0.05098090323992073
1772796604909487900,3.09448779296875,0.12987433414757252,-0.07138831597454845,-0.16659451071433723
1772796604919480000,3.10447998046875,0.337681802803278,-0.2034582604702562,-0.2334821542687714
1772796604929472000,3.114471923828125,0.4945943660020828,-0.27019232089817524,-0.2754814768148586
1772796604939464200,3.124464111328125,0.6227513748377561,-0.33695356159396467,-0.28298940475955603
1772796604949456000,3.134455810546875,0.7547229735255241,-0.3466319289129227,-0.27267025531902905
1772796604959448600,3.144448486328125,0.8182645945876836,-0.3753242818467319,-0.24809374020621178
1772796604969440500,3.1544404296875,0.8305734565407037,-0.3871120425350964,-0.27403431021384894
1772796604979432700,3.1644326171875,0.7626467522621154,-0.43144883158542213,-0.28698271217942234
1772796604989424400,3.17442431640625,0.6691366939157247,-0.5192179351270199,-0.2674116772036999
1772796604999416600,3.18441650390625,0.49682197892367835,-0.5612019505061209,-0.23867943065091965
1772796605009408500,3.194408447265625,0.29789281325042244,-0.5616949216548353,-0.21009324150532482
1772796605019400700,3.204400634765625,0.16341712278723716,-0.5289517589602619,-0.19635135107450186
1772796605029393400,3.214393310546875,0.036952304822206496,-0.479858569163084,-0.20930369856283068
1772796605039385600,3.224385498046875,-0.10944120244979857,-0.40853038587793705,-0.20892748566158115
1772796605049377500,3.23437744140625,-0.2040367179453373,-0.3933604354053736,-0.16046229156963526
1772796605059369500,3.244369384765625,-0.2700315773785114,-0.39554691259898245,-0.08616451788917183
1772796605069361400,3.254361328125,-0.2579196993023157,-0.4117576773613691,-0.034635625377669926
1772796605079353600,3.264353515625,-0.2555570618242025,-0.40393721286877987,-0.021800401462987062
1772796605089345500,3.274345458984375,-0.23915830020904538,-0.3765215288072824,-0.0643211540672928
1772796605099337500,3.28433740234375,-0.24676000738441942,-0.36661629392988976,-0.05776617946587503
1772796605109329400,3.294329345703125,-0.3035720279306173,-0.361796253362298,0.004524930078536272
1772796605119321600,3.304321533203125,-0.2913853310525417,-0.40452918741255994,0.07773205897808075
1772796605129313500,3.3143134765625,-0.2179869173645973,-0.4205180530525744,0.11222462262324988
1772796605139305500,3.324305419921875,-0.1441097802489996,-0.397072368600592,0.039559418580681086
1772796605149297400,3.33429736328125,-0.05827274074852466,-0.3817817143578082,-0.02869154921621084
1772796605159289600,3.34428955078125,0.0459188706099987,-0.4233163054689765,-0.0523706770978868
1772796605169281500,3.354281494140625,0.14953472790718078,-0.4456707606181502,-0.056545405499264595
1772796605179273700,3.364273681640625,0.2020452518671751,-0.4788249883316457,-0.048433556844666596
1772796605189266400,3.374266357421875,0.19770576135814188,-0.4943865684702992,-0.0340366365712136
1772796605199258600,3.384258544921875,0.15013035571277142,-0.4875560648631304,-0.052517757418379184
1772796605209250600,3.39425048828125,0.09095511316657066,-0.46386049730330703,-0.07681070634946227
1772796605219242500,3.404242431640625,0.004231938481330871,-0.4267589202035218,-0.0981578841522336
1772796605229234400,3.414234375,-0.07615034274458884,-0.3823660901170224,-0.1479679169818759
1772796605239226600,3.4242265625,-0.12485796729028224,-0.3558492545913905,-0.1567555460061878
1772796605249218600,3.434218505859375,-0.15902210269868372,-0.3274802153278142,-0.09996274161711334
1772796605259210500,3.44421044921875,-0.13139876723587512,-0.2958599191833287,-0.04049837993122637
1772796605269202400,3.454202392578125,-0.028255203625559805,-0.2821398021928966,-0.016221359221637248
1772796605279194600,3.464194580078125,0.08260287988483905,-0.2600475051112473,0.00847790548801422
1772796605289186600,3.4741865234375,0.18252163622975348,-0.27077538148313757,-0.00253536369651556
1772796605299178500,3.484178466796875,0.3072100921720266,-0.33435032029300926,0.023072467225417493
1772796605309170400,3.49417041015625,0.3857593127518892,-0.4326221862137317,0.06073255499079823
1772796605319162600,3.50416259765625,0.4305062169730663,-0.5286005343697965,0.07058832470327615
1772796605329154600,3.514154541015625,0.4190764759421348,-0.6229918325301259,0.05618300192765891
1772796605339147500,3.5241474609375,0.41994682903587816,-0.6783301272619515,0.05759732570499181
1772796605349139500,3.534139404296875,0.4469797973901033,-0.711767848091945,0.04645867657512426
1772796605359131600,3.544131591796875,0.41508068430423734,-0.7700691573478281,0.0555935846671462
1772796605369123600,3.55412353515625,0.41532618349790573,-0.8236914419420063,0.0944111719045788
1772796605379115500,3.564115478515625,0.3316489523798227,-0.8614360661856829,0.1685439642816782
1772796605389107500,3.574107421875,0.16711188565194607,-0.8872129700642079,0.29883506253659725
1772796605399099600,3.584099609375,-0.028480829074978828,-0.934724808954075,0.45113772078715264
1772796605409091600,3.594091552734375,-0.23226795617341994,-1.0153072889272123,0.575306390639022
1772796605419083500,3.60408349609375,-0.3795107737511396,-1.0164536094181238,0.6142763188939542
1772796605429075500,3.614075439453125,-0.4322919313460588,-0.9035990183282643,0.5843886186957359
1772796605439067600,3.624067626953125,-0.5673053819477558,-0.7595650067292153,0.4838771206220612
1772796605449059600,3.6340595703125,-0.7474789937466383,-0.6286401406154036,0.3702790907537564
1772796605459051500,3.644051513671875,-0.9033505234599113,-0.5275478835117071,0.32918712884355333
1772796605469043500,3.65404345703125,-0.9660714757889509,-0.4110401036765426,0.3494988261187449
1772796605479035600,3.66403564453125,-0.9362117595762014,-0.3112991150513291,0.35014589185062794
1772796605489028400,3.6740283203125,-0.8850374526560306,-0.20122801720015704,0.32849856205750255
1772796605499020500,3.6840205078125,-0.8116063057422638,-0.11663111395388841,0.32012945070620624
1772796605509012500,3.694012451171875,-0.7579542105317115,-0.1339857149891555,0.3556619883909821
1772796605519004700,3.704004638671875,-0.7525240021765232,-0.1971867059201002,0.3949087608259171
1772796605528996400,3.713996337890625,-0.761647804352641,-0.25343678173460066,0.4328137267304584
1772796605538988500,3.723988525390625,-0.7841507280617952,-0.2853419592350721,0.45294111694730815
1772796605548980500,3.73398046875,-0.7460890006929636,-0.2522135235499591,0.48642896052934226
1772796605558972700,3.74397265625,-0.669231386461854,-0.18951346787847578,0.5159747154220938
1772796605568964600,3.753964599609375,-0.6396510717123747,-0.07451368145346642,0.4800442644609138
1772796605578956500,3.76395654296875,-0.5895528695911169,0.06985664942786098,0.40956305339392274
1772796605588948500,3.773948486328125,-0.5813982047080993,0.27488091710582374,0.30064764665020627
1772796605598940700,3.783940673828125,-0.6146341193556786,0.42395372658967967,0.16695906971041113
1772796605608932600,3.7939326171875,-0.685958649379015,0.5524431822501122,0.0279999867554754
1772796605618924500,3.803924560546875,-0.7914888158649206,0.664777621923387,-0.10607159815253689
1772796605628916500,3.81391650390625,-0.8802665849924087,0.7525314548306167,-0.21267894714958965
1772796605638908700,3.82390869140625,-0.977462638375163,0.8360761456102133,-0.24853552915696053
1772796605648901400,3.8339013671875,-1.0201999563395976,0.9360277813114225,-0.25991249882103873
1772796605658893600,3.8438935546875,-0.9957295319497584,1.0103415562786162,-0.23651216961443422
1772796605668885500,3.853885498046875,-0.8849094423621893,1.0854442896664143,-0.16859558487106113
1772796605678877700,3.863877685546875,-0.6937140858113765,1.1197910881653428,-0.13443132159849627
1772796605688869400,3.873869384765625,-0.42103170166313647,1.1002712719202041,-0.10827250573029741
1772796605698861600,3.883861572265625,-0.14976619857549667,1.0345571291245519,-0.0665387570515275
1772796605708853500,3.893853515625,0.0856546686708927,0.9592531740762292,0.0021017763185314834
1772796605718845700,3.903845703125,0.2689677475392818,0.896276201159507,-0.017340225450042636
1772796605728837400,3.91383740234375,0.39399113452434537,0.8398962884202599,-0.032437932670302684
1772796605738829600,3.92382958984375,0.4556237070947885,0.7929406221084296,-0.04024900828003883
1772796605748821500,3.933821533203125,0.46773792325854296,0.7666808300837874,-0.06146770086493343
1772796605758813700,3.943813720703125,0.43111002808511256,0.7343421565368771,-0.07489836992211639
1772796605768805400,3.953805419921875,0.42608664696514603,0.6974484500341117,-0.11567483614236115
1772796605778797600,3.963797607421875,0.44489539233148095,0.6719643185570836,-0.055128743634372944
1772796605788790500,3.97379052734375,0.48558045394122595,0.608268091455102,0.023211364239454267
1772796605798782500,3.983782470703125,0.5261597170889377,0.5631888865396381,0.07701163574904203
1772796605808774400,3.9937744140625,0.5844213519215583,0.49020577565431595,0.11218502126522362
1772796605818766600,4.0037666015625,0.6005962416529655,0.4311050596490502,0.11098671485874802
1772796605828758500,4.013758544921875,0.5975882920086384,0.38604455943405624,0.11857695079203695
1772796605838750700,4.023750732421875,0.5825023665577173,0.3456557042919099,0.11335698765404521
1772796605848742400,4.033742431640625,0.5992950959265232,0.32026158918589354,0.1307358098151162
1772796605858734600,4.043734619140625,0.6227537129253149,0.317628171942383,0.1692326041329652
1772796605868726500,4.0537265625,0.617885814628005,0.3461990173883736,0.18172942640613762
1772796605878718700,4.06371875,0.5792945104271173,0.3466887006014585,0.14620905408319085
1772796605888710400,4.07371044921875,0.49328152983784673,0.35242037612125277,0.11461177348811179
1772796605898702600,4.08370263671875,0.38893735826611514,0.3627949090108275,0.06263952112328261
1772796605908694500,4.093694580078125,0.28573709603250025,0.3652249126367271,0.028600400334037837
1772796605918686700,4.103686767578125,0.03747954356670379,0.3588488017335534,-0.06569529196470976
1772796605928678400,4.113678466796875,-0.18022329615950583,0.3380209716297686,-0.09230572405792772
1772796605938670600,4.123670654296875,-0.24022739074528215,0.36356691629663107,-0.054319107751920816
1772796605948663600,4.13366357421875,-0.20544658474326133,0.4031643288001418,-0.19299488025344907
1772796605958656500,4.143656494140625,-0.09204115483760833,0.49690746525004503,-0.34822204764857884
1772796605968648700,4.153648681640625,0.0840776286125183,0.5429938013814389,-0.47257338059097526
1772796605978640600,4.163640625,0.1677028372824192,0.5685594736620784,-0.4756339372053742
1772796605988632600,4.173632568359375,0.18197919991612432,0.5223465885415673,-0.5049217718143015
1772796605998624500,4.18362451171875,0.1419394504725933,0.43089536242112514,-0.3930162250775844
1772796606008616700,4.19361669921875,0.1553109732210636,0.33570129651054736,-0.30014146896004673
1772796606018608600,4.203608642578125,0.1333686060041189,0.24572262716069815,-0.3145833243537694
1772796606028600600,4.2136005859375,0.1639905387610197,0.13803659781515598,-0.3748093911271542
1772796606038592500,4.223592529296875,0.21584698272645472,0.09436199900060892,-0.44720147731676696
1772796606048584400,4.23358447265625,0.2741810982733965,0.02346095508635044,-0.5223989032506943
1772796606058576600,4.24357666015625,0.3078507281631231,-0.05937310320585966,-0.5804053942784667
1772796606068568600,4.253568603515625,0.3402671431213617,-0.16699410449117422,-0.5837199256539345
1772796606078560500,4.263560546875,0.2716775910198688,-0.31438100671470165,-0.531260985750705
1772796606088552400,4.273552490234375,0.21879531113803385,-0.45417789220064875,-0.5156410995535552
1772796606098545700,4.283545654296875,0.16650749001801013,-0.5358822158105672,-0.4478802533611655
1772796606108537600,4.29353759765625,0.17821897059977054,-0.5638521727539598,-0.3884601692084223
1772796606118529500,4.303529541015625,0.24804829362928865,-0.529761394842714,-0.3248958979230374
1772796606128521700,4.313521728515625,0.26997838588654993,-0.49864656400233504,-0.2643318313669413
1772796606138513700,4.323513671875,0.33083705147504805,-0.4761775425627827,-0.23702464918121693
1772796606148505600,4.333505615234375,0.3708282856017351,-0.46078708120733497,-0.1843715018801391
1772796606158497500,4.34349755859375,0.4213993659317493,-0.4988543615341186,-0.09495455806627869
1772796606168489700,4.35348974609375,0.5027507844507694,-0.560465891316533,-0.049379605523124336
1772796606178481700,4.363481689453125,0.6069651921629905,-0.6257149008184671,0.019562121016904712
1772796606188473300,4.373473388671875,0.6808095960527658,-0.6832783242538571,0.08678235752657056
1772796606198465500,4.383465576171875,0.719778501394391,-0.751836019912362,0.1701103368155658
1772796606208457500,4.39345751953125,0.7528285380810499,-0.7798156214669346,0.2023842014979571
1772796606218449700,4.40344970703125,0.7665683096200228,-0.8257166641592979,0.26676965297311545
1772796606228441600,4.413441650390625,0.7016460478544235,-0.8741717752486466,0.32910204437598584
1772796606238434600,4.4234345703125,0.5966945580393076,-0.9012804391875863,0.3580049713205546
1772796606248426800,4.4334267578125,0.47582127647101874,-0.9559384965702891,0.3848514771919697
1772796606258418700,4.443418701171875,0.3852671453207731,-0.9648211834669113,0.3716580874893814
1772796606268410600,4.45341064453125,0.34176235011517997,-0.9752785723343491,0.3686454616699368
1772796606278402600,4.463402587890625,0.32763036438822746,-0.9836834125861526,0.4008547366835177
1772796606288394800,4.473394775390625,0.31030221296846866,-0.9922843599319457,0.44104931136257947
1772796606298386700,4.48338671875,0.28111469692885876,-1.0269105598941444,0.5207604153286666
1772796606308378600,4.493378662109375,0.28059154983758927,-1.031400564789772,0.5866746838063002
1772796606318370600,4.50337060546875,0.31997078954577446,-1.0376192931741475,0.62114737370722
1772796606328362500,4.513362548828125,0.37146599898338317,-1.0535933996364473,0.585455078883469
1772796606338354700,4.523354736328125,0.43675300240814685,-1.0589742158919573,0.553379513252154
1772796606348346400,4.533346435546875,0.45705578572452066,-1.0580065399035812,0.5298773493725806
1772796606358338600,4.543338623046875,0.46954877207279205,-1.0759753273144363,0.5300257083347067
1772796606368330500,4.55333056640625,0.4516255773693323,-1.0908005560025573,0.5522513129398227
1772796606378322700,4.56332275390625,0.4582178152412176,-1.0734878944128752,0.5421105522735044
1772796606388315600,4.573315673828125,0.37673371025323865,-1.055404832972586,0.48677518015112725
1772796606398307600,4.5833076171875,0.24736440301835536,-1.0145137273967266,0.4399467934807762
1772796606408299800,4.5932998046875,0.10199264000952243,-0.9697203536853194,0.39231118208076804
1772796606418291500,4.60329150390625,-0.0687584789276123,-0.9250310248702764,0.33606351741906254
1772796606428283600,4.61328369140625,-0.2565226919859648,-0.8871434850245714,0.2980387610597536
1772796606438275600,4.623275634765625,-0.4252285688310861,-0.8589394270643591,0.2909925323426723
1772796606448267800,4.633267822265625,-0.5559434454560279,-0.8027329711958765,0.2717994090349413
1772796606458259500,4.643259521484375,-0.6394599330544471,-0.7257388711035251,0.20697386737577617
1772796606468251400,4.65325146484375,-0.7350292620182037,-0.6947028045877814,0.1775848374146968
1772796606478243600,4.66324365234375,-0.8184703462928533,-0.6629445612773299,0.13986980459168552
1772796606488235500,4.673235595703125,-0.8791331970483064,-0.6434495872125029,0.09546608778499066
1772796606498227700,4.683227783203125,-0.9230348826169967,-0.5571542825505137,0.05613968337574042
1772796606508219400,4.693219482421875,-0.9293746070325374,-0.3881821559846401,-0.06406806522221305
1772796606518211600,4.703211669921875,-0.9497469484537839,-0.19886925217956303,-0.23101375486124306
1772796606528203500,4.71320361328125,-0.9650941551893949,-0.03820961140692234,-0.41100064844898876
1772796606538196500,4.723196533203125,-0.9879261647224425,0.10492606311291455,-0.5111088264187797
1772796606548188700,4.733188720703125,-0.9755617731899022,0.18945611166805026,-0.5569940504875034
1772796606558180600,4.7431806640625,-0.9303776465952396,0.2929702621564269,-0.574426465999335
1772796606568172800,4.7531728515625,-0.94110070066154,0.442627447399497,-0.5893538398876786
1772796606578164500,4.76316455078125,-0.9825240134179591,0.5415308892220259,-0.588493788992241
1772796606588156400,4.773156494140625,-1.0356056152641773,0.6370332904294133,-0.5466031509850174
1772796606598148600,4.783148681640625,-1.120799680685997,0.7070619354233145,-0.5275725430289283
1772796606608140500,4.793140625,-1.189579202401638,0.786625886003673,-0.5443455082513392
1772796606618132500,4.803132568359375,-1.206757716217637,0.9081970867082476,-0.5537638363946229
1772796606628124400,4.81312451171875,-1.1637585324466229,1.0427890970274805,-0.5429789691384881
1772796606638116600,4.82311669921875,-1.0658183826982974,1.187883796660602,-0.5701571181170642
1772796606648108500,4.833108642578125,-0.9347025240570306,1.3103393789842723,-0.6410727750785649
1772796606658100500,4.8431005859375,-0.7820914574444293,1.4264756951585411,-0.6632949090849608
1772796606668092400,4.853092529296875,-0.6463040998607874,1.4869696190878747,-0.6748447693642229
1772796606678085600,4.863085693359375,-0.5507552291631699,1.502654094953835,-0.6453866927549242
1772796606688077600,4.87307763671875,-0.38848493832349773,1.5151631556540728,-0.571052934445627
1772796606698069500,4.883069580078125,-0.21252105317413805,1.5420283662259577,-0.4788228329071775
1772796606708061700,4.893061767578125,0.016527356430888176,1.5923837579786777,-0.43380953283477575
1772796606718053600,4.9030537109375,0.1942196728080511,1.6403069541484117,-0.431319506117329
1772796606728045600,4.913045654296875,0.3690975162863731,1.6551958957225084,-0.38534799200464037
1772796606738037500,4.92303759765625,0.4818284079313278,1.6648215099409223,-0.31006865994092075
1772796606748029400,4.933029541015625,0.5246154102563858,1.6332085203200577,-0.23499354521241037
1772796606758021600,4.943021728515625,0.5312444730073214,1.5892583194345236,-0.16979663122389466
1772796606768013600,4.953013671875,0.4989613290399313,1.5643720077201724,-0.14820044709611682
1772796606778005500,4.963005615234375,0.4609674062103033,1.598567415049672,-0.15597104456499217
1772796606787997400,4.97299755859375,0.3556611116081476,1.626451155014336,-0.17213906616419553
1772796606797989600,4.98298974609375,0.2601414670050144,1.6301982325881719,-0.19205453066341577
1772796606807981600,4.992981689453125,0.13790157325863836,1.6493094680324196,-0.23077541606072335
1772796606817973500,5.002973388671875,0.05912438914179802,1.6259949356794356,-0.23893508591242132
1772796606827966700,5.012966796875,0.05530220050513744,1.5653148415282367,-0.24234785349797455
1772796606837958700,5.022958740234375,0.07281155371069908,1.4842638672605155,-0.2799055403348058
1772796606847950600,5.03295068359375,0.10530746364593505,1.3471616276860237,-0.35761538748107846
1772796606857942500,5.042942626953125,0.16972236041128635,1.2071955231130123,-0.47274205168876793
1772796606867934500,5.0529345703125,0.22204116119146347,1.0613988126903773,-0.6259374575279653
1772796606877926700,5.0629267578125,0.2656622762531042,0.9439943762764335,-0.728272627364844
1772796606887918600,5.072918701171875,0.344696065479517,0.8339172140106559,-0.7910972592640668
1772796606897910500,5.08291064453125,0.41863866904675956,0.761010090970993,-0.7788413696072995
1772796606907902500,5.09290234375,0.46675066578686236,0.6789663062736392,-0.6752699359737336
1772796606917894700,5.102894775390625,0.4796393734544515,0.5944286589339375,-0.6088500925941392
1772796606927886600,5.112886474609375,0.4288713092476129,0.5650058728337287,-0.5488944402599707
1772796606937878500,5.12287841796875,0.4074614414721727,0.5392912936016917,-0.517672605381161
1772796606947870500,5.132870361328125,0.35840777996778483,0.530599745362997,-0.4859291943136602
1772796606957861000,5.142861083984375,0.278736277359724,0.5918935874983668,-0.37572661556992676
1772796606967854000,5.15285400390625,0.20035072290897368,0.6058171911716461,-0.35744236900173126
1772796606977846300,5.16284619140625,0.1148515370607376,0.5700578955262899,-0.29694146734233945
1772796606987838000,5.172837890625,0.07168693359494209,0.50622781291157,-0.158597301415354
1772796606997830100,5.182830078125,0.06532207473814487,0.4498001155078411,-0.13095007362030445
1772796607007822000,5.192822021484375,0.07784954787790775,0.4208037381261587,-0.14250552339013664
1772796607017814300,5.202814208984375,0.024796587604284284,0.36241613882631063,-0.12962353772427887
1772796607027806000,5.212805908203125,0.016086042404174803,0.271830151233077,-0.1240225393794477
1772796607037798100,5.222798095703125,0.006047463470697402,0.1637467931330204,-0.09720778035316616
1772796607047790000,5.2327900390625,-0.008693009543418884,0.08039426392465829,-0.019472433439455924
1772796607057782300,5.2427822265625,-0.055581601968407626,0.03134790894389152,0.0374586469091475
1772796607067774000,5.25277392578125,-0.07996551711857318,-0.004576806396245956,0.04814812749940902
1772796607077766100,5.26276611328125,-0.08805296198427677,-0.03380757705569267,0.06383790059499442
1772796607087758000,5.272758056640625,-0.05774491748213768,-0.060473465663194656,0.06484276678860187
1772796607097750300,5.282750244140625,-0.031322774502635,-0.10758797579854726,0.12187551741339266
1772796607107742000,5.292741943359375,-0.05321662640273571,-0.1343994103565812,0.177336068551708
1772796607117735200,5.302735107421875,-0.072779989528656,-0.1525274799823761,0.23747221028562635
1772796607127727000,5.31272705078125,-0.0971487071096897,-0.15116349815279245,0.35202319349721073
1772796607137719000,5.322718994140625,-0.07253975103199481,-0.1900847649604082,0.4055071655992418
1772796607147711000,5.3327109375,-0.054067105752229686,-0.2047530495211482,0.4589085374517366
1772796607157703200,5.342703125,-0.0930231516122818,-0.17516104433387517,0.47890353346057235
1772796607167695000,5.352695068359375,-0.12376666492223738,-0.1776794568955898,0.5033113409429788
1772796607177687300,5.362687255859375,-0.12520225068330765,-0.21730331901460884,0.5037376400636508
1772796607187679000,5.372678955078125,-0.08658990369439125,-0.27508330781012774,0.4857413070587441
1772796607197671200,5.382671142578125,-0.0005664017111063003,-0.3307461583212018,0.45011173874028026
1772796607207663000,5.3926630859375,0.11860650568008423,-0.3659954586178064,0.39109614373520013
1772796607217655300,5.4026552734375,0.2990554272890091,-0.4305108931481838,0.3117067460041493
1772796607227647000,5.41264697265625,0.4280459643393755,-0.5265963549405336,0.22917415487654505
1772796607237639200,5.42263916015625,0.4971025494307279,-0.6303826003685593,0.1861780763780698
1772796607247631000,5.432631103515625,0.5306663808584213,-0.6586445259958505,0.19909222901416943
1772796607257624000,5.4426240234375,0.572946602705121,-0.6421764985367655,0.20564530391944572
1772796607267616000,5.452615966796875,0.6604483605474233,-0.5895873563826084,0.26644938977649435
1772796607277608200,5.462608154296875,0.7021066511034965,-0.560273875875771,0.4026904276780784
1772796607287600000,5.47260009765625,0.6818447843194008,-0.5349000729054212,0.5506252461079508
1772796607297592000,5.482592041015625,0.6430296082347631,-0.4879705639481544,0.7175243657920509
1772796607307584000,5.492583984375,0.5845002623766661,-0.41438334968984125,0.7763761485375463
1772796607317576200,5.502576171875,0.5355062221050262,-0.37031244503408667,0.7748086800251156
1772796607327568100,5.512568115234375,0.4584896179199218,-0.32267244971990583,0.737866750466451
1772796607337560000,5.52256005859375,0.3747790690541267,-0.3163607823550701,0.6824299637962132
1772796607347552000,5.532552001953125,0.27439444876313207,-0.3615077918097377,0.6417180872447789
1772796607357544200,5.542544189453125,0.08952069644927978,-0.45021103439629073,0.6708419634636491
1772796607367536000,5.5525361328125,-0.004804769933223724,-0.49743134299367664,0.6416906147159636
1772796607377528000,5.562528076171875,-0.030658173114061354,-0.502801930116117,0.571595663020201
1772796607387520000,5.57252001953125,-0.06160334647595882,-0.49154813017398113,0.5552407040141523
1772796607397512200,5.58251220703125,-0.13449556420743464,-0.48558483785539863,0.6405873296491801
1772796607407505200,5.592505126953125,-0.21276538332402706,-0.5175190222546457,0.7276603406853973
1772796607417497000,5.6024970703125,-0.27323709542155267,-0.5132517201989889,0.7843987114734947
1772796607427489000,5.612489013671875,-0.34178222385942936,-0.4794213467895984,0.8170803532391786
1772796607437481200,5.622481201171875,-0.44743981611728667,-0.46122371905893084,0.8528240129239857
1772796607447473200,5.63247314453125,-0.5724778161495924,-0.4856573185697198,0.9485074697867035
1772796607457465000,5.642465087890625,-0.6823474731445313,-0.5291892940431833,1.1314319877289234
1772796607467457000,5.65245703125,-0.6801549315363168,-0.6800722216889262,1.3491104236662388
1772796607477449200,5.66244921875,-0.4864806176513433,-0.727257166711986,1.3220000061616302
1772796607487441200,5.672441162109375,-0.30637656395733354,-0.5127773806855083,1.0243355217743664
1772796607497433000,5.68243310546875,-0.2140530850470066,-0.2579705527067184,0.6969213574200869
1772796607507425000,5.692425048828125,-0.28000761246979233,-0.1777846708357334,0.6364025913104414
1772796607517417200,5.702417236328125,-0.5220604650765657,-0.3160375417500734,0.7869964728817344
1772796607527409200,5.7124091796875,-0.7800795331001281,-0.478812274980545,0.9882675255060195
1772796607537401000,5.722401123046875,-0.8636813608944416,-0.41971565062850713,1.0979098034858703
1772796607547394000,5.73239404296875,-0.8492886784046888,-0.22911796770989892,1.051170337207988
1772796607557386200,5.74238623046875,-0.8070967193633317,-0.041105040587484834,0.9376761330403387
1772796607567378000,5.7523779296875,-0.7156810029476881,0.11334639319479464,0.8529019004657864
1772796607577370000,5.7623701171875,-0.7141881340414286,0.1215221008658409,0.7956633250705898
1772796607587362000,5.772362060546875,-0.8366121521830558,0.04669467728808522,0.8246504962325095
1772796607597354200,5.782354248046875,-0.9301385771423578,0.0014576514624059199,0.8524295337136835
1772796607607346200,5.79234619140625,-1.0019628733813761,0.04473170665204525,0.8299491871625184
1772796607617338000,5.802338134765625,-0.9591799627095461,0.169983203304559,0.715536114584282
1772796607627330000,5.812330078125,-0.8900736932575702,0.2909374411545694,0.6101462333519011
1772796607637322200,5.822322265625,-0.877280262658,0.41349648385271426,0.4709922123467549
1772796607647314200,5.832314208984375,-0.8547475283324718,0.5083562032423913,0.3526961973879486
1772796607657306000,5.84230615234375,-0.758906396690011,0.606794511771202,0.23916684884168207
1772796607667298000,5.852298095703125,-0.6499544390618801,0.6818383545786142,0.09443605061750858
1772796607677290000,5.8622900390625,-0.5548357764750719,0.7484903627462685,-0.07101615819390862
1772796607687283000,5.872282958984375,-0.4815940146535635,0.8319866843394934,-0.2087800765475258
1772796607697275100,5.882275146484375,-0.3683148414760828,0.8935036677062511,-0.3004106778228655
1772796607707267000,5.89226708984375,-0.3020961101591587,0.8918804504185914,-0.3350905442010611
1772796607717259300,5.90225927734375,-0.1991115365028381,0.9141703158989548,-0.3995069022711366
1772796607727251000,5.9122509765625,-0.009256488645076751,0.9777955235913395,-0.5201469596054404
1772796607737243100,5.9222431640625,0.1652186192512512,1.0386436677858233,-0.6639680591061711
1772796607747235000,5.932235107421875,0.27993162462413307,1.0343000856235622,-0.7598970151625574
1772796607757227300,5.942227294921875,0.2385913139760494,1.0555550550982356,-0.8275892530981451
1772796607767219000,5.952218994140625,0.23442951812148094,1.078419213335216,-0.9710353818066417
1772796607777211100,5.962211181640625,0.22098785274624824,1.06272713868469,-0.9725886025980114
1772796607787203000,5.972203125,0.27226971169412134,1.0596703814625739,-0.9677121556680649
1772796607797195300,5.9821953125,0.32769992249310015,1.0567562475815415,-0.9226600579552352
1772796607807187200,5.992187255859375,0.37377135331630706,1.053072006110847,-0.8932263120695948
1772796607817179000,6.002178955078125,0.49622109042108054,1.016215855139494,-0.8782003731776028
1772796607827172000,6.012172119140625,0.6175327634066343,0.9300549905121326,-0.8667981777407229
1772796607837164300,6.022164306640625,0.7130138295650482,0.833978296548128,-0.8645367356147616
1772796607847156000,6.032156005859375,0.8229249876141548,0.7014131158813833,-0.8680955240748822
1772796607857148200,6.042148193359375,0.922987536343932,0.5473576956793665,-0.8487474842000752
1772796607867140000,6.05214013671875,0.9114595956355332,0.38925387686938046,-0.800392034092918
1772796607877132300,6.06213232421875,0.8433902680158615,0.2392871872857213,-0.7930056501686572
1772796607887124000,6.0721240234375,0.7984019562542438,0.13218962535262108,-0.7509798414744436
1772796607897116200,6.0821162109375,0.682086776381731,0.07240384969264269,-0.7162324262853711
1772796607907108000,6.092108154296875,0.5498258393585682,0.05427110389173031,-0.6589025924101471
1772796607917100300,6.102100341796875,0.46230070064067835,0.037540918365120884,-0.4986048072198406
1772796607927092000,6.112092041015625,0.37313773158788677,0.021113222916424274,-0.40824513919577
1772796607937084200,6.122084228515625,0.3102905225306749,0.026210253794491288,-0.326143084972538
1772796607947076000,6.132076171875,0.2610954067289829,-0.0028723405659198758,-0.2615430956975557
1772796607957069000,6.142069091796875,0.2573585582882166,-0.014797463898360728,-0.2615708970199339
1772796607967061500,6.1520615234375,0.2291232284069061,-0.0014829320341348648,-0.2440247554679401
1772796607977053400,6.162053466796875,0.2159130336999893,-0.022554361635446548,-0.24292967197392135
1772796607987045600,6.172045654296875,0.2161182008832693,-0.011994681437313555,-0.24084764153547583
1772796607997037300,6.182037353515625,0.23119652754962444,-0.0036430326774716374,-0.2838928198726848
1772796608007029200,6.192029296875,0.24156477682888505,0.007323182494938373,-0.2914572455112822
1772796608017021400,6.202021484375,0.22226327950954436,-0.005869768816232681,-0.29597037555417044
1772796608027013400,6.212013427734375,0.23932138181626794,-0.01012538043409586,-0.29944382381839674
1772796608037005300,6.22200537109375,0.26979484601318837,0.0062879942283034325,-0.25494150547543537
1772796608046997200,6.231997314453125,0.32187925351560115,-0.010161620791256426,-0.14608460571961476
1772796608056989400,6.241989501953125,0.35562428672909735,-0.05264262590706348,-0.05520860393755138
1772796608066981400,6.2519814453125,0.32175825748443604,-0.09336509691774844,0.04585605277316644
1772796608076973300,6.261973388671875,0.2844412110030651,-0.12350333781093359,0.13277798316720874
1772796608086965200,6.27196533203125,0.22104805850088596,-0.15426000286340713,0.20248930584024638
1772796608096958500,6.28195849609375,0.10764730477035045,-0.14963994184732438,0.2575005971074104
1772796608106950400,6.291950439453125,-0.00289046074450016,-0.1334609604626894,0.260128150865715
1772796608116942300,6.3019423828125,-0.139925772562623,-0.12203735691159963,0.21319791125608606
1772796608126934500,6.3119345703125,-0.3158253603041172,-0.1423918704152107,0.16031144838947803
1772796608136926500,6.321926513671875,-0.43938510447740553,-0.1625154977723956,0.10241658277632668
1772796608146918400,6.33191845703125,-0.4649357253193855,-0.17280016042143106,0.06332969534453005
1772796608156910300,6.341910400390625,-0.45797582317888735,-0.18578414515703914,0.08693314590780064
1772796608166902300,6.35190234375,-0.44287411563694473,-0.20276479831337926,0.1122423044104129
1772796608176894500,6.36189453125,-0.3752759126603603,-0.23783932656496762,0.06570488177696243
1772796608186886400,6.371886474609375,-0.25545710858106613,-0.2545674662649631,-0.009444394166301936
1772796608196878300,6.38187841796875,-0.12415946363210677,-0.276606571854651,-0.07591322778677567
1772796608206870300,6.391870361328125,-0.04022504288256168,-0.30226649829000235,-0.08629245511777699
1772796608216862500,6.401862548828125,0.05804419268965721,-0.3355792775660753,-0.016435495162662118
1772796608226854400,6.4118544921875,0.17560265062153338,-0.3257186855480075,0.02127736396957189
1772796608236847400,6.421847412109375,0.30783319250643254,-0.3233893658176064,0.0342298484552186
1772796608246839600,6.431839599609375,0.3731324708908796,-0.3581947217389941,0.011884718256816267
1772796608256831500,6.44183154296875,0.4293880265980959,-0.37111879298090933,0.0568144499653019
1772796608266823400,6.451823486328125,0.4554471814841032,-0.40521570837199683,0.1436840199844446
1772796608276815400,6.4618154296875,0.44419864223897454,-0.47010231430232524,0.1743436270037666
1772796608286807300,6.471807373046875,0.42097032686471936,-0.447161291436851,0.14527511596763507
1772796608296799500,6.481799560546875,0.3756120127469301,-0.4013853364288807,0.06130922693416942
1772796608306791400,6.49179150390625,0.28498832349181175,-0.3747723470523953,-0.0565883130592294
1772796608316783400,6.501783447265625,0.16767478023171423,-0.3365405238136649,-0.1576643679467961
1772796608326775300,6.511775390625,0.05632511381208896,-0.2791512879014015,-0.1699131337430328
1772796608336767500,6.521767578125,-0.02135901437103748,-0.18229747208505867,-0.08716264381473883
1772796608346759400,6.531759521484375,-0.04650105441212654,-0.06532324378192425,-0.014365638077555922
1772796608356751400,6.54175146484375,-0.06462064847052097,0.015090601626038551,0.04769948868276551
1772796608366743300,6.551743408203125,-0.05770633903741836,0.02635433844029903,0.11047163234292529
1772796608376736500,6.561736572265625,-0.050099955686926836,0.02427314825206995,0.22458518311847
1772796608386728400,6.571728515625,-0.04455167391002178,0.005122019188851118,0.31252489398662
1772796608396720400,6.581720458984375,-0.008949614652991295,0.004975158064067364,0.3579157586671412
1772796608406712600,6.591712646484375,0.05023498024344444,-0.026426088502258062,0.3713615887608379
1772796608416704500,6.60170458984375,0.0972404770463705,-0.06600844956710934,0.3765367263764143
1772796608426696200,6.6116962890625,0.13041677046120165,-0.13361308228448032,0.3621771059060469
1772796608436688400,6.6216884765625,0.17264380081593989,-0.1938226363144815,0.3029333281682804
1772796608446680300,6.631680419921875,0.2104886705636978,-0.273084389077872,0.2920166877586394
1772796608456672500,6.641672607421875,0.23173662577569484,-0.355165290915221,0.2848403298558667
1772796608466664200,6.651664306640625,0.250033914488554,-0.3987809991493821,0.2852468830964528
1772796608476656400,6.661656494140625,0.24815350756943225,-0.42205256914347405,0.3524594294900074
1772796608486648300,6.6716484375,0.2782096231371164,-0.4251951049529016,0.38728469568826257
1772796608496640500,6.681640625,0.28436580767929553,-0.4306054395638406,0.43036257071867584
1772796608506632400,6.691632568359375,0.283999312454462,-0.46545185814797874,0.42974648464694615
1772796608516625400,6.70162548828125,0.2620926010727882,-0.46817646080628034,0.4259108520068228
1772796608526617600,6.71161767578125,0.18401275157034397,-0.46736967446804045,0.3672605831827968
1772796608536609500,6.721609619140625,0.13409458219110965,-0.4619537868991494,0.3360884691972285
1772796608546601200,6.731601318359375,0.0942693522810936,-0.43749300712049005,0.3217987356252968
1772796608556593400,6.741593505859375,0.07336451141834259,-0.41661403135135766,0.27768832094306123
1772796608566585300,6.75158544921875,0.04248071285486221,-0.41767230823263524,0.1855515054449439
1772796608576577500,6.76157763671875,0.008439327043294906,-0.3794835934832692,0.18795314149288458
1772796608586569200,6.7715693359375,-0.017325813332200048,-0.3265912305988371,0.18977980893077329
1772796608596561400,6.7815615234375,-0.0442325249582529,-0.2955956422239542,0.10632964630052447
1772796608606553300,6.79155322265625,-0.09100713561475277,-0.3062595134489238,0.06754243593504652
1772796608616545500,6.801545654296875,-0.17114274860322473,-0.3065557199165225,0.01749094076603651
1772796608626537200,6.811537109375,-0.25505612656474114,-0.3198093153737485,0.008840984913054854
1772796608636529400,6.821529296875,-0.2861877624094486,-0.35670565222501754,0.026531174578238278
1772796608646522600,6.831522705078125,-0.27291970003545285,-0.3739972710266709,0.09174244588566943
1772796608656514300,6.841514404296875,-0.30307810693383214,-0.38969519089609383,0.09716028794962912
1772796608666506500,6.851506591796875,-0.3035954088062048,-0.3651926178023219,0.05255538601502776
1772796608676498400,6.86149853515625,-0.31576515454947945,-0.321454306101799,0.07994783533141016
1772796608686490400,6.871490478515625,-0.3236889332860708,-0.31183044544905425,0.07112027615550905
1772796608696482300,6.881482421875,-0.35398178021907806,-0.29446722271591425,-0.020565818166732787
1772796608706474200,6.89147412109375,-0.37974750511646266,-0.12949585622400045,-0.2978263238854706
1772796608716466400,6.901466552734375,-0.42944998591840267,0.07464753696620464,-0.5336326467854902
1772796608726458400,6.911458251953125,-0.5336205544888973,0.2970411648571491,-0.655915101031959
1772796608736450600,6.921450439453125,-0.6616337709397078,0.488530828179419,-0.6737041479617357
1772796608746442200,6.931442138671875,-0.7633072619974612,0.6981199195548892,-0.4736820359526202
1772796608756434400,6.941434326171875,-0.82435122102499,0.911570070272684,-0.23457944798618555
1772796608766426400,6.95142626953125,-0.8645411925941705,1.1144906436696649,-0.03852740865182131
1772796608776418600,6.96141845703125,-0.905786810696125,1.381947840515524,0.103377043572627
1772796608786411500,6.97141162109375,-0.8401935178011656,1.5714809629425406,0.25763978638239204
1772796608796403500,6.981403564453125,-0.706671182540059,1.6798156654551624,0.4106082881305366
1772796608806395600,6.991395751953125,-0.597557312348485,1.6938143801912664,0.4837137832865119
1772796608816387300,7.00138720703125,-0.5620090291053056,1.6910221191242336,0.5092798939585685
1772796608826379300,7.011379150390625,-0.6498264287680388,1.6139980622850358,0.5102944047633559
1772796608836371500,7.021371337890625,-0.7559381945341825,1.5550992985926568,0.44205618685018266
