time,seconds_elapsed,z,y,x
1772796601881891800,0.066891845703125,0.028626825660467148,-0.12999644875526428,0.17630444467067719
1772796601891884000,0.076884033203125,0.04236607253551483,-0.16814489662647247,0.1958235502243042
1772796601901876000,0.0868759765625,0.057612016797065735,-0.2055509239435196,0.20118670165538788
1772796601911868200,0.0968681640625,0.07534680515527725,-0.23288081586360931,0.19078971445560455
1772796601921860000,0.106860107421875,0.09876051545143127,-0.25778907537460327,0.1679520457983017
1772796601931852000,0.11685205078125,0.126874178647995,-0.27058345079421997,0.14282113313674927
1772796601941844000,0.126843994140625,0.1474531590938568,-0.275728702545166,0.1125800758600235
1772796601951837200,0.136837158203125,0.1620377004146576,-0.2779809236526489,0.07485000789165497
1772796601961829400,0.146829345703125,0.16980993747711182,-0.2751941382884979,0.037299301475286484
1772796601971821300,0.1568212890625,0.1784292608499527,-0.2654637396335602,-0.004995956551283598
1772796601981813500,0.1668134765625,0.18415696918964386,-0.24106544256210327,-0.040283046662807465
1772796601991805400,0.176805419921875,0.19865895807743073,-0.1920560896396637,-0.06476521492004395
1772796602001797400,0.18679736328125,0.21515360474586487,-0.13021789491176605,-0.07536622881889343
1772796602011789300,0.196789306640625,0.2305368334054947,-0.06628285348415375,-0.0884343609213829
1772796602021781500,0.206781494140625,0.23603621125221252,-0.008222400210797787,-0.08488326519727707
1772796602031773400,0.2167734375,0.24539615213871002,0.03361399844288826,-0.08215326070785522
1772796602041765400,0.226765380859375,0.2496238797903061,0.059952981770038605,-0.07011151313781738
1772796602051757300,0.23675732421875,0.2503460943698883,0.0704149454832077,-0.0621662363409996
1772796602061749500,0.24674951171875,0.258503794670105,0.0572185218334198,-0.04253184795379639
1772796602071741400,0.256741455078125,0.2706264853477478,0.03333103284239769,-0.031700506806373596
1772796602081733400,0.2667333984375,0.28002163767814636,0.01381538063287735,-0.018890419974923134
1772796602091725300,0.276725341796875,0.2860284149646759,-0.017344137653708458,-0.0028824256733059883
1772796602101718500,0.286718505859375,0.284613698720932,-0.04299191012978554,0.007901293225586414
1772796602111710200,0.296710205078125,0.28284430503845215,-0.06488122791051865,0.019535845145583153
1772796602121702400,0.306702392578125,0.2740956246852875,-0.08886659145355225,0.029622802510857582
1772796602131694300,0.3166943359375,0.2653530240058899,-0.11114472895860672,0.040641896426677704
1772796602141686500,0.3266865234375,0.25595349073410034,-0.1190246194601059,0.043130841106176376
1772796602151678200,0.33667822265625,0.2492649406194687,-0.11882727593183517,0.0421270951628685
1772796602161670400,0.34667041015625,0.23806142807006836,-0.12126593291759491,0.04221751540899277
1772796602171662300,0.356662353515625,0.22053465247154236,-0.12280284613370895,0.03836978226900101
1772796602181654500,0.366654541015625,0.20572803914546967,-0.11881841719150543,0.025764618068933487
1772796602191646500,0.376646484375,0.19201143085956573,-0.1056663990020752,0.01855570822954178
1772796602201638400,0.386638427734375,0.1811380833387375,-0.0724126398563385,0.007299341261386871
1772796602211630300,0.39663037109375,0.17318056523799896,-0.021053047850728035,-0.0021737890783697367
1772796602221622500,0.40662255859375,0.1643335521221161,0.03718528524041176,-0.012666049413383007
1772796602231614500,0.416614501953125,0.15858964622020721,0.09095663577318192,-0.020137015730142593
1772796602241606400,0.4266064453125,0.1537678837776184,0.14056427776813507,-0.027898499742150307
1772796602251599400,0.436599365234375,0.15670748054981232,0.18028105795383453,-0.030763527378439903
1772796602261591600,0.446591552734375,0.1569439321756363,0.22284424304962158,-0.030080175027251244
1772796602271583200,0.456583251953125,0.14817014336585999,0.2510356605052948,-0.028872964903712273
1772796602281575400,0.466575439453125,0.1309647560119629,0.26186493039131165,-0.028423957526683807
1772796602291567400,0.4765673828125,0.11199478805065155,0.2522786259651184,-0.03134171664714813
1772796602301559600,0.4865595703125,0.08785858005285263,0.21815833449363708,-0.03273013234138489
1772796602311551200,0.49655126953125,0.06684810668230057,0.17753714323043823,-0.03261881321668625
1772796602321543400,0.50654345703125,0.061794526875019073,0.14604619145393372,-0.04256448149681091
1772796602331535400,0.516535400390625,0.06827932596206665,0.12626315653324127,-0.04610169306397438
1772796602341527600,0.526527587890625,0.08645259588956833,0.10364260524511337,-0.0450197272002697
1772796602351519200,0.536519287109375,0.09744292497634888,0.08581966906785965,-0.03739563003182411
1772796602361511400,0.546511474609375,0.11424864083528519,0.08740457892417908,-0.023938238620758057
1772796602371503400,0.55650341796875,0.12410766631364822,0.09924739599227905,-0.008258877322077751
1772796602381495600,0.56649560546875,0.12552613019943237,0.12338980287313461,0.008522091433405876
1772796602391487500,0.576487548828125,0.12479269504547119,0.15543270111083984,0.02804119698703289
1772796602401480400,0.58648046875,0.11281921714544296,0.20565973222255707,0.04195212572813034
1772796602411472400,0.596472412109375,0.09336162358522415,0.2617088556289673,0.05350412055850029
1772796602421464300,0.60646435546875,0.060929082334041595,0.3116643726825714,0.053256601095199585
1772796602431456300,0.616456298828125,0.022961461916565895,0.3406398296356201,0.04093122482299805
1772796602441448400,0.626448486328125,-0.009228121489286423,0.33988600969314575,0.027209460735321045
1772796602451440400,0.6364404296875,-0.03665494918823242,0.32183459401130676,0.0018023722805082798
1772796602461432600,0.6464326171875,-0.06110979989171028,0.2946374714374542,-0.02647850289940834
1772796602471424300,0.65642431640625,-0.0865858644247055,0.2624952495098114,-0.06211373209953308
1772796602481416400,0.66641650390625,-0.11579225957393646,0.22873607277870178,-0.10368850827217102
1772796602491408400,0.676408447265625,-0.14804500341415405,0.18700167536735535,-0.14300821721553802
1772796602501400600,0.686400634765625,-0.17815452814102173,0.14516881108283997,-0.18502172827720642
1772796602511392300,0.696392333984375,-0.20801495015621185,0.0973735973238945,-0.22196456789970398
1772796602521384400,0.706384521484375,-0.2296634316444397,0.05886341631412506,-0.25984880328178406
1772796602531376400,0.71637646484375,-0.2367658168077469,0.036685679107904434,-0.28856194019317627
1772796602541368600,0.72636865234375,-0.2374226301908493,0.03864855691790581,-0.3034524619579315
1772796602551360300,0.7363603515625,-0.23335972428321838,0.06957344710826874,-0.3045470118522644
1772796602561353500,0.746353515625,-0.22438302636146545,0.12317728996276855,-0.29068925976753235
1772796602571345400,0.756345458984375,-0.2132752388715744,0.2005932629108429,-0.2606844902038574
1772796602581337300,0.76633740234375,-0.19951501488685608,0.2797408103942871,-0.21652081608772278
1772796602591329300,0.776329345703125,-0.17786884307861328,0.35077717900276184,-0.15508675575256348
1772796602601321500,0.786321533203125,-0.16252152621746063,0.4146842360496521,-0.08375711739063263
1772796602611313400,0.7963134765625,-0.14675480127334595,0.4615747928619385,-0.011104214936494827
1772796602621305300,0.806305419921875,-0.13347256183624268,0.508375346660614,0.06420731544494629
1772796602631297300,0.81629736328125,-0.1226891502737999,0.5361247062683105,0.12857379019260406
1772796602641289500,0.82628955078125,-0.11101775616407394,0.554401159286499,0.1821005642414093
1772796602651281400,0.836281494140625,-0.09316924959421158,0.5439738631248474,0.2192668467760086
1772796602661273600,0.846273681640625,-0.07916590571403503,0.47773778438568115,0.23429809510707855
1772796602671265300,0.856265380859375,-0.09739897400140762,0.28406259417533875,0.19554829597473145
1772796602681257500,0.866257568359375,-0.1706031858921051,-0.07626345008611679,0.09996306896209717
1772796602691249400,0.87624951171875,-0.2777789235115051,-0.5369426608085632,-0.04476774483919144
1772796602701242400,0.886242431640625,-0.3500286638736725,-0.9366934895515442,-0.19161903858184814
1772796602711234300,0.896234375,-0.35820430517196655,-1.1670180559158325,-0.2964562475681305
1772796602721226500,0.9062265625,-0.2901341915130615,-1.2089707851409912,-0.34545761346817017
1772796602731218400,0.916218505859375,-0.17750802636146545,-1.0575714111328125,-0.3446591794490814
1772796602741210400,0.92621044921875,-0.05249013006687164,-0.7354405522346497,-0.3014397621154785
1772796602751202300,0.936202392578125,0.06992286443710327,-0.29816892743110657,-0.22472739219665527
1772796602761194500,0.946194580078125,0.18852120637893677,0.16384010016918182,-0.13211844861507416
1772796602771186400,0.9561865234375,0.3002900779247284,0.5690667033195496,-0.03696104884147644
1772796602781178400,0.966178466796875,0.4055097699165344,0.8144643306732178,0.037211671471595764
1772796602791170300,0.97617041015625,0.5044326782226562,0.8782651424407959,0.07828933000564575
1772796602801162500,0.98616259765625,0.5776349902153015,0.8014241456985474,0.10149877518415451
1772796602811154400,0.996154541015625,0.6262475848197937,0.6556516885757446,0.10195361822843552
1772796602821146400,1.006146484375,0.6422956585884094,0.47054097056388855,0.07928230613470078
1772796602831138300,1.01613818359375,0.6308997273445129,0.26324662566185,0.05880526825785637
1772796602841130500,1.026130615234375,0.6000633835792542,0.07129833102226257,0.036925505846738815
1772796602851122400,1.036122314453125,0.5569081902503967,-0.06644248962402344,0.029235361143946648
1772796602861115400,1.046115478515625,0.5127323269844055,-0.14634060859680176,0.033758971840143204
1772796602871107300,1.056107421875,0.46320199966430664,-0.16322371363639832,0.04871208965778351
1772796602881099500,1.066099609375,0.4160292148590088,-0.15821722149848938,0.06820675730705261
1772796602891091500,1.076091552734375,0.3691045939922333,-0.15411169826984406,0.07467664033174515
1772796602901083400,1.08608349609375,0.33482885360717773,-0.1643620729446411,0.06480253487825394
1772796602911075300,1.096075439453125,0.31329345703125,-0.18738457560539246,0.050639841705560684
1772796602921067500,1.106067626953125,0.31043121218681335,-0.21235576272010803,0.03101664036512375
1772796602931059500,1.1160595703125,0.32801714539527893,-0.23408903181552887,0.013981462456285954
1772796602941051400,1.126051513671875,0.3559471666812897,-0.26025065779685974,0.008656002581119537
1772796602951043300,1.136043212890625,0.3877383768558502,-0.28606733679771423,0.015119228512048721
1772796602961035500,1.146035400390625,0.41377395391464233,-0.32160574197769165,0.02705243043601513
1772796602971027500,1.15602734375,0.42807671427726746,-0.373240202665329,0.02807481773197651
1772796602981019400,1.166019287109375,0.4361865818500519,-0.4446600377559662,0.01911434531211853
1772796602991011300,1.17601123046875,0.4385663866996765,-0.5215780138969421,-0.0001645446172915399
1772796603001003500,1.18600341796875,0.43873074650764465,-0.5707830786705017,-0.0067150588147342205
1772796603010996200,1.195996337890625,0.4333048164844513,-0.5708613395690918,0.020112294703722
1772796603020988400,1.205988525390625,0.4223851263523102,-0.4944911301136017,0.08726247400045395
1772796603030980400,1.21598046875,0.4064226746559143,-0.3333168923854828,0.17698755860328674
1772796603040972500,1.22597265625,0.4024477005004883,-0.09383371472358704,0.2833055555820465
1772796603050964500,1.235964599609375,0.4069846570491791,0.20125918090343475,0.38593339920043945
1772796603060956400,1.245956298828125,0.42683377861976624,0.4976504445075989,0.4581184685230255
1772796603070948400,1.2559482421875,0.44998782873153687,0.721497654914856,0.49177175760269165
1772796603080940500,1.2659404296875,0.46349775791168213,0.8527520895004272,0.4888675808906555
1772796603090932500,1.275932373046875,0.47751665115356445,0.8923101425170898,0.4565756916999817
1772796603100924400,1.28592431640625,0.48710867762565613,0.870444118976593,0.39435330033302307
1772796603110916400,1.295916259765625,0.5011762380599976,0.803423285484314,0.3238695561885834
1772796603120908500,1.305908447265625,0.5146359205245972,0.7070550322532654,0.24589285254478455
1772796603130900500,1.315900390625,0.5261111855506897,0.6119367480278015,0.17325618863105774
1772796603140892400,1.325892333984375,0.5363258123397827,0.5498437285423279,0.11573772877454758
1772796603150884400,1.33588427734375,0.5469648838043213,0.5209396481513977,0.06053146719932556
1772796603160876500,1.34587646484375,0.5547260642051697,0.5182543396949768,0.01999804377555847
1772796603170869200,1.355869140625,0.5650769472122192,0.5144864916801453,-0.016222544014453888
1772796603180861400,1.365861328125,0.5720031261444092,0.49716493487358093,-0.04620124399662018
1772796603190853400,1.375853271484375,0.5792772769927979,0.4715850055217743,-0.07378387451171875
1772796603200845600,1.385845458984375,0.5836954712867737,0.425554096698761,-0.09371789544820786
1772796603210837200,1.395837158203125,0.5860995054244995,0.3732813000679016,-0.10634154826402664
1772796603220829400,1.405829345703125,0.5916022658348083,0.33122342824935913,-0.11170678585767746
1772796603230821400,1.4158212890625,0.5992178916931152,0.3190610408782959,-0.10740125179290771
1772796603240813600,1.4258134765625,0.6086089015007019,0.32972779870033264,-0.09812339395284653
1772796603250805500,1.435805419921875,0.624075174331665,0.3675236701965332,-0.07401539385318756
1772796603260797400,1.44579736328125,0.6428664326667786,0.4205061197280884,-0.04609759896993637
1772796603270789400,1.455789306640625,0.6613354682922363,0.4614711403846741,-0.025498317554593086
1772796603280781600,1.465781494140625,0.6805504560470581,0.4674757122993469,-0.01076889131218195
1772796603290773500,1.4757734375,0.6907711625099182,0.43446075916290283,-0.007287606596946716
1772796603300765400,1.485765380859375,0.6965728998184204,0.3828757703304291,-0.011161425150930882
1772796603310757400,1.49575732421875,0.6954858303070068,0.31954845786094666,-0.02051631174981594
1772796603320749600,1.50574951171875,0.6931175589561462,0.26364263892173767,-0.0227348655462265
1772796603330742300,1.5157421875,0.6936384439468384,0.21622055768966675,-0.03132941946387291
1772796603340734500,1.525734375,0.6939904689788818,0.18324096500873566,-0.02820965088903904
1772796603350726400,1.535726318359375,0.6887059211730957,0.1622997373342514,-0.036244675517082214
1772796603360718600,1.545718505859375,0.6759913563728333,0.14156876504421234,-0.037047915160655975
1772796603370710300,1.555710205078125,0.6578317880630493,0.12486567348241806,-0.051256947219371796
1772796603380702500,1.565702392578125,0.642767608165741,0.10843857377767563,-0.06311109662055969
1772796603390694400,1.5756943359375,0.6387630105018616,0.09566924721002579,-0.0814211294054985
1772796603400686600,1.5856865234375,0.6361046433448792,0.08382143825292587,-0.0955512598156929
1772796603410678300,1.59567822265625,0.6327599883079529,0.08123257756233215,-0.11124500632286072
1772796603420670500,1.60567041015625,0.6271224617958069,0.09019357711076736,-0.1213066354393959
1772796603430662400,1.615662353515625,0.6185877919197083,0.08798741549253464,-0.12072952836751938
1772796603440654600,1.625654541015625,0.6067813038825989,0.09018146246671677,-0.11217202246189117
1772796603450646500,1.635646484375,0.5980898141860962,0.09962449967861176,-0.09362763166427612
1772796603460638500,1.645638427734375,0.5912789702415466,0.11658677458763123,-0.06382634490728378
1772796603470630400,1.65563037109375,0.5898944139480591,0.1277017444372177,-0.03394914045929909
1772796603480623400,1.665623291015625,0.5904900431632996,0.13212677836418152,-0.002016098005697131
1772796603490615300,1.675615234375,0.5851237773895264,0.12348403036594391,0.03259328007698059
1772796603500607500,1.685607421875,0.5830235481262207,0.09757352620363235,0.06846508383750916
1772796603510599400,1.695599365234375,0.5813854336738586,0.06543049961328506,0.0999351218342781
1772796603520591600,1.705591552734375,0.5760278701782227,0.020434068515896797,0.13574476540088654
1772796603530583300,1.715583251953125,0.5763471722602844,-0.034333303570747375,0.16608670353889465
1772796603540575500,1.725575439453125,0.5792036652565002,-0.0717686265707016,0.19174587726593018
1772796603550567400,1.7355673828125,0.5872551798820496,-0.08042389899492264,0.20872247219085693
1772796603560559600,1.7455595703125,0.6067240238189697,-0.055687256157398224,0.2218952178955078
1772796603570551300,1.75555126953125,0.627247154712677,-0.01324659213423729,0.22614721953868866
1772796603580543500,1.76554345703125,0.6517225503921509,0.03913133218884468,0.22531746327877045
1772796603590535400,1.775535400390625,0.6848291158676147,0.09941943734884262,0.2200918048620224
1772796603600527600,1.785527587890625,0.7297469973564148,0.16742098331451416,0.21976274251937866
1772796603610519300,1.795519287109375,0.7791550159454346,0.25308793783187866,0.2240632176399231
1772796603620511500,1.805511474609375,0.8464991450309753,0.3516940772533417,0.24320855736732483
1772796603630503400,1.81550341796875,0.9218900203704834,0.43488138914108276,0.2651039958000183
1772796603640496400,1.825496337890625,0.9944018125534058,0.46697402000427246,0.2779822051525116
1772796603650488300,1.83548828125,1.0464801788330078,0.44769033789634705,0.27892816066741943
1772796603660480500,1.84548046875,1.085411787033081,0.4051154553890228,0.2608042061328888
1772796603670472400,1.855472412109375,1.1125049591064453,0.3487246036529541,0.23858945071697235
1772796603680464400,1.86546435546875,1.1318550109863281,0.2919296324253082,0.20148245990276337
1772796603690456300,1.875456298828125,1.1433204412460327,0.22787900269031525,0.14695104956626892
1772796603700448500,1.885448486328125,1.1504281759262085,0.15662074089050293,0.08102884888648987
1772796603710440400,1.8954404296875,1.1470942497253418,0.10452398657798767,0.00267598289065063
1772796603720432600,1.9054326171875,1.1508071422576904,0.07708876579999924,-0.07230016589164734
1772796603730424300,1.91542431640625,1.1628837585449219,0.06500760465860367,-0.1292121708393097
1772796603740416500,1.92541650390625,1.1891742944717407,0.06379326432943344,-0.1712174266576767
1772796603750408400,1.935408447265625,1.2435402870178223,0.06134422495961189,-0.19653290510177612
1772796603760400400,1.945400390625,1.310935139656067,0.07564206421375275,-0.2032216638326645
1772796603770392300,1.955392333984375,1.4038312435150146,0.11431755125522614,-0.18810449540615082
1772796603780384300,1.96538427734375,1.507151484489441,0.17047949135303497,-0.1487247794866562
1772796603790377500,1.97537744140625,1.6115391254425049,0.24850665032863617,-0.10352081060409546
1772796603800369400,1.985369384765625,1.7086087465286255,0.3399222791194916,-0.04574092477560043
1772796603810361300,1.995361328125,1.808785080909729,0.4367105960845947,0.01764603704214096
1772796603820353500,2.005353515625,1.919636607170105,0.5278407335281372,0.1000455841422081
1772796603830345500,2.015345458984375,2.0309886932373047,0.6016312837600708,0.20610810816287994
1772796603840337400,2.02533740234375,2.131669521331787,0.6582311987876892,0.3344900608062744
1772796603850329300,2.035329345703125,2.221973419189453,0.7095468640327454,0.479810506105423
1772796603860321500,2.045321533203125,2.298940896987915,0.7537158131599426,0.6213181614875793
1772796603870313500,2.0553134765625,2.3638296127319336,0.8108326196670532,0.7443796396255493
1772796603880305400,2.065305419921875,2.4225547313690186,0.8821169137954712,0.8339731097221375
1772796603890297300,2.07529736328125,2.4737422466278076,0.9754476547241211,0.8849960565567017
1772796603900289300,2.085289306640625,2.5091326236724854,1.0909276008605957,0.880782425403595
1772796603910281500,2.095281494140625,2.54036545753479,1.2108995914459229,0.814947783946991
1772796603920273400,2.1052734375,2.5643601417541504,1.3179534673690796,0.7042033672332764
1772796603930265300,2.115265380859375,2.5796608924865723,1.3947778940200806,0.5543714761734009
1772796603940257300,2.12525732421875,2.590446710586548,1.4164992570877075,0.3738921582698822
1772796603950250500,2.13525048828125,2.576491355895996,1.3900610208511353,0.17353297770023346
1772796603960242000,2.145241943359375,2.5719051361083984,1.3441990613937378,-0.030945532023906708
1772796603970234000,2.155234130859375,2.5680735111236572,1.2801063060760498,-0.2213948369026184
1772796603980226000,2.16522607421875,2.5648069381713867,1.2036981582641602,-0.40330639481544495
1772796603990218000,2.175218017578125,2.566082000732422,1.0972603559494019,-0.5569015741348267
1772796604000210000,2.1852099609375,2.600311756134033,0.9695017337799072,-0.6849609017372131
1772796604010201900,2.195201904296875,2.6694862842559814,0.8980385065078735,-0.7658581733703613
1772796604020194000,2.205194091796875,2.756312131881714,0.9139960408210754,-0.7925098538398743
1772796604030186000,2.21518603515625,2.843862295150757,0.9926290512084961,-0.7727715969085693
1772796604040178200,2.22517822265625,2.911742687225342,1.0880435705184937,-0.7275644540786743
1772796604050169900,2.235169921875,2.9519906044006348,1.1567344665527344,-0.6725917458534241
1772796604060162000,2.245162109375,2.978644847869873,1.174860954284668,-0.625164806842804
1772796604070154000,2.255154052734375,2.9886696338653564,1.1570097208023071,-0.5631866455078125
1772796604080146200,2.265146240234375,2.989487409591675,1.1215198040008545,-0.5027216672897339
1772796604090137900,2.275137939453125,2.9650278091430664,1.0712478160858154,-0.4465915858745575
1772796604100131000,2.285131103515625,2.909886121749878,1.0159351825714111,-0.39953508973121643
1772796604110123000,2.295123046875,2.831936836242676,0.9483873248100281,-0.36751458048820496
1772796604120115000,2.305114990234375,2.7408552169799805,0.8764414191246033,-0.3552611768245697
1772796604130107000,2.31510693359375,2.65995717048645,0.8211442828178406,-0.37303218245506287
1772796604140099000,2.32509912109375,2.5958051681518555,0.8007727861404419,-0.40787431597709656
1772796604150091000,2.335091064453125,2.542539596557617,0.8005996942520142,-0.4660571813583374
1772796604160083000,2.3450830078125,2.4958393573760986,0.803814172744751,-0.528875470161438
1772796604170075000,2.355074951171875,2.4591598510742188,0.7909263372421265,-0.5860124826431274
1772796604180067000,2.365067138671875,2.423222780227661,0.751250147819519,-0.6187330484390259
1772796604190059000,2.37505908203125,2.394815683364868,0.6812795400619507,-0.6284564733505249
1772796604200051000,2.385051025390625,2.380946397781372,0.6095719337463379,-0.6207019686698914
1772796604210043000,2.39504296875,2.379803419113159,0.5637331008911133,-0.5965143442153931
1772796604220035000,2.40503515625,2.3952198028564453,0.5360033512115479,-0.5679758787155151
1772796604230027000,2.415027099609375,2.4047491550445557,0.5191277265548706,-0.5374709963798523
1772796604240019200,2.425019287109375,2.4054081439971924,0.49485525488853455,-0.5172145366668701
1772796604250011000,2.435010986328125,2.386378049850464,0.4646483361721039,-0.5120109915733337
1772796604260004000,2.445004150390625,2.3487296104431152,0.43008196353912354,-0.5161163806915283
1772796604269996000,2.45499609375,2.3016562461853027,0.38652941584587097,-0.5242629647254944
1772796604279988000,2.464988037109375,2.2461633682250977,0.3521215319633484,-0.5308254361152649
1772796604289980000,2.47497998046875,2.197660446166992,0.3389713764190674,-0.5338278412818909
1772796604299972000,2.48497216796875,2.1533429622650146,0.34099897742271423,-0.5254214406013489
1772796604309964000,2.494964111328125,2.1076083183288574,0.35012590885162354,-0.5111175775527954
1772796604319956000,2.5049560546875,2.0699381828308105,0.37873589992523193,-0.4935767352581024
1772796604329948000,2.514947998046875,2.0413272380828857,0.433494508266449,-0.47143998742103577
1772796604339940000,2.524940185546875,2.026914119720459,0.4855063557624817,-0.4582519233226776
1772796604349932000,2.53493212890625,2.022477149963379,0.5132152438163757,-0.4553546607494354
1772796604359924000,2.544924072265625,2.023688793182373,0.4728003442287445,-0.46569791436195374
1772796604369916000,2.554916015625,2.0375185012817383,0.38493654131889343,-0.47305649518966675
1772796604379908000,2.564908203125,2.0501112937927246,0.29085224866867065,-0.472618043422699
1772796604389900000,2.574900146484375,2.051565170288086,0.23660685122013092,-0.45530590415000916
1772796604399892000,2.58489208984375,2.0388741493225098,0.2250782996416092,-0.415175199508667
1772796604409885000,2.594885009765625,2.0086214542388916,0.25690600275993347,-0.37711888551712036
1772796604419877000,2.604877197265625,1.9746856689453125,0.30661576986312866,-0.3425379991531372
1772796604429869000,2.614869140625,1.9344309568405151,0.3607005774974823,-0.3244604766368866
1772796604439861000,2.624861083984375,1.9000381231307983,0.3801240622997284,-0.31380996108055115
1772796604449853000,2.63485302734375,1.879669189453125,0.36996570229530334,-0.31067755818367004
1772796604459845000,2.64484521484375,1.866899847984314,0.3801054358482361,-0.3125544488430023
1772796604469837000,2.654837158203125,1.8562601804733276,0.4207684397697449,-0.32530513405799866
1772796604479829000,2.6648291015625,1.8495457172393799,0.4442422091960907,-0.35194262862205505
1772796604489821000,2.674821044921875,1.819031000137329,0.40492862462997437,-0.4175437390804291
1772796604499813000,2.684813232421875,1.7386367321014404,0.23733216524124146,-0.5200613737106323
1772796604509805000,2.69480517578125,1.627886176109314,-0.008686658926308155,-0.6313303709030151
1772796604519797000,2.704796875,1.5144190788269043,-0.21106313169002533,-0.7158137559890747
1772796604529789000,2.714788818359375,1.4237117767333984,-0.2954999804496765,-0.7442416548728943
1772796604539781000,2.724781005859375,1.3656240701675415,-0.29030489921569824,-0.7292647957801819
1772796604549773000,2.73477294921875,1.3424041271209717,-0.24062283337116241,-0.6848179697990417
1772796604559765000,2.744764892578125,1.352293848991394,-0.15908722579479218,-0.6288617849349976
1772796604569758000,2.754758056640625,1.3918023109436035,-0.04056190326809883,-0.5584685802459717
1772796604579750100,2.764750244140625,1.4538142681121826,0.08661702275276184,-0.46684181690216064
1772796604589741800,2.774741943359375,1.5065603256225586,0.17705479264259338,-0.3579193353652954
1772796604599734000,2.784734130859375,1.5418715476989746,0.2031128704547882,-0.23689919710159302
1772796604609726000,2.794725830078125,1.5559346675872803,0.19776657223701477,-0.11704868823289871
1772796604619718100,2.80471826171875,1.548845648765564,0.18898408114910126,-0.013097149319946766
1772796604629710000,2.8147099609375,1.525397777557373,0.19519244134426117,0.07172559946775436
1772796604639702000,2.824701904296875,1.4870576858520508,0.19126799702644348,0.1304183453321457
1772796604649694000,2.83469384765625,1.4347708225250244,0.1636105477809906,0.16360293328762054
1772796604659686100,2.84468603515625,1.3753509521484375,0.10651322454214096,0.17781580984592438
1772796604669678000,2.854677978515625,1.3127880096435547,0.0319063700735569,0.17197681963443756
1772796604679670000,2.864669921875,1.235327124595642,-0.04555892571806908,0.15250998735427856
1772796604689662000,2.874661865234375,1.1497520208358765,-0.09326279908418655,0.1073308065533638
1772796604699654100,2.884654052734375,1.0688755512237549,-0.12917378544807434,0.041718266904354095
1772796604709646000,2.89464599609375,0.9972125291824341,-0.15917189419269562,-0.03876432031393051
1772796604719639000,2.90463916015625,0.9424137473106384,-0.1673923283815384,-0.11706497520208359
1772796604729631000,2.914630859375,0.8941141366958618,-0.15640759468078613,-0.18813835084438324
1772796604739623200,2.924623046875,0.8439732193946838,-0.15541552007198334,-0.2461342215538025
1772796604749614800,2.93461474609375,0.7952810525894165,-0.18704241514205933,-0.283752977848053
1772796604759607000,2.94460693359375,0.7543994188308716,-0.22848911583423615,-0.29834991693496704
1772796604769599000,2.954598876953125,0.7258450388908386,-0.25413215160369873,-0.28183645009994507
1772796604779591200,2.964591064453125,0.7051916122436523,-0.25429120659828186,-0.25332051515579224
1772796604789582800,2.974582763671875,0.6926398873329163,-0.25285789370536804,-0.21231767535209656
1772796604799575000,2.984574951171875,0.6840322017669678,-0.2555839717388153,-0.15633521974086761
1772796604809567000,2.99456689453125,0.6801098585128784,-0.25005844235420227,-0.09232667833566666
1772796604819559200,3.00455908203125,0.6928364634513855,-0.224744513630867,-0.01851644739508629
1772796604829551000,3.014551025390625,0.7239261865615845,-0.16100654006004333,0.049692701548337936
1772796604839543000,3.02454296875,0.7643423080444336,-0.07934125512838364,0.11722826957702637
1772796604849535000,3.034534912109375,0.8070857524871826,0.009144138544797897,0.17037831246852875
1772796604859527200,3.044527099609375,0.8433483242988586,0.09249008446931839,0.2055094838142395
1772796604869519000,3.05451904296875,0.8694928288459778,0.17655490338802338,0.22166715562343597
1772796604879512000,3.064511962890625,0.8781839609146118,0.25894713401794434,0.21882984042167664
1772796604889504000,3.07450390625,0.8668410181999207,0.3281134068965912,0.19997039437294006
1772796604899496200,3.08449609375,0.8488208055496216,0.3789185881614685,0.16266070306301117
1772796604909487900,3.09448779296875,0.8216325640678406,0.4226799011230469,0.11280073970556259
1772796604919480000,3.10447998046875,0.7864094972610474,0.4472178816795349,0.05480377748608589
1772796604929472000,3.114471923828125,0.7462021708488464,0.4559498727321625,-0.015767596662044525
1772796604939464200,3.124464111328125,0.7103292942047119,0.45093852281570435,-0.08637184649705887
1772796604949456000,3.134455810546875,0.6785221099853516,0.4269362688064575,-0.15401053428649902
1772796604959448600,3.144448486328125,0.6488370299339294,0.3853297531604767,-0.21147744357585907
1772796604969440500,3.1544404296875,0.6156079173088074,0.3392956852912903,-0.26026442646980286
1772796604979432700,3.1644326171875,0.5819761157035828,0.2852882444858551,-0.2884629964828491
1772796604989424400,3.17442431640625,0.5453283786773682,0.22218330204486847,-0.29353898763656616
1772796604999416600,3.18441650390625,0.5113399624824524,0.15220928192138672,-0.28234925866127014
1772796605009408500,3.194408447265625,0.4757942259311676,0.10008243471384048,-0.2521069347858429
1772796605019400700,3.204400634765625,0.4367067515850067,0.0682080015540123,-0.21616315841674805
1772796605029393400,3.214393310546875,0.39775723218917847,0.047365304082632065,-0.1711844950914383
1772796605039385600,3.224385498046875,0.3688730001449585,0.04587791860103607,-0.13376080989837646
1772796605049377500,3.23437744140625,0.34927666187286377,0.06052876263856888,-0.09348129481077194
1772796605059369500,3.244369384765625,0.3330959677696228,0.07870510220527649,-0.06490331143140793
1772796605069361400,3.254361328125,0.3196669816970825,0.08314139395952225,-0.04968547448515892
1772796605079353600,3.264353515625,0.29964742064476013,0.07047879695892334,-0.04866987094283104
1772796605089345500,3.274345458984375,0.2783852517604828,0.05362552031874657,-0.05100865662097931
1772796605099337500,3.28433740234375,0.2696286737918854,0.04205076023936272,-0.04265935346484184
1772796605109329400,3.294329345703125,0.26701319217681885,0.04810492321848869,-0.020462434738874435
1772796605119321600,3.304321533203125,0.25931432843208313,0.06613472104072571,0.002927325200289488
1772796605129313500,3.3143134765625,0.24698497354984283,0.06716909259557724,0.02189941704273224
1772796605139305500,3.324305419921875,0.22840893268585205,0.06363467872142792,0.037590403109788895
1772796605149297400,3.33429736328125,0.20417016744613647,0.05201264098286629,0.04046102240681648
1772796605159289600,3.34428955078125,0.18471001088619232,0.02762734144926071,0.04127915948629379
1772796605169281500,3.354281494140625,0.16430699825286865,-0.017673294991254807,0.030537035316228867
1772796605179273700,3.364273681640625,0.14177337288856506,-0.08221866190433502,0.021989604458212852
1772796605189266400,3.374266357421875,0.11948457360267639,-0.1483614593744278,0.010438142344355583
1772796605199258600,3.384258544921875,0.09531974047422409,-0.1886931210756302,0.007118716835975647
1772796605209250600,3.39425048828125,0.07262987643480301,-0.2068745195865631,0.0011705465149134398
1772796605219242500,3.404242431640625,0.05033158138394356,-0.19181698560714722,0.00459787854924798
1772796605229234400,3.414234375,0.024368956685066223,-0.15438200533390045,0.006413355469703674
1772796605239226600,3.4242265625,0.011219508945941925,-0.1006425991654396,0.004175694193691015
1772796605249218600,3.434218505859375,0.014293062500655651,-0.01953868754208088,-0.0048867762088775635
1772796605259210500,3.44421044921875,0.028571203351020813,0.06807808578014374,-0.02291187271475792
1772796605269202400,3.454202392578125,0.04701386019587517,0.13183869421482086,-0.0481778159737587
1772796605279194600,3.464194580078125,0.06338123232126236,0.15543484687805176,-0.07728603482246399
1772796605289186600,3.4741865234375,0.07713433355093002,0.1513333022594452,-0.09493720531463623
1772796605299178500,3.484178466796875,0.08230684697628021,0.12561282515525818,-0.11084407567977905
1772796605309170400,3.49417041015625,0.08970244228839874,0.09370283037424088,-0.10953033715486526
1772796605319162600,3.50416259765625,0.09091764688491821,0.057476386427879333,-0.09520944952964783
1772796605329154600,3.514154541015625,0.09053148329257965,0.021447274833917618,-0.07344929873943329
1772796605339147500,3.5241474609375,0.0849226638674736,0.00031562941148877144,-0.05134180560708046
1772796605349139500,3.534139404296875,0.07788845896720886,-0.022528698667883873,-0.031079940497875214
1772796605359131600,3.544131591796875,0.06352602690458298,-0.04768358916044235,-0.015349982306361198
1772796605369123600,3.55412353515625,0.057130713015794754,-0.08939960598945618,0.0012716061901301146
1772796605379115500,3.564115478515625,0.054677143692970276,-0.14428763091564178,0.024623800069093704
1772796605389107500,3.574107421875,0.05603162571787834,-0.1805066168308258,0.05941613391041756
1772796605399099600,3.584099609375,0.056697823107242584,-0.19222059845924377,0.10467983782291412
1772796605409091600,3.594091552734375,0.0588909350335598,-0.22430768609046936,0.13810835778713226
1772796605419083500,3.60408349609375,0.04847992956638336,-0.3206917643547058,0.15186767280101776
1772796605429075500,3.614075439453125,0.03680755943059921,-0.4673326015472412,0.14720553159713745
1772796605439067600,3.624067626953125,0.025304798036813736,-0.5867565274238586,0.13538071513175964
1772796605449059600,3.6340595703125,0.025531433522701263,-0.6096419095993042,0.1261826902627945
1772796605459051500,3.644051513671875,0.04470588266849518,-0.5429614782333374,0.12232999503612518
1772796605469043500,3.65404345703125,0.07459188252687454,-0.4248306155204773,0.11901089549064636
1772796605479035600,3.66403564453125,0.1134127676486969,-0.312276691198349,0.11722545325756073
1772796605489028400,3.6740283203125,0.1533452719449997,-0.20844031870365143,0.12739285826683044
1772796605499020500,3.6840205078125,0.1885318011045456,-0.13964620232582092,0.14420264959335327
1772796605509012500,3.694012451171875,0.2131788283586502,-0.11602050811052322,0.18273432552814484
1772796605519004700,3.704004638671875,0.22884517908096313,-0.13356514275074005,0.23217277228832245
1772796605528996400,3.713996337890625,0.2333350032567978,-0.18262721598148346,0.2834436893463135
1772796605538988500,3.723988525390625,0.2256617695093155,-0.24217064678668976,0.33112668991088867
1772796605548980500,3.73398046875,0.2216007262468338,-0.3056574761867523,0.36698776483535767
1772796605558972700,3.74397265625,0.20659630000591278,-0.36973994970321655,0.3890450894832611
1772796605568964600,3.753964599609375,0.1959143728017807,-0.42871004343032837,0.3882725238800049
1772796605578956500,3.76395654296875,0.18929719924926758,-0.48240673542022705,0.37167254090309143
1772796605588948500,3.773948486328125,0.18006828427314758,-0.5181642174720764,0.34075379371643066
1772796605598940700,3.783940673828125,0.16505908966064453,-0.5255669951438904,0.30424976348876953
1772796605608932600,3.7939326171875,0.1458798050880432,-0.518656313419342,0.27186810970306396
1772796605618924500,3.803924560546875,0.11851522326469421,-0.5058500170707703,0.24555222690105438
1772796605628916500,3.81391650390625,0.0914204865694046,-0.46481844782829285,0.23414191603660583
1772796605638908700,3.82390869140625,0.06964417546987534,-0.3890227675437927,0.24679413437843323
1772796605648901400,3.8339013671875,0.06693973392248154,-0.2830848693847656,0.2780487537384033
1772796605658893600,3.8438935546875,0.0788884088397026,-0.1496347188949585,0.3216247856616974
1772796605668885500,3.853885498046875,0.09947144985198975,-0.022322043776512146,0.36915767192840576
1772796605678877700,3.863877685546875,0.12180694192647934,0.06385233253240585,0.40209102630615234
1772796605688869400,3.873869384765625,0.12870240211486816,0.08400580286979675,0.4174359142780304
1772796605698861600,3.883861572265625,0.1371084451675415,0.038495831191539764,0.42077234387397766
1772796605708853500,3.893853515625,0.13911673426628113,-0.03114663064479828,0.407002717256546
1772796605718845700,3.903845703125,0.14184130728244781,-0.09671752154827118,0.38525351881980896
1772796605728837400,3.91383740234375,0.14488422870635986,-0.1423228234052658,0.36104005575180054
1772796605738829600,3.92382958984375,0.14260657131671906,-0.16185957193374634,0.3339994549751282
1772796605748821500,3.933821533203125,0.14340925216674805,-0.155143603682518,0.3112504482269287
1772796605758813700,3.943813720703125,0.14523448050022125,-0.12405531853437424,0.2842988073825836
1772796605768805400,3.953805419921875,0.15547911822795868,-0.08588902652263641,0.26235806941986084
1772796605778797600,3.963797607421875,0.16851289570331573,-0.05242028832435608,0.23815499246120453
1772796605788790500,3.97379052734375,0.19027093052864075,-0.03768741339445114,0.21282432973384857
1772796605798782500,3.983782470703125,0.2128128558397293,-0.030382636934518814,0.18383917212486267
1772796605808774400,3.9937744140625,0.2312920093536377,-0.029791947454214096,0.163230299949646
1772796605818766600,4.0037666015625,0.2470361590385437,-0.04222103953361511,0.1491338610649109
1772796605828758500,4.013758544921875,0.2552781105041504,-0.057752594351768494,0.14049217104911804
1772796605838750700,4.023750732421875,0.26576435565948486,-0.07757756859064102,0.1375410258769989
1772796605848742400,4.033742431640625,0.281444787979126,-0.10162271559238434,0.1398952603340149
1772796605858734600,4.043734619140625,0.2915205955505371,-0.13702359795570374,0.14440558850765228
1772796605868726500,4.0537265625,0.30692777037620544,-0.18835948407649994,0.15278762578964233
1772796605878718700,4.06371875,0.3148554861545563,-0.24103334546089172,0.16687920689582825
1772796605888710400,4.07371044921875,0.31778228282928467,-0.2698833644390106,0.19288285076618195
1772796605898702600,4.08370263671875,0.32057029008865356,-0.3034709692001343,0.22395704686641693
1772796605908694500,4.093694580078125,0.30757272243499756,-0.36611542105674744,0.2757941484451294
1772796605918686700,4.103686767578125,0.29662153124809265,-0.42162010073661804,0.3435695469379425
1772796605928678400,4.113678466796875,0.2971839904785156,-0.43535932898521423,0.42488011717796326
1772796605938670600,4.123670654296875,0.2942429780960083,-0.42673495411872864,0.489850789308548
1772796605948663600,4.13366357421875,0.27388179302215576,-0.412844717502594,0.5282069444656372
1772796605958656500,4.143656494140625,0.2439609169960022,-0.39698877930641174,0.5211101770401001
1772796605968648700,4.153648681640625,0.22066837549209595,-0.38873592019081116,0.4831542670726776
1772796605978640600,4.163640625,0.20919913053512573,-0.3845963478088379,0.43355226516723633
1772796605988632600,4.173632568359375,0.21802085638046265,-0.3727380931377411,0.36911946535110474
1772796605998624500,4.18362451171875,0.24609802663326263,-0.3359105885028839,0.30138304829597473
1772796606008616700,4.19361669921875,0.2821851670742035,-0.2895241677761078,0.23755291104316711
1772796606018608600,4.203608642578125,0.31115904450416565,-0.2268287092447281,0.17669659852981567
1772796606028600600,4.2136005859375,0.33555173873901367,-0.14537885785102844,0.11674297600984573
1772796606038592500,4.223592529296875,0.34947338700294495,-0.045217838138341904,0.06403028219938278
1772796606048584400,4.23358447265625,0.3549802601337433,0.044744543731212616,0.02322346344590187
1772796606058576600,4.24357666015625,0.3528481125831604,0.11197271943092346,-0.010400714352726936
1772796606068568600,4.253568603515625,0.34118717908859253,0.14347179234027863,-0.02402917481958866
1772796606078560500,4.263560546875,0.32327890396118164,0.14138177037239075,-0.01938576065003872
1772796606088552400,4.273552490234375,0.2969279885292053,0.13054029643535614,0.001958411419764161
1772796606098545700,4.283545654296875,0.278773695230484,0.11532923579216003,0.0411900095641613
1772796606108537600,4.29353759765625,0.2547288239002228,0.11723872274160385,0.08359259366989136
1772796606118529500,4.303529541015625,0.23860999941825867,0.11672598868608475,0.13347429037094116
1772796606128521700,4.313521728515625,0.21949809789657593,0.1269240379333496,0.17790354788303375
1772796606138513700,4.323513671875,0.20017234981060028,0.14364562928676605,0.20867997407913208
1772796606148505600,4.333505615234375,0.19008110463619232,0.15801312029361725,0.22666190564632416
1772796606158497500,4.34349755859375,0.18124917149543762,0.18985499441623688,0.22572606801986694
1772796606168489700,4.35348974609375,0.17538489401340485,0.22799386084079742,0.206614688038826
1772796606178481700,4.363481689453125,0.17156971991062164,0.2548274099826813,0.1672796607017517
1772796606188473300,4.373473388671875,0.1763002872467041,0.2601396143436432,0.12167355418205261
1772796606198465500,4.383465576171875,0.18134264647960663,0.25016549229621887,0.06948214024305344
1772796606208457500,4.39345751953125,0.19000324606895447,0.25252023339271545,0.015836216509342194
1772796606218449700,4.40344970703125,0.2015186846256256,0.242196187376976,-0.02968771383166313
1772796606228441600,4.413441650390625,0.2160467654466629,0.23780331015586853,-0.05904826521873474
1772796606238434600,4.4234345703125,0.2270800769329071,0.235735222697258,-0.06517037004232407
1772796606248426800,4.4334267578125,0.24066725373268127,0.25724372267723083,-0.05058956891298294
1772796606258418700,4.443418701171875,0.24453355371952057,0.29622793197631836,-0.020720100030303
1772796606268410600,4.45341064453125,0.25357580184936523,0.3356110155582428,0.01653086580336094
1772796606278402600,4.463402587890625,0.2541251480579376,0.36653295159339905,0.060415178537368774
1772796606288394800,4.473394775390625,0.25816598534584045,0.36901554465293884,0.10413496196269989
1772796606298386700,4.48338671875,0.27259743213653564,0.362874835729599,0.14801034331321716
1772796606308378600,4.493378662109375,0.28074005246162415,0.35956719517707825,0.1794484257698059
1772796606318370600,4.50337060546875,0.28133833408355713,0.3660679757595062,0.19871465861797333
1772796606328362500,4.513362548828125,0.27746447920799255,0.37421777844429016,0.19709864258766174
1772796606338354700,4.523354736328125,0.2761979103088379,0.37564224004745483,0.1801752746105194
1772796606348346400,4.533346435546875,0.2771603763103485,0.376003623008728,0.1492655724287033
1772796606358338600,4.543338623046875,0.28222066164016724,0.38824138045310974,0.10634872317314148
1772796606368330500,4.55333056640625,0.28360816836357117,0.4055876135826111,0.05869332328438759
1772796606378322700,4.56332275390625,0.28248170018196106,0.40884900093078613,0.001655725995078683
1772796606388315600,4.573315673828125,0.2832481563091278,0.3950069546699524,-0.047596774995326996
1772796606398307600,4.5833076171875,0.28423741459846497,0.3911479711532593,-0.0910794585943222
1772796606408299800,4.5932998046875,0.2859993577003479,0.4021923542022705,-0.10950586944818497
1772796606418291500,4.60329150390625,0.28962844610214233,0.43515875935554504,-0.11111980676651001
1772796606428283600,4.61328369140625,0.29223382472991943,0.4722619354724884,-0.09080148488283157
1772796606438275600,4.623275634765625,0.29764077067375183,0.4898878037929535,-0.05319851264357567
1772796606448267800,4.633267822265625,0.2955126464366913,0.4887024164199829,-0.011044134385883808
1772796606458259500,4.643259521484375,0.28524938225746155,0.4739340543746948,0.02796313725411892
1772796606468251400,4.65325146484375,0.2687162160873413,0.4508095681667328,0.060010287910699844
1772796606478243600,4.66324365234375,0.25088346004486084,0.4086105227470398,0.08153247088193893
1772796606488235500,4.673235595703125,0.23010705411434174,0.3654968738555908,0.08569472283124924
1772796606498227700,4.683227783203125,0.21909573674201965,0.33244651556015015,0.07016882300376892
1772796606508219400,4.693219482421875,0.20471946895122528,0.31258493661880493,0.03991531580686569
1772796606518211600,4.703211669921875,0.1866319477558136,0.3141152858734131,-0.0043443129397928715
1772796606528203500,4.71320361328125,0.1750868707895279,0.340607613325119,-0.051839929074048996
1772796606538196500,4.723196533203125,0.15935570001602173,0.39596113562583923,-0.10043849796056747
1772796606548188700,4.733188720703125,0.148279070854187,0.4294474720954895,-0.14208713173866272
1772796606558180600,4.7431806640625,0.13458648324012756,0.4171823561191559,-0.1763877421617508
1772796606568172800,4.7531728515625,0.12266004085540771,0.3654824197292328,-0.2026401162147522
1772796606578164500,4.76316455078125,0.11725644767284393,0.3026050925254822,-0.2097005397081375
1772796606588156400,4.773156494140625,0.12285520881414413,0.23550385236740112,-0.1905638575553894
1772796606598148600,4.783148681640625,0.13159629702568054,0.19925209879875183,-0.14880384504795074
1772796606608140500,4.793140625,0.14321273565292358,0.18806575238704681,-0.07848892360925674
1772796606618132500,4.803132568359375,0.15874935686588287,0.214800164103508,0.0028067324310541153
1772796606628124400,4.81312451171875,0.16926909983158112,0.2561502754688263,0.08943883329629898
1772796606638116600,4.82311669921875,0.1787687987089157,0.3067312240600586,0.17895404994487762
1772796606648108500,4.833108642578125,0.1780630499124527,0.34166738390922546,0.2548227310180664
1772796606658100500,4.8431005859375,0.17269113659858704,0.3421826958656311,0.3201446831226349
1772796606668092400,4.853092529296875,0.17098857462406158,0.3237304389476776,0.37591367959976196
1772796606678085600,4.863085693359375,0.17067880928516388,0.313904345035553,0.4163261651992798
1772796606688077600,4.87307763671875,0.1750756800174713,0.32142162322998047,0.4407721161842346
1772796606698069500,4.883069580078125,0.18129846453666687,0.32452142238616943,0.4436998963356018
1772796606708061700,4.893061767578125,0.17696550488471985,0.31346237659454346,0.4256953299045563
1772796606718053600,4.9030537109375,0.1668737232685089,0.29115891456604004,0.39312195777893066
1772796606728045600,4.913045654296875,0.16046349704265594,0.2514999210834503,0.3511180281639099
1772796606738037500,4.92303759765625,0.1576409786939621,0.1996147632598877,0.29748228192329407
1772796606748029400,4.933029541015625,0.15397699177265167,0.14261272549629211,0.23732811212539673
1772796606758021600,4.943021728515625,0.1513989269733429,0.09338025748729706,0.17490726709365845
1772796606768013600,4.953013671875,0.14757169783115387,0.04956672713160515,0.1133032888174057
1772796606778005500,4.963005615234375,0.14369788765907288,0.013405336067080498,0.059627920389175415
1772796606787997400,4.97299755859375,0.1474422961473465,-0.01750970259308815,0.01263218279927969
1772796606797989600,4.98298974609375,0.14643321931362152,-0.035462334752082825,-0.017574721947312355
1772796606807981600,4.992981689453125,0.15926140546798706,-0.02696472406387329,-0.02975921519100666
1772796606817973500,5.002973388671875,0.18111452460289001,0.01673075556755066,-0.023213746026158333
1772796606827966700,5.012966796875,0.1939152628183365,0.07699409872293472,-0.004448847845196724
1772796606837958700,5.022958740234375,0.19012272357940674,0.13804200291633606,0.021712778136134148
1772796606847950600,5.03295068359375,0.16745895147323608,0.1761385202407837,0.04814145714044571
1772796606857942500,5.042942626953125,0.11955387890338898,0.19124776124954224,0.06844957917928696
1772796606867934500,5.0529345703125,0.05589846894145012,0.17215688526630402,0.08595160394906998
1772796606877926700,5.0629267578125,-0.016175206750631332,0.13041463494300842,0.08551602065563202
1772796606887918600,5.072918701171875,-0.07557515054941177,0.05613560974597931,0.06939084827899933
1772796606897910500,5.08291064453125,-0.12350058555603027,-0.0407327376306057,0.03540773689746857
1772796606907902500,5.09290234375,-0.1668720245361328,-0.13025489449501038,-0.009729646146297455
1772796606917894700,5.102894775390625,-0.19925595819950104,-0.20701931416988373,-0.0624362975358963
1772796606927886600,5.112886474609375,-0.22765430808067322,-0.25248268246650696,-0.12582352757453918
1772796606937878500,5.12287841796875,-0.2557758092880249,-0.27386340498924255,-0.1971636712551117
1772796606947870500,5.132870361328125,-0.2706218659877777,-0.2739986777305603,-0.2655222415924072
1772796606957861000,5.142861083984375,-0.2717664837837219,-0.25999924540519714,-0.31890368461608887
1772796606967854000,5.15285400390625,-0.259205162525177,-0.22512754797935486,-0.35652831196784973
1772796606977846300,5.16284619140625,-0.23444834351539612,-0.17253363132476807,-0.36935457587242126
1772796606987838000,5.172837890625,-0.2041761875152588,-0.11800488084554672,-0.3608306050300598
1772796606997830100,5.182830078125,-0.18901966512203217,-0.07573626190423965,-0.3291236162185669
1772796607007822000,5.192822021484375,-0.1890985071659088,-0.05297502502799034,-0.28303948044776917
1772796607017814300,5.202814208984375,-0.1974228471517563,-0.03758539631962776,-0.22943544387817383
1772796607027806000,5.212805908203125,-0.20918574929237366,-0.04664573818445206,-0.17152075469493866
1772796607037798100,5.222798095703125,-0.223104789853096,-0.07053937762975693,-0.11672147363424301
1772796607047790000,5.2327900390625,-0.23336514830589294,-0.11624295264482498,-0.06887591630220413
1772796607057782300,5.2427822265625,-0.24581222236156464,-0.18068309128284454,-0.034408118575811386
1772796607067774000,5.25277392578125,-0.2593514919281006,-0.23271965980529785,-0.016110338270664215
1772796607077766100,5.26276611328125,-0.26798316836357117,-0.26137575507164,-0.008855435997247696
1772796607087758000,5.272758056640625,-0.2761673331260681,-0.2782450020313263,-0.010682630352675915
1772796607097750300,5.282750244140625,-0.28852275013923645,-0.29153335094451904,-0.021358055993914604
1772796607107742000,5.292741943359375,-0.2965657711029053,-0.31480351090431213,-0.03521554917097092
1772796607117735200,5.302735107421875,-0.29941144585609436,-0.3342754542827606,-0.051756251603364944
1772796607127727000,5.31272705078125,-0.2897931635379791,-0.3471803367137909,-0.06872351467609406
1772796607137719000,5.322718994140625,-0.2670719027519226,-0.35499197244644165,-0.08234516531229019
1772796607147711000,5.3327109375,-0.23112109303474426,-0.3533264398574829,-0.08732767403125763
1772796607157703200,5.342703125,-0.19626739621162415,-0.3335798680782318,-0.08338307589292526
1772796607167695000,5.352695068359375,-0.16572466492652893,-0.28810933232307434,-0.061088427901268005
1772796607177687300,5.362687255859375,-0.13455739617347717,-0.21099014580249786,-0.027362525463104248
1772796607187679000,5.372678955078125,-0.11718480288982391,-0.12356842309236526,0.01267437357455492
1772796607197671200,5.382671142578125,-0.11148987710475922,-0.041768163442611694,0.05526493117213249
1772796607207663000,5.3926630859375,-0.12660570442676544,0.027224749326705933,0.08159559965133667
1772796607217655300,5.4026552734375,-0.15922006964683533,0.07307758182287216,0.09806475788354874
1772796607227647000,5.41264697265625,-0.20097389817237854,0.08728314936161041,0.10182434320449829
1772796607237639200,5.42263916015625,-0.24223323166370392,0.06133296713232994,0.09001284092664719
1772796607247631000,5.432631103515625,-0.2733336091041565,0.01627282053232193,0.0629173144698143
1772796607257624000,5.4426240234375,-0.29603689908981323,-0.039316073060035706,0.02357415296137333
1772796607267616000,5.452615966796875,-0.30620884895324707,-0.11153008788824081,-0.010341735556721687
1772796607277608200,5.462608154296875,-0.3157863914966583,-0.20677417516708374,-0.04040899500250816
1772796607287600000,5.47260009765625,-0.3096747100353241,-0.3064533472061157,-0.05975579470396042
1772796607297592000,5.482592041015625,-0.2959411144256592,-0.3825194537639618,-0.07159338891506195
1772796607307584000,5.492583984375,-0.28365248441696167,-0.4292571246623993,-0.07607150077819824
1772796607317576200,5.502576171875,-0.27124714851379395,-0.4335155487060547,-0.07796446233987808
1772796607327568100,5.512568115234375,-0.2568466365337372,-0.40424686670303345,-0.08569429069757462
1772796607337560000,5.52256005859375,-0.2439841479063034,-0.39297959208488464,-0.08147402852773666
1772796607347552000,5.532552001953125,-0.2374439537525177,-0.42081788182258606,-0.06797180324792862
1772796607357544200,5.542544189453125,-0.24118126928806305,-0.447216659784317,-0.04850678890943527
1772796607367536000,5.5525361328125,-0.2516472339630127,-0.4561971127986908,-0.030591173097491264
1772796607377528000,5.562528076171875,-0.269408255815506,-0.4595525562763214,-0.007801203057169914
1772796607387520000,5.57252001953125,-0.2748703956604004,-0.4556153416633606,0.014742455445230007
1772796607397512200,5.58251220703125,-0.27942904829978943,-0.44239017367362976,0.04012193903326988
1772796607407505200,5.592505126953125,-0.27752992510795593,-0.42727914452552795,0.06193775683641434
1772796607417497000,5.6024970703125,-0.2700636684894562,-0.40644553303718567,0.0787077471613884
1772796607427489000,5.612489013671875,-0.2564852833747864,-0.38033777475357056,0.09444224089384079
1772796607437481200,5.622481201171875,-0.22916279733181,-0.34340745210647583,0.11179647594690323
1772796607447473200,5.63247314453125,-0.19705599546432495,-0.25748589634895325,0.1362440288066864
1772796607457465000,5.642465087890625,-0.15942925214767456,-0.09629946947097778,0.1657605916261673
1772796607467457000,5.65245703125,-0.1398499608039856,0.06005951389670372,0.16867037117481232
1772796607477449200,5.66244921875,-0.1504802405834198,0.11563895642757416,0.12639778852462769
1772796607487441200,5.672441162109375,-0.1834816038608551,0.050100959837436676,0.03109363652765751
1772796607497433000,5.68243310546875,-0.2170420140028,-0.06537596136331558,-0.08610346168279648
1772796607507425000,5.692425048828125,-0.22981639206409454,-0.17002807557582855,-0.1915220320224762
1772796607517417200,5.702417236328125,-0.19940723478794098,-0.213706836104393,-0.2698065936565399
1772796607527409200,5.7124091796875,-0.144114151597023,-0.18437424302101135,-0.3251577317714691
1772796607537401000,5.722401123046875,-0.08476564288139343,-0.11830928176641464,-0.35609203577041626
1772796607547394000,5.73239404296875,-0.03729267045855522,-0.03128623217344284,-0.36613723635673523
1772796607557386200,5.74238623046875,-0.012595392763614655,0.07413559406995773,-0.3553229570388794
1772796607567378000,5.7523779296875,0.0020285567734390497,0.1508527398109436,-0.3338019549846649
1772796607577370000,5.7623701171875,0.013660909608006477,0.1848601996898651,-0.2954810559749603
1772796607587362000,5.772362060546875,0.03384234756231308,0.1783841848373413,-0.24853989481925964
1772796607597354200,5.782354248046875,0.06665680557489395,0.144811749458313,-0.20074737071990967
1772796607607346200,5.79234619140625,0.1064167395234108,0.0979587584733963,-0.16016319394111633
1772796607617338000,5.802338134765625,0.1460016518831253,0.04052862897515297,-0.11918877810239792
1772796607627330000,5.812330078125,0.17974603176116943,-0.03277887403964996,-0.06586430221796036
1772796607637322200,5.822322265625,0.20970691740512848,-0.08823174238204956,-0.004120181780308485
1772796607647314200,5.832314208984375,0.23375418782234192,-0.11336106806993484,0.06830448657274246
1772796607657306000,5.84230615234375,0.25708556175231934,-0.09903619438409805,0.14556512236595154
1772796607667298000,5.852298095703125,0.2680833637714386,-0.06223716586828232,0.21839192509651184
1772796607677290000,5.8622900390625,0.27370786666870117,-0.01629636064171791,0.2744303047657013
1772796607687283000,5.872282958984375,0.27756786346435547,0.020668048411607742,0.31013795733451843
1772796607697275100,5.882275146484375,0.2846555709838867,0.037534307688474655,0.3404819071292877
1772796607707267000,5.89226708984375,0.2906162440776825,0.03467566892504692,0.3520248532295227
1772796607717259300,5.90225927734375,0.296927273273468,0.019014356657862663,0.3408476412296295
1772796607727251000,5.9122509765625,0.296772301197052,0.0071723442524671555,0.31162798404693604
1772796607737243100,5.9222431640625,0.2860677242279053,-0.009464423172175884,0.26844456791877747
1772796607747235000,5.932235107421875,0.28081250190734863,-0.03379399701952934,0.2251010686159134
1772796607757227300,5.942227294921875,0.27445653080940247,-0.03073083609342575,0.18116150796413422
1772796607767219000,5.952218994140625,0.2761460542678833,-0.011184297502040863,0.15242253243923187
1772796607777211100,5.962211181640625,0.28142648935317993,0.03557569906115532,0.13365086913108826
1772796607787203000,5.972203125,0.29176512360572815,0.09278039634227753,0.12793013453483582
1772796607797195300,5.9821953125,0.31047558784484863,0.16337397694587708,0.13450731337070465
1772796607807187200,5.992187255859375,0.32758691906929016,0.25106388330459595,0.14795415103435516
1772796607817179000,6.002178955078125,0.34296637773513794,0.33737707138061523,0.15704546868801117
1772796607827172000,6.012172119140625,0.352522075176239,0.39506301283836365,0.1690017431974411
1772796607837164300,6.022164306640625,0.34967076778411865,0.40368902683258057,0.1641499102115631
1772796607847156000,6.032156005859375,0.33849775791168213,0.3655456304550171,0.1500796377658844
1772796607857148200,6.042148193359375,0.31856799125671387,0.2907937169075012,0.12470434606075287
1772796607867140000,6.05214013671875,0.2910926938056946,0.1929531842470169,0.09484657645225525
1772796607877132300,6.06213232421875,0.2617815434932709,0.10516481101512909,0.05982939526438713
1772796607887124000,6.0721240234375,0.2289183884859085,0.043618094176054,0.023877784609794617
1772796607897116200,6.0821162109375,0.2015170156955719,0.012637408450245857,-0.010154984891414642
1772796607907108000,6.092108154296875,0.18639639019966125,0.014437705278396606,-0.02910577319562435
1772796607917100300,6.102100341796875,0.17986232042312622,0.049019914120435715,-0.03961833193898201
1772796607927092000,6.112092041015625,0.1796741783618927,0.09260248392820358,-0.03877589851617813
1772796607937084200,6.122084228515625,0.17839393019676208,0.12617744505405426,-0.03808412700891495
1772796607947076000,6.132076171875,0.17720909416675568,0.14637218415737152,-0.026536662131547928
1772796607957069000,6.142069091796875,0.17351661622524261,0.14994269609451294,-0.02401837706565857
1772796607967061500,6.1520615234375,0.1654301881790161,0.12520645558834076,-0.023016761988401413
1772796607977053400,6.162053466796875,0.1575060784816742,0.0973220020532608,-0.0231096800416708
1772796607987045600,6.172045654296875,0.1434648334980011,0.08125381916761398,-0.03625131770968437
1772796607997037300,6.182037353515625,0.13895165920257568,0.07628071308135986,-0.0532037578523159
1772796608007029200,6.192029296875,0.13305462896823883,0.09801104664802551,-0.0721641331911087
1772796608017021400,6.202021484375,0.13170038163661957,0.1292651742696762,-0.08942136913537979
1772796608027013400,6.212013427734375,0.14030958712100983,0.16161778569221497,-0.10945819318294525
1772796608037005300,6.22200537109375,0.14642420411109924,0.1798190474510193,-0.1274586021900177
1772796608046997200,6.231997314453125,0.16067957878112793,0.1742415875196457,-0.1504928171634674
1772796608056989400,6.241989501953125,0.17614221572875977,0.14752492308616638,-0.17285622656345367
1772796608066981400,6.2519814453125,0.1965886354446411,0.10183466225862503,-0.1935545802116394
1772796608076973300,6.261973388671875,0.22891727089881897,0.053307827562093735,-0.21433953940868378
1772796608086965200,6.27196533203125,0.26871952414512634,0.010458633303642273,-0.22803884744644165
1772796608096958500,6.28195849609375,0.3099648952484131,-0.009610962122678757,-0.2320116013288498
1772796608106950400,6.291950439453125,0.3482488989830017,-0.02081354893743992,-0.22447244822978973
1772796608116942300,6.3019423828125,0.38140326738357544,-0.012095555663108826,-0.198288232088089
1772796608126934500,6.3119345703125,0.40582525730133057,0.019149182364344597,-0.15675383806228638
1772796608136926500,6.321926513671875,0.4203229546546936,0.07108747959136963,-0.10705898702144623
1772796608146918400,6.33191845703125,0.43583959341049194,0.1207069605588913,-0.05324448645114899
1772796608156910300,6.341910400390625,0.46494489908218384,0.17072133719921112,0.008467692881822586
1772796608166902300,6.35190234375,0.4855116903781891,0.22771377861499786,0.059064824134111404
1772796608176894500,6.36189453125,0.49202001094818115,0.281487375497818,0.10123221576213837
1772796608186886400,6.371886474609375,0.48511046171188354,0.31740304827690125,0.13142341375350952
1772796608196878300,6.38187841796875,0.4751492142677307,0.32270365953445435,0.14386612176895142
1772796608206870300,6.391870361328125,0.4694564640522003,0.30850207805633545,0.14884597063064575
1772796608216862500,6.401862548828125,0.4699263870716095,0.29505273699760437,0.14216920733451843
1772796608226854400,6.4118544921875,0.46978071331977844,0.2938236892223358,0.12168949097394943
1772796608236847400,6.421847412109375,0.4629451036453247,0.3037298917770386,0.08383290469646454
1772796608246839600,6.431839599609375,0.462362140417099,0.3111795485019684,0.037953298538923264
1772796608256831500,6.44183154296875,0.46646615862846375,0.30347466468811035,-0.001984294503927231
1772796608266823400,6.451823486328125,0.4660229980945587,0.27525633573532104,-0.04657493159174919
1772796608276815400,6.4618154296875,0.465374618768692,0.23064842820167542,-0.08614325523376465
1772796608286807300,6.471807373046875,0.4593406915664673,0.18944694101810455,-0.12034623324871063
1772796608296799500,6.481799560546875,0.4411502480506897,0.17744368314743042,-0.1600269228219986
1772796608306791400,6.49179150390625,0.42169079184532166,0.18855199217796326,-0.18703590333461761
1772796608316783400,6.501783447265625,0.4169788658618927,0.2127758413553238,-0.20501144230365753
1772796608326775300,6.511775390625,0.4247712790966034,0.2459375113248825,-0.21337376534938812
1772796608336767500,6.521767578125,0.44182804226875305,0.28984683752059937,-0.21050718426704407
1772796608346759400,6.531759521484375,0.4680463373661041,0.3392215967178345,-0.1990601122379303
1772796608356751400,6.54175146484375,0.49514803290367126,0.3761683702468872,-0.18231520056724548
1772796608366743300,6.551743408203125,0.5272119641304016,0.390337735414505,-0.1516989767551422
1772796608376736500,6.561736572265625,0.5646286606788635,0.3958962559700012,-0.12389790266752243
1772796608386728400,6.571728515625,0.6087439656257629,0.3940964937210083,-0.09131572395563126
1772796608396720400,6.581720458984375,0.6675753593444824,0.402081698179245,-0.06846041232347488
1772796608406712600,6.591712646484375,0.7247515320777893,0.40913161635398865,-0.042467691004276276
1772796608416704500,6.60170458984375,0.7651930451393127,0.4122657775878906,-0.023584047332406044
1772796608426696200,6.6116962890625,0.7918835282325745,0.40903642773628235,-0.007615733426064253
1772796608436688400,6.6216884765625,0.8134623765945435,0.40661925077438354,0.0025668139569461346
1772796608446680300,6.631680419921875,0.8320677280426025,0.3959788680076599,0.001957216300070286
1772796608456672500,6.641672607421875,0.8577286005020142,0.37162673473358154,-0.002534156199544668
1772796608466664200,6.651664306640625,0.8861367702484131,0.32148316502571106,-0.01425978820770979
1772796608476656400,6.661656494140625,0.914128303527832,0.27289700508117676,-0.018895164132118225
1772796608486648300,6.6716484375,0.9331871867179871,0.23741093277931213,-0.02470751293003559
1772796608496640500,6.681640625,0.9580499529838562,0.22958917915821075,-0.02820909395813942
1772796608506632400,6.691632568359375,0.9809488654136658,0.2493618130683899,-0.03000992350280285
1772796608516625400,6.70162548828125,1.0082446336746216,0.2773590087890625,-0.0358797088265419
1772796608526617600,6.71161767578125,1.0405080318450928,0.29257631301879883,-0.039104532450437546
1772796608536609500,6.721609619140625,1.0785268545150757,0.30464836955070496,-0.04539543390274048
1772796608546601200,6.731601318359375,1.1028354167938232,0.3056875467300415,-0.04515734687447548
1772796608556593400,6.741593505859375,1.1243126392364502,0.2906535267829895,-0.03612412512302399
1772796608566585300,6.75158544921875,1.1392605304718018,0.2655787765979767,-0.02061120793223381
1772796608576577500,6.76157763671875,1.1604558229446411,0.2511292099952698,0.003394274041056633
1772796608586569200,6.7715693359375,1.189315676689148,0.25515830516815186,0.031693022698163986
1772796608596561400,6.7815615234375,1.2169253826141357,0.2789117395877838,0.05797792226076126
1772796608606553300,6.79155322265625,1.2423261404037476,0.31207793951034546,0.08180709183216095
1772796608616545500,6.801545654296875,1.2659577131271362,0.37236443161964417,0.09888794273138046
1772796608626537200,6.811537109375,1.2975060939788818,0.4397357404232025,0.10341637581586838
1772796608636529400,6.821529296875,1.3322676420211792,0.5118264555931091,0.10729054361581802
1772796608646522600,6.831522705078125,1.358084797859192,0.5864492654800415,0.09417793899774551
1772796608656514300,6.841514404296875,1.3956739902496338,0.6251397728919983,0.07539178431034088
1772796608666506500,6.851506591796875,1.4414870738983154,0.6438722014427185,0.060009900480508804
1772796608676498400,6.86149853515625,1.4823400974273682,0.6513636112213135,0.04419891536235809
1772796608686490400,6.871490478515625,1.4983177185058594,0.616510808467865,0.033624567091464996
1772796608696482300,6.881482421875,1.470495343208313,0.523604691028595,0.008274978958070278
1772796608706474200,6.89147412109375,1.4153833389282227,0.3852761387825012,-0.030536066740751266
1772796608716466400,6.901466552734375,1.343675136566162,0.2267823964357376,-0.08388359099626541
1772796608726458400,6.911458251953125,1.2767783403396606,0.09936612844467163,-0.1481667011976242
1772796608736450600,6.921450439453125,1.2377262115478516,0.022556627169251442,-0.19621901214122772
1772796608746442200,6.931442138671875,1.2375853061676025,0.00419146753847599,-0.23969563841819763
1772796608756434400,6.941434326171875,1.2642874717712402,0.038935013115406036,-0.2403849959373474
1772796608766426400,6.95142626953125,1.293224573135376,0.11032930016517639,-0.20825767517089844
1772796608776418600,6.96141845703125,1.3312878608703613,0.15917660295963287,-0.17036764323711395
1772796608786411500,6.97141162109375,1.3859548568725586,0.1794259399175644,-0.15327228605747223
1772796608796403500,6.981403564453125,1.4551764726638794,0.14162209630012512,-0.15923362970352173
1772796608806395600,6.991395751953125,1.5153697729110718,0.05783797800540924,-0.1718737930059433
1772796608816387300,7.00138720703125,1.5624120235443115,-0.04301745444536209,-0.1702323704957962
1772796608826379300,7.011379150390625,1.5858821868896484,-0.13191643357276917,-0.1461470127105713
1772796608836371500,7.021371337890625,1.598023533821106,-0.18561021983623505,-0.1013355478644371
