time,seconds_elapsed,z,y,x
1772721158997342500,0.094342529296875,0,0,0
1772721159015940000,0.112940185546875,0.09237003326416016,0.05170083045959473,-0.026190996170043945
1772721159034537700,0.131537841796875,0.09208869934082031,0.12394177913665771,-0.06773710250854492
1772721159053135600,0.150135498046875,-0.09583377838134766,0.2170237898826599,0.19415026903152466
1772721159071733200,0.168733154296875,-0.2852048873901367,0.29667913913726807,0.7243180274963379
1772721159090331000,0.187330810546875,-0.4668445587158203,0.04986374080181122,0.9261652231216431
1772721159108928500,0.205928466796875,-0.32185840606689453,-0.0907931923866272,0.6864507794380188
1772721159127526400,0.2245263671875,-0.11580562591552734,0.0530017614364624,0.46158140897750854
1772721159146124000,0.2431240234375,-0.21604633331298828,0.19037672877311707,0.5374420285224915
1772721159164721700,0.2617216796875,-0.6393136978149414,0.46832239627838135,0.6438034176826477
1772721159183319600,0.280319580078125,-1.262618064880371,0.7336417436599731,0.49522098898887634
1772721159201917200,0.298917236328125,-1.928208827972412,0.8347673416137695,0.5625255703926086
1772721159220514800,0.317514892578125,-1.8625445365905762,0.7536075115203857,1.0379644632339478
1772721159239112400,0.336112548828125,-0.5656576156616211,0.7166122198104858,0.8851590156555176
1772721159257710300,0.35471044921875,0.8786067962646484,0.8993733525276184,0.6626360416412354
1772721159276308000,0.373307861328125,1.7081823348999023,0.5938224792480469,0.9908428192138672
1772721159294905600,0.391905517578125,1.8069658279418945,-0.09236165881156921,1.5623821020126343
1772721159313503200,0.410503173828125,0.7902965545654297,0.015423744916915894,0.9361730217933655
1772721159332101000,0.42910107421875,-0.24442768096923828,0.5246569514274597,0.9526715278625488
1772721159350698500,0.447698486328125,-0.9452791213989258,0.9783847332000732,1.0185885429382324
1772721159369296400,0.46629638671875,-1.5065622329711914,1.2048323154449463,1.0800477266311646
1772721159387894000,0.48489404296875,-0.7504177093505859,0.8654655814170837,0.31942465901374817
1772721159406491600,0.50349169921875,0.22412872314453125,0.5315839052200317,-1.1244724988937378
1772721159425089300,0.52208935546875,0.5471792221069336,0.4595855474472046,-0.19877517223358154
1772721159443687200,0.540687255859375,0.4340963363647461,1.1475677490234375,-0.06450217962265015
1772721159462284800,0.559284912109375,0.1568002700805664,1.3031150102615356,0.41686439514160156
1772721159480882400,0.57788232421875,-0.05305194854736328,1.0455822944641113,0.6256750822067261
1772721159499480000,0.59647998046875,0.29285240173339844,0.705811619758606,0.4282742142677307
1772721159518077700,0.61507763671875,0.37979602813720703,0.6255788803100586,0.07851243019104004
1772721159536675300,0.63367529296875,0.35057926177978516,0.7010049819946289,0.48402392864227295
1772721159555273000,0.65227294921875,0.4544095993041992,0.4763859808444977,0.8049802184104919
1772721159573870600,0.67087060546875,0.7493762969970703,0.6479550004005432,0.5661901831626892
1772721159592468200,0.68946826171875,0.3245859146118164,0.7111910581588745,0.5507681369781494
1772721159611066000,0.708066162109375,0.22210216522216797,0.7178002595901489,0.37261730432510376
1772721159629663700,0.726663818359375,0.11978340148925781,0.8817931413650513,-0.27863413095474243
1772721159648261400,0.745261474609375,0.0736846923828125,0.4276280105113983,-0.42745161056518555
1772721159666859000,0.76385888671875,0.24835586547851562,0.12967407703399658,-0.6009837985038757
1772721159685456600,0.78245654296875,0.29421424865722656,-0.12007898092269897,-0.603098452091217
1772721159704054300,0.80105419921875,-0.2958965301513672,0.41597801446914673,-1.1568450927734375
1772721159722652000,0.81965185546875,-0.5182666778564453,0.6584295034408569,-0.6688401699066162
1772721159741249500,0.83824951171875,-0.2513713836669922,0.7790687084197998,-0.013750612735748291
1772721159759847200,0.85684716796875,0.01645946502685547,0.750417947769165,0.4344561696052551
1772721159778444800,0.87544482421875,-0.022988319396972656,0.6687419414520264,0.39947569370269775
1772721159797042400,0.89404248046875,-0.49299144744873047,0.3818778991699219,-0.10807082056999207
1772721159815640000,0.91264013671875,-0.6786527633666992,0.055213332176208496,-0.42902666330337524
1772721159834237700,0.93123779296875,-0.4322214126586914,-0.2681887149810791,-0.33262625336647034
1772721159852835300,0.94983544921875,0.12203311920166016,-0.5611119270324707,-0.4460846781730652
1772721159871433000,0.968432861328125,0.4839029312133789,-0.8113636374473572,-0.5515826344490051
1772721159890030600,0.987030517578125,0.8050117492675781,-0.849098265171051,-0.6269203424453735
1772721159908628200,1.005628173828125,1.2053794860839844,-0.8767920732498169,-0.9141835570335388
1772721159927225900,1.024225830078125,1.9781217575073242,-0.8453994989395142,-0.5771408677101135
1772721159945823500,1.042823486328125,1.8682003021240234,-0.630280613899231,-0.21259409189224243
1772721159964421000,1.061421142578125,1.380356788635254,-0.7929890155792236,-0.37597501277923584
1772721159983018800,1.080018798828125,0.617131233215332,-1.1110516786575317,-0.481687068939209
1772721160001616400,1.098616455078125,-0.29747962951660156,-1.275649070739746,0.14024215936660767
1772721160020214000,1.117214111328125,-0.9913520812988281,-1.4158308506011963,0.6445599794387817
1772721160038811600,1.135811767578125,-1.3468961715698242,-1.4564794301986694,0.7725675702095032
1772721160057409000,1.154408935546875,-1.273834228515625,-1.4359803199768066,0.7468857169151306
1772721160076006700,1.173006591796875,-1.1693544387817383,-1.2863227128982544,0.9488845467567444
1772721160094604500,1.1916044921875,-0.26866722106933594,-1.2718864679336548,1.153733730316162
1772721160113202200,1.2102021484375,0.6057214736938477,-1.2419835329055786,0.5035083293914795
1772721160131799600,1.228799560546875,1.2475786209106445,-1.148457407951355,-0.2305423617362976
1772721160150397200,1.247397216796875,1.550704002380371,-0.9301875233650208,-0.3803069591522217
1772721160168994800,1.265994873046875,1.5795669555664062,-0.9675514698028564,0.07410359382629395
1772721160187592400,1.284592529296875,1.2239437103271484,-1.0438759326934814,0.511898398399353
1772721160206190000,1.303190185546875,0.6449480056762695,-1.013208270072937,0.8488602042198181
1772721160224787500,1.321787353515625,0.14427947998046875,-0.990135133266449,1.0316985845565796
1772721160243385000,1.340385009765625,-0.265716552734375,-0.8178565502166748,0.9416030645370483
1772721160261982700,1.358982666015625,-0.47766685485839844,-0.4650585651397705,0.7501331567764282
1772721160280580400,1.377580322265625,-0.3599224090576172,-0.28087425231933594,0.327785462141037
1772721160299178000,1.396177978515625,-0.19093990325927734,-0.1892695426940918,-0.1161268800497055
1772721160317775600,1.414775634765625,-0.15693950653076172,-0.17988801002502441,-0.4495928883552551
1772721160336373200,1.433373291015625,-0.4558858871459961,-0.23885762691497803,-0.616971492767334
1772721160354971000,1.451970947265625,-0.8635654449462891,-0.20620405673980713,-0.7380630373954773
1772721160373568300,1.470568359375,-1.4563226699829102,-0.23436594009399414,-0.8275256156921387
1772721160392166000,1.489165771484375,-2.026003360748291,-0.344268262386322,-0.744484543800354
1772721160410763500,1.507763427734375,-2.3776893615722656,-0.3649393320083618,-0.3474832773208618
1772721160429361200,1.526361083984375,-1.976731777191162,-0.264886736869812,0.14986580610275269
1772721160447958500,1.54495849609375,-1.5590391159057617,-0.12029552459716797,0.6762836575508118
1772721160466556200,1.56355615234375,-1.1480722427368164,-0.08957993984222412,0.8960832357406616
1772721160485153800,1.58215380859375,-1.305251121520996,-0.18772196769714355,0.8726602792739868
1772721160503751400,1.60075146484375,-1.3066701889038086,-0.0022391080856323242,0.7855113744735718
1772721160522349000,1.61934912109375,-0.6174764633178711,0.3030751943588257,0.4722684621810913
1772721160540946400,1.637946533203125,0.7007713317871094,0.6571614742279053,0.18686556816101074
1772721160559544000,1.6565439453125,1.683156967163086,0.9374854564666748,0.5352519154548645
1772721160578141700,1.6751416015625,1.7073097229003906,1.1002271175384521,1.427063226699829
1772721160596739300,1.6937392578125,1.0258636474609375,1.3495640754699707,2.277512311935425
1772721160615337000,1.7123369140625,0.21995258331298828,1.5135529041290283,2.8452022075653076
1772721160633934300,1.730934326171875,-0.30851078033447266,1.3481135368347168,2.440523386001587
1772721160652532000,1.749531982421875,0.5696430206298828,0.5582072138786316,1.7540717124938965
1772721160671129600,1.768129638671875,1.37664794921875,0.06629699468612671,1.1415480375289917
1772721160689727000,1.78672705078125,1.7338409423828125,-0.22100913524627686,0.041384875774383545
1772721160708324600,1.80532470703125,2.0814828872680664,-0.839349091053009,-1.5891557931900024
1772721160726922200,1.823922119140625,1.8561086654663086,-1.035691499710083,-2.7474217414855957
1772721160745519900,1.842519775390625,1.5256824493408203,-1.0443962812423706,-2.578336477279663
1772721160764117200,1.8611171875,1.6490774154663086,-1.1288847923278809,-1.2769877910614014
1772721160782715000,1.87971484375,1.4624977111816406,-1.3357150554656982,0.34722471237182617
1772721160801312500,1.8983125,-0.005931854248046875,-1.678887128829956,1.2666821479797363
1772721160819910000,1.916909912109375,-1.3681564331054688,-2.1347808837890625,1.4867784976959229
1772721160838507500,1.935507568359375,-3.0512003898620605,-2.28487229347229,1.2004859447479248
1772721160857105200,1.954105224609375,-3.593808174133301,-2.376274824142456,0.6195521950721741
1772721160875702800,1.972702880859375,-2.892977714538574,-2.2889516353607178,-0.5419921875
1772721160894300200,1.991300048828125,-0.9296998977661133,-1.9910991191864014,-1.0483734607696533
1772721160912897800,2.009897705078125,0.8072223663330078,-1.766369342803955,-1.5173578262329102
1772721160931495200,2.0284951171875,1.0351924896240234,-1.5155267715454102,-1.743761658668518
1772721160950092800,2.0470927734375,-0.07027435302734375,-1.3170068264007568,-1.5858346223831177
1772721160968690400,2.0656904296875,-0.9645853042602539,-1.0251798629760742,-1.4050252437591553
1772721160987287800,2.084287841796875,-0.6256847381591797,-0.8136292695999146,-1.379528284072876
1772721161005885400,2.102885498046875,0.5579118728637695,-0.8016752600669861,-1.7970740795135498
1772721161024483000,2.121483154296875,1.6839723587036133,-0.8873515725135803,-1.9970253705978394
1772721161043080400,2.14008056640625,2.0598526000976562,-0.9414086937904358,-1.2183547019958496
1772721161061678000,2.158677978515625,1.3484039306640625,-0.9156268835067749,0.14251315593719482
1772721161080275700,2.177275634765625,0.5829076766967773,-0.5527299642562866,1.7310537099838257
1772721161098873000,2.195873046875,-0.34641075134277344,-0.3444247841835022,3.039879322052002
1772721161117470700,2.214470703125,-1.5171823501586914,-0.5567346215248108,2.435183048248291
1772721161136068000,2.233068115234375,-1.8501472473144531,-1.0193768739700317,0.25851237773895264
1772721161154665700,2.251665771484375,-1.2938652038574219,-1.1818310022354126,-1.4609882831573486
1772721161173263000,2.27026318359375,-0.4275331497192383,-0.9391452074050903,-2.0688037872314453
1772721161191860700,2.28886083984375,-0.1947031021118164,-0.8002108335494995,-2.3567097187042236
1772721161210458400,2.307458251953125,-0.29934024810791016,-0.7933961153030396,-2.0071873664855957
1772721161229055700,2.3260556640625,-0.7295160293579102,-0.6866818070411682,-1.39604651927948
1772721161247653400,2.3446533203125,-0.08731746673583984,-0.5035696029663086,-0.30357837677001953
1772721161266250800,2.363250732421875,0.7214155197143555,0.0060631632804870605,1.4109336137771606
1772721161284848400,2.381848388671875,0.7888708114624023,0.1172858476638794,2.2571396827697754
1772721161303446000,2.400446044921875,0.596989631652832,-0.18873748183250427,1.9096131324768066
1772721161322043400,2.41904345703125,0.30584144592285156,-0.42152148485183716,0.554738461971283
1772721161340641000,2.43764111328125,0.03750038146972656,-0.3849603831768036,-0.9821000099182129
1772721161359238400,2.45623828125,-0.09591102600097656,-0.2598293423652649,-2.3468194007873535
1772721161377836000,2.4748359375,0.19430255889892578,-0.09983819723129272,-2.995872974395752
1772721161396433400,2.493433349609375,0.17970848083496094,0.24518096446990967,-2.6749162673950195
1772721161415030800,2.51203076171875,-0.05946540832519531,0.553682804107666,-1.7873296737670898
1772721161433628400,2.53062841796875,-0.7539758682250977,0.6294519305229187,-0.44568681716918945
1772721161452225800,2.549225830078125,-1.0255012512207031,0.1038811206817627,0.3156241178512573
1772721161470823400,2.567823486328125,-0.5344371795654297,-0.8856531381607056,0.07959538698196411
1772721161489420800,2.5864208984375,0.254364013671875,-1.454725980758667,0.17090368270874023
1772721161508018400,2.605018310546875,0.8297615051269531,-1.7349251508712769,-0.16568654775619507
1772721161526615800,2.62361572265625,0.5552682876586914,-2.047257661819458,-0.021995842456817627
1772721161545213400,2.64221337890625,-0.3131256103515625,-1.2058560848236084,0.7734407186508179
1772721161563810800,2.660810791015625,-0.9265737533569336,-0.731243371963501,1.198476791381836
1772721161582408400,2.679408447265625,-1.1728363037109375,-0.8592643141746521,0.708742618560791
1772721161601005800,2.698005859375,-0.9091711044311523,-1.0521374940872192,-0.19229251146316528
1772721161619603500,2.716603515625,-0.5706386566162109,-0.9763841032981873,-0.5493766665458679
1772721161638200800,2.735200927734375,-0.00270843505859375,-0.7552748918533325,-0.5185133218765259
1772721161656798500,2.753798583984375,0.7761631011962891,-0.6479863524436951,-0.34037697315216064
1772721161675395800,2.772395751953125,0.8607015609741211,-1.186108112335205,-0.43250006437301636
1772721161693993500,2.790993408203125,0.06860637664794922,-1.3450286388397217,-0.37777048349380493
1772721161712590800,2.8095908203125,-0.4714365005493164,-1.0785738229751587,-0.27476513385772705
1772721161731188200,2.828188232421875,0.060832977294921875,-0.703079342842102,-0.21003806591033936
1772721161749785900,2.846785888671875,1.2747373580932617,-0.2808593809604645,0.026468753814697266
1772721161768383200,2.86538330078125,2.2556676864624023,0.0868343710899353,0.1562948226928711
1772721161786980900,2.88398095703125,2.476804733276367,0.2192288041114807,0.13527274131774902
1772721161805578200,2.902578125,1.2748432159423828,0.3913828134536743,-0.17985814809799194
1772721161824175600,2.921175537109375,-0.3390026092529297,0.3317236304283142,-0.45908641815185547
1772721161842773200,2.939773193359375,-1.139491081237793,0.36205005645751953,-0.5184520483016968
1772721161861370600,2.95837060546875,-1.498927116394043,0.5107945203781128,-0.6401119828224182
1772721161879968000,2.976968017578125,-1.2718267440795898,0.853831946849823,-0.38226139545440674
1772721161898565600,2.995565673828125,-0.6216154098510742,1.2965196371078491,0.14215326309204102
1772721161917163000,3.0141630859375,-0.011605262756347656,1.5939266681671143,0.6409485340118408
1772721161935760400,3.032760498046875,0.47222137451171875,1.7825796604156494,1.2530875205993652
1772721161954358000,3.05135791015625,0.8566322326660156,1.4245634078979492,1.2958778142929077
1772721161972955400,3.069955322265625,0.7626943588256836,0.9326469302177429,0.4401569366455078
1772721161991552800,3.088552734375,0.42276668548583984,0.7554108500480652,0.17095860838890076
1772721162010150400,3.107150390625,-0.18898773193359375,0.8491910099983215,-0.031353890895843506
1772721162028747800,3.125747802734375,-0.6318902969360352,1.0247108936309814,-0.09009632468223572
1772721162047345400,3.144345458984375,-0.42763328552246094,1.0004067420959473,-0.26951518654823303
1772721162065942800,3.16294287109375,0.1841297149658203,1.0502839088439941,-0.5009907484054565
1772721162084540200,3.1815400390625,0.37131404876708984,1.1456420421600342,-0.5733188390731812
1772721162103137800,3.2001376953125,0.2193460464477539,1.378347396850586,-0.3898901045322418
1772721162121735200,3.218735107421875,-0.3020439147949219,1.5284433364868164,-0.03656095266342163
1772721162140332500,3.23733251953125,-1.0914592742919922,1.4689915180206299,0.1262926161289215
1772721162158930000,3.255929931640625,-1.5624275207519531,1.343196988105774,0.16162091493606567
1772721162177527600,3.274527587890625,-1.186441421508789,1.1167755126953125,0.0788847804069519
1772721162196125000,3.293125,-0.5277242660522461,0.9396059513092041,0.09891372919082642
1772721162214722300,3.311722412109375,-0.3043251037597656,1.1850640773773193,0.2453089952468872
1772721162233319700,3.330319580078125,-0.24837017059326172,1.280165195465088,0.9008962512016296
1772721162251917000,3.3489169921875,-0.1552753448486328,1.2032982110977173,1.050289273262024
1772721162270514700,3.3675146484375,-0.1159200668334961,1.1248987913131714,0.7355131506919861
1772721162289112000,3.386112060546875,-0.08857059478759766,1.119208812713623,0.41782432794570923
1772721162307709400,3.40470947265625,-0.26968955993652344,1.2148113250732422,0.15751022100448608
1772721162326307000,3.42330712890625,-0.6933002471923828,1.4836297035217285,0.30376994609832764
1772721162344904400,3.441904541015625,-1.031270980834961,1.5860286951065063,0.7013167142868042
1772721162363501800,3.460501708984375,-0.9054183959960938,1.581761360168457,0.8150957822799683
1772721162382099200,3.47909912109375,-0.6750202178955078,1.4758331775665283,0.6598919630050659
1772721162400696600,3.497696533203125,-0.19519615173339844,1.4883921146392822,0.689628005027771
1772721162419294200,3.516294189453125,0.6154241561889648,1.5447096824645996,0.7794950008392334
1772721162437891600,3.5348916015625,1.1248998641967773,1.6918644905090332,0.9161929488182068
1772721162456489000,3.553489013671875,1.089064598083496,1.9255998134613037,1.239753007888794
1772721162475086300,3.57208642578125,0.7599000930786133,1.9989013671875,1.5403985977172852
1772721162493683700,3.59068359375,0.7210664749145508,1.9184579849243164,1.75186026096344
1772721162512281300,3.60928125,1.1222362518310547,1.5146665573120117,1.535463571548462
1772721162530878700,3.627878662109375,1.6334962844848633,1.0369915962219238,0.9409077167510986
1772721162549476000,3.64647607421875,2.4488725662231445,0.7086479663848877,0.5137388110160828
1772721162568073500,3.665073486328125,2.6395416259765625,0.2879863381385803,0.08169493079185486
1772721162586670800,3.6836708984375,2.21297550201416,-0.0870242714881897,-0.9788109064102173
1772721162605268200,3.702268310546875,1.5412445068359375,-0.7692989110946655,-1.5985901355743408
1772721162623865600,3.720865478515625,0.2697420120239258,-1.3775635957717896,-1.7480499744415283
1772721162642463000,3.739462890625,-1.0955581665039062,-1.7728642225265503,-1.167218565940857
1772721162661060600,3.758060546875,-1.2255287170410156,-1.8675789833068848,-0.1759992241859436
1772721162679658000,3.776657958984375,-1.520212173461914,-1.5811975002288818,-0.21136796474456787
1772721162698255400,3.79525537109375,-2.229769706726074,-2.2454984188079834,-0.06415760517120361
1772721162716852700,3.813852783203125,-2.1794872283935547,-2.1878812313079834,0.43771427869796753
1772721162735450000,3.8324501953125,-1.8164997100830078,-1.8176000118255615,0.5750762820243835
1772721162754047500,3.851047607421875,-1.3253192901611328,-1.3492152690887451,0.5244157910346985
1772721162772644900,3.869644775390625,-1.105454444885254,-1.0041637420654297,0.3999626636505127
1772721162791242200,3.8882421875,-1.0155706405639648,-0.7403922080993652,-0.027399063110351562
1772721162809839900,3.90683984375,-0.7482938766479492,-0.7919769287109375,-0.8580194711685181
1772721162828437200,3.925437255859375,-0.3673696517944336,-0.9783366918563843,-1.8796499967575073
1772721162847034600,3.94403466796875,0.05848121643066406,-0.9064743518829346,-2.2726569175720215
1772721162865632000,3.962632080078125,0.4575328826904297,-0.4958733916282654,-2.168452262878418
1772721162884229400,3.9812294921875,0.8104610443115234,-0.28299885988235474,-1.8965792655944824
1772721162902826800,3.99982666015625,1.0382795333862305,-0.20647847652435303,-1.6318224668502808
1772721162921424100,4.018424072265625,0.7646951675415039,-0.27546143531799316,-1.5585025548934937
1772721162940021500,4.037021484375,0.2959003448486328,-0.3063013553619385,-1.7589623928070068
1772721162958619000,4.055618896484375,-0.21886825561523438,-0.31835711002349854,-1.623356580734253
1772721162977216300,4.07421630859375,-0.5099058151245117,-0.34778791666030884,-1.3848154544830322
1772721162995813600,4.092813720703125,-0.9323244094848633,-0.37993496656417847,-0.9369992017745972
1772721163014411000,4.111410888671875,-1.1026697158813477,-0.2523089051246643,-0.49928778409957886
1772721163033008400,4.13000830078125,-0.7620553970336914,-0.2043800950050354,-0.1692327857017517
1772721163051605800,4.148605712890625,-0.5067300796508789,-0.07457327842712402,-0.23488903045654297
1772721163070203100,4.167203125,-0.35649681091308594,0.0604022741317749,-0.48602306842803955
1772721163088800500,4.185800537109375,0.41705322265625,0.1868063509464264,-0.5497675538063049
1772721163107398000,4.20439794921875,1.1016349792480469,0.08727461099624634,-0.4079819917678833
1772721163125995300,4.222995361328125,0.9254274368286133,-0.049034297466278076,-0.25055670738220215
1772721163144592600,4.241592529296875,0.4149484634399414,0.053564220666885376,0.3258844017982483
1772721163163190000,4.26018994140625,0.06838512420654297,0.3433248698711395,1.3215383291244507
1772721163181787400,4.278787353515625,-0.27217674255371094,0.5929244756698608,2.0788192749023438
1772721163200384800,4.297384765625,-0.3436460494995117,0.6281626224517822,2.2475216388702393
1772721163218982100,4.315982177734375,-0.006033897399902344,0.6935974359512329,1.88333261013031
1772721163237579500,4.33457958984375,0.15385150909423828,0.6663763523101807,1.2302201986312866
1772721163256177000,4.353177001953125,0.3021678924560547,0.6907365918159485,0.5628570318222046
1772721163274774300,4.371774169921875,0.47054004669189453,0.7833670377731323,-0.1997394561767578
1772721163293371600,4.39037158203125,0.2066946029663086,0.7187085151672363,-0.6815230846405029
1772721163311969000,4.408968994140625,-0.13347625732421875,0.7625322341918945,-0.8406025171279907
1772721163330566100,4.427566162109375,-0.39414024353027344,0.894022524356842,-0.5829344987869263
1772721163349163500,4.44616357421875,-0.5769147872924805,1.0755417346954346,-0.27531182765960693
1772721163367761000,4.464760986328125,-0.25513553619384766,1.2271591424942017,-0.06055951118469238
1772721163386358300,4.483358154296875,0.4451303482055664,1.240631341934204,-0.0759894847869873
1772721163404955600,4.50195556640625,0.8956785202026367,1.0933390855789185,-0.09838128089904785
1772721163423553000,4.520552978515625,0.7472057342529297,0.9963472485542297,-0.15456390380859375
1772721163442150400,4.539150390625,-0.05489349365234375,0.958689272403717,-0.15291213989257812
1772721163460747800,4.557747802734375,-0.5526409149169922,0.9227471351623535,-0.25267696380615234
1772721163479345200,4.57634521484375,-0.7951374053955078,0.8115493059158325,-0.6180334091186523
1772721163497942300,4.5949423828125,-0.4486370086669922,0.653221607208252,-1.313504695892334
1772721163516539600,4.61353955078125,0.389373779296875,0.25055229663848877,-1.9572103023529053
1772721163535137000,4.632136962890625,1.1523427963256836,-0.019803255796432495,-1.8214101791381836
1772721163553734400,4.650734375,0.3932819366455078,-0.17234516143798828,-1.5546000003814697
1772721163572331800,4.669331787109375,-0.9262361526489258,-0.17789268493652344,-0.9617946147918701
1772721163590929200,4.68792919921875,-1.3226022720336914,-0.2074340581893921,-0.021820783615112305
1772721163609526300,4.7065263671875,-1.0008010864257812,-0.11748623847961426,0.6845098733901978
1772721163628123600,4.72512353515625,-0.5617380142211914,0.13436806201934814,0.5859147906303406
1772721163646721000,4.743720947265625,0.5093345642089844,0.06046813726425171,0.4441024661064148
1772721163665318400,4.762318359375,1.9404983520507812,-0.2165898084640503,0.11353790760040283
1772721163683915800,4.780915771484375,2.79526424407959,-0.507220447063446,-0.1094592809677124
1772721163702513000,4.799512939453125,2.387378692626953,-0.8148869276046753,-0.40627145767211914
1772721163721110300,4.8181103515625,1.0325279235839844,-1.054872989654541,-0.5396374464035034
1772721163739707600,4.836707763671875,-0.09830284118652344,-1.2433725595474243,-0.688737154006958
1772721163758304800,4.8553046875,-0.7307271957397461,-1.4904412031173706,-0.8383023738861084
1772721163776902100,4.873902099609375,-0.7871551513671875,-1.6038594245910645,-0.7702943682670593
1772721163795499500,4.89249951171875,-0.5934715270996094,-1.3561322689056396,0.11406594514846802
1772721163814097000,4.911096923828125,-0.22141075134277344,-1.0416505336761475,1.535095453262329
1772721163832694000,4.929694091796875,-0.6343173980712891,-0.6046823263168335,2.6932272911071777
1772721163851291400,4.94829150390625,-0.7801008224487305,-0.6326981782913208,3.365077495574951
1772721163869888800,4.966888671875,0.2245950698852539,-0.6814120411872864,2.8580386638641357
1772721163888486100,4.985486083984375,1.2941837310791016,-0.7358702421188354,1.6105715036392212
1772721163907083500,5.00408349609375,1.993143081665039,-1.0029510259628296,-0.1437433958053589
1772721163925680600,5.0226806640625,1.9940423965454102,-1.2106151580810547,-1.6902540922164917
1772721163944278000,5.041278076171875,1.6839914321899414,-1.231341004371643,-2.10098934173584
1772721163962875400,5.05987548828125,0.6661643981933594,-0.8759488463401794,-1.672852635383606
1772721163981472500,5.078472412109375,-0.5009384155273438,-0.2961692810058594,-0.5280895233154297
1772721164000070000,5.09706982421875,-1.4564800262451172,0.0452120304107666,0.5778982639312744
1772721164018667300,5.115667236328125,-1.7100229263305664,0.3208824396133423,1.3270758390426636
1772721164037264400,5.134264404296875,-1.322554588317871,0.36190664768218994,1.5219696760177612
1772721164055861800,5.15286181640625,-0.4207611083984375,0.271062970161438,1.106297254562378
1772721164074459100,5.171459228515625,0.2857799530029297,0.19560909271240234,0.5362859964370728
1772721164093056300,5.19005615234375,0.775547981262207,0.16292691230773926,0.19221782684326172
1772721164111653600,5.208653564453125,0.3576393127441406,0.19190549850463867,0.11115235090255737
1772721164130250800,5.227250732421875,-0.6877508163452148,0.13415777683258057,0.16082632541656494
1772721164148848000,5.24584814453125,-1.4979009628295898,0.2984659671783447,0.5110493898391724
1772721164167445500,5.264445556640625,-1.5483074188232422,0.6705454587936401,1.1076873540878296
1772721164186042600,5.283042724609375,-1.2252655029296875,1.1576532125473022,1.75895357131958
1772721164204640000,5.301639892578125,-1.0462207794189453,1.246944785118103,1.7109333276748657
1772721164223237000,5.320237060546875,-0.5661211013793945,1.392034888267517,1.5732697248458862
1772721164241834500,5.33883447265625,-0.4371671676635742,1.3633850812911987,1.0938152074813843
1772721164260431600,5.357431640625,-0.7107362747192383,1.2006237506866455,0.6657027006149292
1772721164279029000,5.376029052734375,-1.022562026977539,1.25484299659729,0.4799894690513611
1772721164297626000,5.394626220703125,-0.8796730041503906,1.464245080947876,0.6998810768127441
1772721164316223500,5.413223388671875,0.055413246154785156,1.72080659866333,1.085784673690796
1772721164334820900,5.43182080078125,1.4178876876831055,1.9352375268936157,1.5528465509414673
1772721164353418000,5.45041796875,2.313157081604004,1.380679965019226,1.7593517303466797
1772721164372015400,5.469015380859375,2.765888214111328,0.36433959007263184,1.1269078254699707
1772721164390612500,5.487612548828125,2.6044130325317383,-0.403958797454834,0.35185521841049194
1772721164409209900,5.5062099609375,1.909195899963379,-0.6468236446380615,-0.39270734786987305
1772721164427807000,5.524806884765625,0.50689697265625,-0.6660140752792358,-0.9047867059707642
1772721164446404400,5.543404296875,0.29064083099365234,-0.7880918383598328,-1.3200734853744507
1772721164465001500,5.56200146484375,0.7100210189819336,-0.9265220761299133,-1.557637095451355
1772721164483598800,5.580598876953125,1.0003690719604492,-1.0697143077850342,-1.2808959484100342
1772721164502196200,5.5991962890625,0.4468498229980469,-1.1907848119735718,-0.8844704627990723
1772721164520793300,5.61779345703125,-0.43113136291503906,-1.68135404586792,-0.45753276348114014
1772721164539390700,5.636390625,-1.4086732864379883,-2.0626325607299805,-0.5228240489959717
1772721164557987800,5.65498779296875,-2.615279197692871,-2.160221576690674,-0.7774885296821594
1772721164576585000,5.6735849609375,-2.8865933418273926,-2.2058539390563965,-0.5371203422546387
1772721164595182300,5.692182373046875,-1.790414810180664,-1.9474663734436035,-0.12365084886550903
1772721164613779500,5.710779541015625,-0.6526479721069336,-1.3829264640808105,0.4248591661453247
1772721164632376800,5.729376953125,-0.2077779769897461,-0.9809503555297852,0.42483916878700256
1772721164650974000,5.747973876953125,-0.32601261138916016,-1.1722018718719482,-0.0961449146270752
1772721164669571300,5.7665712890625,-0.5260210037231445,-1.3916916847229004,-0.8349610567092896
1772721164688168400,5.78516845703125,-0.4657773971557617,-1.7180218696594238,-1.5694587230682373
1772721164706765800,5.803765869140625,-0.19682788848876953,-1.777970314025879,-1.8504900932312012
1772721164725363000,5.822363037109375,0.1431255340576172,-1.2744176387786865,-1.1778209209442139
1772721164743960000,5.8409599609375,0.13230323791503906,-0.7311651110649109,-0.19925236701965332
1772721164762557400,5.859557373046875,-0.25157642364501953,-0.6519494652748108,0.10294806957244873
1772721164781154600,5.878154541015625,-0.6558732986450195,-0.722001314163208,-0.13493716716766357
1772721164799752000,5.896751953125,-0.5637083053588867,-0.6522145867347717,-0.2788883447647095
1772721164818349000,5.91534912109375,0.5362825393676758,-0.8649927377700806,-0.6300971508026123
1772721164836946400,5.933946533203125,1.6426582336425781,-0.8884826898574829,-1.0510632991790771
1772721164855543600,5.95254345703125,2.051237106323242,-1.144896149635315,-1.571457028388977
1772721164874140700,5.971140625,1.8873777389526367,-1.1329748630523682,-1.692400336265564
1772721164892737800,5.98973779296875,1.0047903060913086,-0.9789739847183228,-1.2157423496246338
1772721164911335200,6.008335205078125,-0.29970550537109375,-0.7760385870933533,-0.7348079681396484
1772721164929932300,6.026932373046875,-1.1284351348876953,-0.4508710205554962,-0.09117770195007324
1772721164948529700,6.04552978515625,-1.451857566833496,-0.35650190711021423,0.44092023372650146
1772721164967126800,6.064126708984375,-1.1697301864624023,-0.5203773379325867,0.25961583852767944
1772721164985724200,6.08272412109375,-0.7598657608032227,-0.5711689591407776,0.039414405822753906
1772721165004321300,6.1013212890625,-0.46578502655029297,-0.6447856426239014,-0.2508186101913452
1772721165022918400,6.11991845703125,-0.3074941635131836,-0.5987823605537415,-0.14132893085479736
1772721165041515500,6.138515625,-0.2214069366455078,-0.5091678500175476,-0.11786174774169922
1772721165060113000,6.15711279296875,0.07773876190185547,-0.46549901366233826,-0.014321327209472656
1772721165078710000,6.1757099609375,0.3762187957763672,-0.5690809488296509,-0.02367532253265381
1772721165097307100,6.19430712890625,0.7157306671142578,-0.6467119455337524,-0.15598011016845703
1772721165115904500,6.212904541015625,0.8316450119018555,-0.5885488390922546,-0.22751355171203613
1772721165134501600,6.231501708984375,0.7986679077148438,-0.3529977798461914,-0.2052903175354004
1772721165153098800,6.2500986328125,0.852168083190918,-0.30667394399642944,-0.4357205629348755
1772721165171696000,6.268696044921875,0.5779438018798828,-0.5492525696754456,-0.528212308883667
1772721165190293200,6.287293212890625,0.05431365966796875,-0.745076060295105,-0.9527509212493896
1772721165208890400,6.305890380859375,-0.13204383850097656,-0.7759741544723511,-1.142102599143982
1772721165227487500,6.324487548828125,0.024066925048828125,-0.2712897062301636,-0.528820276260376
1772721165246084900,6.3430849609375,0.3071012496948242,0.07042068243026733,-0.3027033805847168
1772721165264682000,6.361681884765625,0.5441408157348633,0.14090180397033691,-0.7746038436889648
1772721165283279000,6.380279052734375,0.4103069305419922,-0.20329225063323975,-1.5456663370132446
1772721165301876200,6.398876220703125,0.021982192993164062,-0.430050790309906,-1.8571887016296387
1772721165320473600,6.4174736328125,-0.5641746520996094,-0.33368217945098877,-2.021198034286499
1772721165339070700,6.43607080078125,-0.9720916748046875,-0.17236179113388062,-1.5783135890960693
1772721165357667800,6.454667724609375,-1.055964469909668,0.1267240047454834,-0.9011526107788086
1772721165376265000,6.473264892578125,-1.049203872680664,0.21142202615737915,-0.46251463890075684
1772721165394862000,6.491862060546875,-0.4392232894897461,-0.256381094455719,-0.43428516387939453
1772721165413459500,6.51045947265625,0.13074588775634766,-0.6810019016265869,-0.9866143465042114
1772721165432056600,6.529056640625,0.4152259826660156,-0.7467525601387024,-1.0059798955917358
1772721165450653700,6.54765380859375,0.3522911071777344,-0.813472330570221,-0.648879885673523
1772721165469250800,6.566250732421875,-0.0336761474609375,-0.8874369859695435,-0.27569901943206787
1772721165487848200,6.58484814453125,-0.36900901794433594,-0.864215612411499,0.05798757076263428
1772721165506445000,6.603445068359375,-0.6894960403442383,-0.7161424160003662,0.2565528154373169
1772721165525042400,6.62204248046875,-1.002762794494629,-0.7294349670410156,0.08771622180938721
1772721165543639600,6.6406396484375,-1.2882757186889648,-0.7450867295265198,-0.6173017024993896
1772721165562236700,6.659236572265625,-1.0938596725463867,-0.5987291932106018,-1.1474692821502686
1772721165580833800,6.677833740234375,-0.8516578674316406,-0.6738405227661133,-1.683979868888855
1772721165599431000,6.696430908203125,-0.5478391647338867,-0.47691071033477783,-1.7135144472122192
1772721165618028300,6.7150283203125,-0.3970527648925781,-0.24619430303573608,-1.4714136123657227
1772721165636625400,6.73362548828125,-0.3051290512084961,0.04091912508010864,-0.8522886633872986
1772721165655222500,6.752222412109375,-0.30119991302490234,0.17252784967422485,-0.28208285570144653
1772721165673819600,6.770819580078125,-0.08312416076660156,0.13278526067733765,0.11716610193252563
1772721165692416800,6.789416748046875,0.06679248809814453,0.1868044137954712,-0.09543710947036743
1772721165711014000,6.808013916015625,0.2257843017578125,0.38555288314819336,0.0663222074508667
1772721165729611000,6.826611083984375,0.11249160766601562,0.6214052438735962,0.01703929901123047
1772721165748208000,6.8452080078125,0.16549396514892578,0.6121883988380432,0.2544246315956116
1772721165766805500,6.863805419921875,0.3469696044921875,0.6103494167327881,0.19268223643302917
1772721165785402600,6.882402587890625,0.22348690032958984,0.3833102583885193,-0.23287266492843628
1772721165803999700,6.900999755859375,-0.07250595092773438,0.3267538547515869,-0.18136775493621826
1772721165822596900,6.919596923828125,-0.051856040954589844,0.441087007522583,0.5317480564117432
1772721165841194000,6.938194091796875,0.33920860290527344,0.5433026552200317,1.6851892471313477
1772721165859791000,6.956791015625,0.6036834716796875,0.6475041508674622,2.302112340927124
1772721165878388200,6.97538818359375,0.9948387145996094,0.7301725745201111,2.1109070777893066
1772721165896985300,6.9939853515625,1.755692481994629,0.8490279912948608,1.2797794342041016
1772721165915582500,7.01258251953125,2.3140869140625,0.8321671485900879,-0.13640278577804565
1772721165934179600,7.0311796875,2.3168210983276367,0.8231090903282166,-0.8326836824417114
1772721165952776700,7.049776611328125,1.3281984329223633,0.968078076839447,-0.811800479888916
1772721165971373800,7.068373779296875,0.16262149810791016,1.2243402004241943,-0.33837246894836426
1772721165989971000,7.086970947265625,-0.43238162994384766,1.34306001663208,0.22430825233459473
1772721166008568300,7.105568359375,-0.2881927490234375,1.3707735538482666,0.5970644354820251
1772721166027165200,7.124165283203125,-0.39064788818359375,1.282557725906372,0.5962022542953491
1772721166045762600,7.142762451171875,-0.5661048889160156,1.1306099891662598,0.291562557220459
1772721166064359700,7.161359619140625,-0.7229328155517578,0.8722487092018127,-0.06623446941375732
1772721166082956500,7.17995654296875,-0.7621555328369141,0.7860731482505798,0.06742978096008301
1772721166101554000,7.198553955078125,-0.65447998046875,0.7090003490447998,0.20516514778137207
1772721166120150800,7.21715087890625,-0.4763479232788086,0.5509670972824097,0.04336434602737427
1772721166138748000,7.235747802734375,-0.42876434326171875,0.3407304883003235,-0.1237037181854248
1772721166157345300,7.25434521484375,-0.5178699493408203,0.19158607721328735,0.04186534881591797
1772721166175942100,7.272942138671875,-0.5591659545898438,0.014969587326049805,0.29207658767700195
1772721166194539300,7.291539306640625,-0.39820003509521484,-0.15680986642837524,0.30398982763290405
1772721166213136600,7.31013671875,-0.08147716522216797,-0.25294333696365356,0.46510255336761475
1772721166231733500,7.3287333984375,0.19329071044921875,-0.396961510181427,0.5663883686065674
1772721166250330600,7.34733056640625,0.15859603881835938,-0.4711425304412842,0.768126368522644
1772721166268928000,7.365927978515625,-0.4684333801269531,-0.4180110692977905,0.7736944556236267
1772721166287524900,7.38452490234375,-1.0793037414550781,-0.3585719168186188,0.9741374254226685
1772721166306122000,7.4031220703125,-1.2851438522338867,-0.23423415422439575,1.2586926221847534
1772721166324719000,7.421718994140625,-1.2195606231689453,0.07113072276115417,1.3142995834350586
1772721166343316200,7.440316162109375,-0.5989503860473633,0.5416932106018066,1.3354425430297852
1772721166361913300,7.458913330078125,0.0632638931274414,0.7312030792236328,1.1855970621109009
1772721166380510500,7.477510498046875,0.5507650375366211,0.9681856632232666,1.1641615629196167
1772721166399107600,7.496107666015625,0.7737646102905273,1.098333477973938,1.0546672344207764
1772721166417704700,7.51470458984375,0.7964115142822266,1.294715404510498,0.786185085773468
1772721166436301800,7.5333017578125,0.7728643417358398,1.6595202684402466,0.6049281358718872
1772721166454899000,7.55189892578125,0.6962509155273438,1.8838351964950562,0.4638320207595825
1772721166473496000,7.57049609375,0.6545324325561523,1.9947068691253662,0.6511101722717285
1772721166492093200,7.58909326171875,0.5890712738037109,1.9275747537612915,0.8437038660049438
1772721166510690300,7.607690185546875,0.6775531768798828,2.0198371410369873,0.6222484111785889
1772721166529287200,7.626287109375,0.734130859375,2.0280003547668457,0.4273563623428345
1772721166547884300,7.64488427734375,0.5810518264770508,1.976667046546936,0.8426750302314758
1772721166566481400,7.6634814453125,0.042038917541503906,1.7115622758865356,0.9249533414840698
1772721166585078500,7.68207861328125,-0.25636768341064453,1.1425755023956299,0.42514342069625854
1772721166603675600,7.700675537109375,0.1761798858642578,0.663791298866272,0.0891600251197815
1772721166622272800,7.719272705078125,1.0552120208740234,0.404060035943985,0.3111315369606018
1772721166640870000,7.737869873046875,1.7329902648925781,0.10221391916275024,0.4915500283241272
1772721166659466800,7.756466796875,1.7805843353271484,-0.352443665266037,0.3873942494392395
1772721166678063900,7.77506396484375,1.5751590728759766,-0.9412126541137695,0.19792795181274414
1772721166696661000,7.793660888671875,0.9818019866943359,-1.326997995376587,0.08537763357162476
1772721166715258000,7.812258056640625,0.17481231689453125,-1.4427284002304077,-0.004659771919250488
1772721166733855200,7.830855224609375,-0.6428890228271484,-1.3651525974273682,0.04364258050918579
1772721166752452400,7.849452392578125,-1.2547168731689453,-1.1319053173065186,-0.09323841333389282
1772721166771049500,7.868049560546875,-1.5181026458740234,-1.1116544008255005,-0.3299078345298767
1772721166789646300,7.886646240234375,-1.264939308166504,-1.0657832622528076,-0.7389737367630005
1772721166808243500,7.905243408203125,-1.0985946655273438,-1.1417328119277954,-1.2009068727493286
1772721166826840600,7.923840576171875,-1.3715143203735352,-1.0775492191314697,-1.4516139030456543
1772721166845437700,7.942437744140625,-1.4099302291870117,-1.1466588973999023,-1.421878457069397
1772721166864034600,7.96103466796875,-1.1677637100219727,-1.1596848964691162,-1.1965590715408325
1772721166882631700,7.979631591796875,-0.9208154678344727,-1.1005988121032715,-1.0640774965286255
1772721166901228800,7.998228759765625,-0.5547704696655273,-1.0409364700317383,-1.1134870052337646
1772721166919826000,8.016825927734375,-0.16920185089111328,-0.952023983001709,-1.0701518058776855
1772721166938423000,8.035423095703125,0.3435983657836914,-0.9251295924186707,-1.2481567859649658
1772721166957020200,8.054020263671875,0.5212812423706055,-0.8028627634048462,-1.6498498916625977
1772721166975617000,8.072616943359375,0.4686746597290039,-0.523639976978302,-1.903754472732544
1772721166994214100,8.091214111328124,0.5641927719116211,-0.23140454292297363,-1.9051265716552734
1772721167012811300,8.109811279296874,0.4633769989013672,-0.036368727684020996,-1.8501039743423462
1772721167031408400,8.128408447265626,0.09015750885009766,-0.026407480239868164,-1.944794774055481
1772721167050005200,8.147005126953125,-0.32698822021484375,-0.12983840703964233,-2.046825408935547
1772721167068602400,8.165602294921875,-0.5757722854614258,-0.31992822885513306,-1.890641450881958
1772721167087199500,8.184199462890625,-0.8933229446411133,-0.4061981737613678,-1.2601009607315063
1772721167105796400,8.20279638671875,-1.2797584533691406,-0.3032723665237427,-0.42530322074890137
1772721167124393500,8.2213935546875,-0.6696662902832031,-0.2211722731590271,0.11768031120300293
1772721167142990600,8.239990478515624,0.2847585678100586,0.026191353797912598,0.8102563619613647
1772721167161587500,8.25858740234375,0.09344959259033203,0.23982840776443481,1.1142933368682861
1772721167180184600,8.2771845703125,-0.40320396423339844,0.3153030276298523,1.1781079769134521
1772721167198781700,8.29578173828125,-0.45516014099121094,0.27050602436065674,0.7945124506950378
1772721167217378800,8.31437890625,-0.09359169006347656,0.3173583447933197,0.20156174898147583
1772721167235975700,8.3329755859375,0.48253917694091797,0.5818284153938293,-0.33698397874832153
1772721167254572800,8.35157275390625,0.9317169189453125,0.7327786087989807,-0.5465397834777832
1772721167273170000,8.370169921875,1.1963996887207031,0.6136144399642944,-0.3238065242767334
1772721167291767000,8.38876708984375,-0.3109760284423828,0.16688036918640137,0.1765737533569336
1772721167310364000,8.407364013671875,0.05069923400878906,0.9360675811767578,-0.17967021465301514
1772721167328961000,8.4259609375,0.1690664291381836,0.3319868743419647,0.3401891589164734
1772721167347558000,8.444557861328125,0.18022441864013672,0.3946453630924225,0.36009907722473145
1772721167366155000,8.463155029296875,0.18386459350585938,0.4546809494495392,0.16772079467773438
1772721167384752000,8.481752197265624,0.0012712478637695312,0.3387683033943176,0.16076040267944336
1772721167403349200,8.500349365234374,-0.4327239990234375,0.3253867030143738,0.100258469581604
1772721167421946000,8.518946044921876,-0.983551025390625,0.49010950326919556,0.04197835922241211
1772721167440543200,8.537543212890625,-1.0315933227539062,0.8618778586387634,-0.1192331314086914
1772721167459140400,8.556140380859375,-0.19080448150634766,0.9898747801780701,-0.525241494178772
1772721167477737200,8.5747373046875,0.6839628219604492,1.228115200996399,-0.13962483406066895
1772721167496334300,8.593334228515625,1.177861213684082,1.4093432426452637,0.07608270645141602
1772721167514931200,8.61193115234375,1.444718360900879,1.1884338855743408,0.3482329845428467
1772721167533528300,8.6305283203125,1.0650739669799805,0.9926219582557678,0.31062841415405273
1772721167552125400,8.64912548828125,0.25188541412353516,0.875994086265564,-0.026881814002990723
1772721167570722300,8.667722412109375,-0.5485382080078125,0.27499932050704956,-0.688631534576416
1772721167589319400,8.6863193359375,-0.5030765533447266,-0.17109015583992004,-1.6451160907745361
1772721167607916500,8.70491650390625,-0.17212486267089844,-0.14233994483947754,-2.0076844692230225
1772721167626513400,8.723513427734375,0.25067996978759766,-0.1345764398574829,-1.6162900924682617
1772721167645110500,8.742110595703124,0.47484683990478516,-0.22948884963989258,-0.8631162047386169
1772721167663707400,8.760707275390626,0.13728809356689453,-0.4501042366027832,-0.42351233959198
1772721167682304500,8.779304443359376,-0.27150726318359375,-0.7407193779945374,-0.2800752520561218
1772721167700901600,8.797901611328125,-0.5823917388916016,-0.6537999510765076,-0.1746654510498047
1772721167719498500,8.81649853515625,-0.9207210540771484,-0.5081608295440674,0.1192326545715332
1772721167738095600,8.835095703125,-1.1528682708740234,-0.6172733306884766,0.23965436220169067
1772721167756692500,8.8536923828125,-0.8121252059936523,-0.8378232717514038,0.21019715070724487
1772721167775289600,8.87228955078125,-0.30931949615478516,-0.9506489634513855,0.06407332420349121
1772721167793886500,8.890886474609376,-0.09274005889892578,-0.915965735912323,-0.15571630001068115
1772721167812483600,8.909483642578126,0.3780536651611328,-0.9648570418357849,-0.43051719665527344
1772721167831080700,8.928080810546875,1.397374153137207,-0.8546860814094543,-0.4853031635284424
1772721167849677600,8.946677490234375,2.3615331649780273,-1.1682404279708862,-0.23474574089050293
1772721167868274400,8.9652744140625,2.654219627380371,-1.109265685081482,0.3327842950820923
1772721167886871600,8.98387158203125,1.8969154357910156,-0.8438059091567993,0.6941317319869995
1772721167905468700,9.00246875,0.6823549270629883,-0.8673465251922607,1.2689682245254517
1772721167924065500,9.0210654296875,-0.5180130004882812,-0.8004967570304871,2.005486011505127
1772721167942662700,9.03966259765625,-1.4763507843017578,-0.47699034214019775,2.4641053676605225
1772721167961259500,9.058259521484375,-1.337240219116211,0.0052602291107177734,2.9283626079559326
1772721167979856600,9.076856689453125,-0.3687162399291992,0.2502171993255615,2.835513114929199
1772721167998453500,9.09545361328125,0.9038181304931641,0.33835792541503906,2.042802333831787
1772721168017050600,9.114050537109375,1.7761335372924805,0.3176196813583374,1.0576419830322266
1772721168035647500,9.1326474609375,2.0572690963745117,0.20215082168579102,0.2550058960914612
1772721168054244600,9.15124462890625,1.6755905151367188,0.09399235248565674,-0.40836846828460693
1772721168072841500,9.169841552734376,1.0101652145385742,0.03982734680175781,-0.8609340190887451
1772721168091438600,9.1884384765625,0.22985076904296875,-0.11780679225921631,-1.1067599058151245
1772721168110035500,9.207035400390625,-0.4598093032836914,-0.34705841541290283,-1.1197930574417114
1772721168128632600,9.225632568359375,-0.8638648986816406,-0.4723837375640869,-1.0454429388046265
1772721168147229400,9.2442294921875,-1.292893409729004,-0.4163973331451416,-0.6293167471885681
1772721168165826300,9.262826416015624,-1.7416467666625977,-0.1795581579208374,-0.06429421901702881
1772721168184423400,9.28142333984375,-1.7941350936889648,-0.0024541616439819336,0.3179214298725128
1772721168203020300,9.300020263671875,-1.708695411682129,0.25672733783721924,0.6525189280509949
1772721168221617400,9.318617431640625,-0.7459011077880859,0.4626113176345825,1.1436842679977417
1772721168240214300,9.33721435546875,-0.17558670043945312,0.5268856287002563,1.208359956741333
1772721168258811400,9.355811279296875,-0.48035717010498047,0.572670578956604,0.9686421751976013
1772721168277408300,9.374408203125,-0.6426010131835938,0.7075221538543701,1.0217232704162598
1772721168296005400,9.39300537109375,-0.4443016052246094,0.9613240957260132,1.0022211074829102
1772721168314602200,9.411602294921876,0.2257833480834961,1.1925770044326782,0.913458526134491
1772721168333199400,9.430199462890625,0.7469892501831055,1.351630687713623,0.585127592086792
1772721168351796200,9.448796142578125,0.3939657211303711,1.3122283220291138,0.30328333377838135
1772721168370393000,9.46739306640625,-0.2285604476928711,1.1821366548538208,0.21738201379776
1772721168388990200,9.485990234375,-0.876246452331543,1.0049736499786377,0.211794912815094
1772721168407587000,9.504587158203124,-1.0557003021240234,0.9979252815246582,0.528179943561554
1772721168426184000,9.523183837890626,-0.9249200820922852,0.9663854837417603,1.0405817031860352
1772721168444781000,9.541781005859375,-0.21545791625976562,0.944015622138977,1.3268033266067505
1772721168463378000,9.5603779296875,0.07314300537109375,0.8504328727722168,1.4856541156768799
1772721168481975000,9.57897509765625,0.21088886260986328,0.6685197353363037,1.3504160642623901
1772721168500572000,9.597572021484375,0.21703529357910156,0.4848520755767822,1.129621982574463
1772721168519168800,9.616168701171874,0.2609090805053711,0.55794358253479,1.2466282844543457
1772721168537766000,9.634765869140624,0.38574886322021484,0.7703069448471069,1.4745622873306274
1772721168556362800,9.65336279296875,0.3750743865966797,0.7632613182067871,1.9011825323104858
1772721168574959900,9.6719599609375,1.1261215209960938,0.7841469049453735,1.4213768243789673
1772721168593556700,9.690556640625,2.177898406982422,0.5673514604568481,0.7931517362594604
1772721168612153600,9.709153564453125,2.302165985107422,0.2186565399169922,0.30959552526474
1772721168630750700,9.727750732421875,1.897038459777832,-0.04025411605834961,-0.06280261278152466
1772721168649347600,9.74634765625,1.3136510848999023,-0.4227710962295532,-0.6974053978919983
1772721168667944400,9.7649443359375,0.5117149353027344,-0.7065008878707886,-1.4463443756103516
1772721168686541300,9.783541259765625,0.4833250045776367,-0.920062780380249,-1.6053855419158936
1772721168705138400,9.802138427734375,-0.14797401428222656,-1.2959198951721191,-1.3008816242218018
1772721168723735300,9.8207353515625,-0.6333951950073242,-1.4009615182876587,-1.1168532371520996
1772721168742332200,9.839332275390625,-1.2354192733764648,-1.349856972694397,-0.5292243957519531
1772721168760929300,9.85792919921875,-1.4154443740844727,-1.1345551013946533,0.16767838597297668
1772721168779526100,9.876526123046874,-1.2170963287353516,-0.9830619096755981,0.7807258367538452
1772721168798123000,9.895123046875,-1.0113792419433594,-1.1452486515045166,0.9501467943191528
1772721168816720000,9.913719970703125,-1.0006217956542969,-1.503273844718933,0.6508158445358276
1772721168835317000,9.93231689453125,-1.4127130508422852,-1.6673598289489746,-0.11717075109481812
1772721168853913900,9.950913818359375,-1.716775894165039,-1.4782248735427856,-0.7837830781936646
1772721168872510700,9.9695107421875,-1.4737720489501953,-1.218785047531128,-0.9415122866630554
1772721168891107800,9.98810791015625,-0.6119623184204102,-0.7510254383087158,-1.1529923677444458
1772721168909704700,10.00670458984375,0.5949172973632812,-0.7438918948173523,-1.1610819101333618
1772721168928301600,10.025301513671875,1.7312393188476562,-0.6852652430534363,-0.9653859734535217
1772721168946898400,10.0438984375,1.8949880599975586,-0.6132634878158569,-0.14070868492126465
1772721168965495600,10.06249560546875,0.9767971038818359,-0.4922032952308655,0.11980849504470825
1772721168984092400,10.081092529296875,-0.47571659088134766,-0.5888692736625671,-0.13631387054920197
1772721169002689300,10.099689208984374,-1.8699169158935547,-0.6887292861938477,-0.7360140085220337
1772721169021286100,10.1182861328125,-1.7633304595947266,-0.711211621761322,-1.020086646080017
1772721169039883000,10.136883056640626,-0.5439977645874023,-0.5779498815536499,-1.5722663402557373
1772721169058480000,10.155480224609375,0.5393285751342773,-0.951198160648346,-1.5278596878051758
1772721169077077000,10.174076904296875,1.0726966857910156,-0.8586877584457397,-1.161030650138855
1772721169095673900,10.192673828125,0.7916727066040039,-0.698511004447937,-0.8332049250602722
1772721169114270700,10.211270751953125,0.036281585693359375,-0.4371846318244934,-0.659592866897583
1772721169132867600,10.22986767578125,-0.38031005859375,-0.20167291164398193,-0.23447412252426147
1772721169151464700,10.248464599609376,0.03479766845703125,-0.10760046541690826,0.11600887775421143
1772721169170061600,10.2670615234375,0.1642618179321289,0.1173018217086792,0.15358886122703552
1772721169188658400,10.285658447265625,0.043150901794433594,0.24090592563152313,-0.05103054642677307
1772721169207255300,10.30425537109375,-0.016242027282714844,0.09508857131004333,-0.36885374784469604
1772721169225852200,10.32285205078125,-0.07704544067382812,0.010501235723495483,-0.4405520558357239
1772721169244449000,10.341448974609374,-0.3332071304321289,0.08063708245754242,-0.3069184422492981
1772721169263046000,10.3600458984375,-0.5005626678466797,0.3783732056617737,-0.17264044284820557
1772721169281643000,10.37864306640625,-0.56683349609375,0.6420833468437195,0.15605789422988892
1772721169300240000,10.397239990234375,-0.42974853515625,0.8659713268280029,0.6839308738708496
1772721169318836700,10.415836669921875,0.1536397933959961,0.6592292785644531,1.1271716356277466
1772721169337433600,10.43443359375,0.8652153015136719,0.31853386759757996,0.9455186724662781
1772721169356030700,10.45303076171875,0.8595418930053711,0.37652748823165894,0.657564103603363
1772721169374627600,10.471627685546874,0.21155834197998047,0.5413626432418823,0.3496568202972412
1772721169393224400,10.490224365234376,-0.1798267364501953,0.6742193102836609,-0.061806440353393555
1772721169411821300,10.5088212890625,-0.005641937255859375,0.6605783700942993,-0.5424667596817017
1772721169430418200,10.527418212890625,0.4863166809082031,0.7317134737968445,-0.5691806077957153
1772721169449015000,10.54601513671875,0.6989898681640625,0.7601926922798157,-0.6682690382003784
1772721169467612000,10.56461181640625,0.6729564666748047,0.5692399740219116,-0.7991164326667786
1772721169486208800,10.583208740234374,0.6720790863037109,0.3663983941078186,-0.5270219445228577
1772721169504805600,10.6018056640625,0.5720891952514648,0.25982096791267395,-0.3439640402793884
1772721169523402500,10.620402587890625,0.32415103912353516,0.07400158792734146,-0.38326776027679443
1772721169541999400,10.638999267578125,0.48655033111572266,-0.6008253693580627,-0.5611050724983215
1772721169560596200,10.65759619140625,0.5279989242553711,-1.0532351732254028,-0.5810913443565369
1772721169579193000,10.676193115234375,0.15400981903076172,-1.3669201135635376,-0.6297797560691833
1772721169597790000,10.6947900390625,-0.19197559356689453,-1.6660943031311035,-0.3510006070137024
1772721169616387000,10.713386962890626,-0.7670183181762695,-1.2611548900604248,0.15912500023841858
1772721169634984000,10.73198388671875,-0.6653556823730469,-0.6939458847045898,0.4563891589641571
1772721169653580800,10.750580810546875,0.37259387969970703,-0.6084652543067932,0.3520866632461548
1772721169672177700,10.769177734375,1.0729074478149414,-0.7661452293395996,0.16896039247512817
1772721169690774500,10.7877744140625,1.4797449111938477,-1.0978436470031738,-0.3818467855453491
1772721169709371400,10.806371337890624,1.6150999069213867,-1.3579131364822388,-0.47245585918426514
1772721169727968300,10.82496826171875,1.0992603302001953,-1.410404920578003,-0.0560566782951355
1772721169746565000,10.843565185546876,0.3440399169921875,-1.1340768337249756,0.05784440040588379
1772721169765162000,10.862161865234375,-0.5444059371948242,-0.9867645502090454,0.33841338753700256
1772721169783758800,10.8807587890625,-0.9575824737548828,-0.9409295320510864,0.7264374494552612
1772721169802355700,10.899355712890625,-1.1089820861816406,-0.8574737906455994,1.5106959342956543
1772721169820952600,10.91795263671875,-0.7724199295043945,-1.1822710037231445,1.7398676872253418
1772721169839549400,10.936549560546876,-0.4237833023071289,-1.228820562362671,1.2369194030761719
1772721169858146300,10.955146240234376,0.023046493530273438,-0.723383367061615,0.8696225881576538
1772721169876743200,10.9737431640625,0.32445716857910156,-0.2732689380645752,1.3941336870193481
1772721169895340000,10.992340087890625,0.31758689880371094,-0.16599667072296143,1.7680292129516602
1772721169913936600,11.0109365234375,0.2928171157836914,-0.3158112168312073,1.0992021560668945
1772721169932533500,11.029533447265624,-0.096710205078125,-0.2864187955856323,0.485250324010849
1772721169951130400,11.04813037109375,-0.317535400390625,-0.175318643450737,0.46790945529937744
1772721169969727500,11.0667275390625,-0.21326446533203125,0.389305055141449,0.5775772333145142
1772721169988324400,11.085324462890625,-0.16213035583496094,0.08157698065042496,0.260468065738678
1772721170006921000,11.1039208984375,-0.03175640106201172,-0.11181280761957169,-0.3719485402107239
1772721170025517800,11.122517822265625,0.25756359100341797,-0.01672675460577011,-0.9465269446372986
1772721170044114700,11.14111474609375,1.027944564819336,0.14939837157726288,-0.9075000882148743
1772721170062711600,11.159711669921874,0.9214334487915039,0.22602929174900055,-1.0620687007904053
1772721170081308400,11.178308349609376,0.32038021087646484,0.2840624749660492,-1.2855660915374756
1772721170099905300,11.1969052734375,-0.3813915252685547,0.16479603946208954,-0.9292912483215332
1772721170118502100,11.215502197265625,-0.7891407012939453,0.24221770465373993,-0.764894425868988
1772721170137099000,11.23409912109375,-0.6487569808959961,0.6701202392578125,-0.4164189398288727
1772721170155695900,11.25269580078125,-0.8025245666503906,1.0532838106155396,0.6137404441833496
1772721170174292700,11.271292724609374,-1.2807073593139648,1.213426113128662,1.2800294160842896
1772721170192889300,11.289889404296876,-1.175278663635254,0.6854273080825806,1.222003698348999
1772721170211486200,11.308486328125,-0.5586795806884766,0.8247710466384888,0.4265156388282776
1772721170230083000,11.3270830078125,-0.0479278564453125,0.9752840399742126,1.3152146339416504
1772721170248680000,11.345679931640625,-0.2541475296020508,0.9542250037193298,1.691334843635559
