time,seconds_elapsed,z,y,x
1772721158997342500,0.094342529296875,0.0821613147854805,-0.1521816849708557,0.20166173577308655
1772721159015940000,0.112940185546875,0.08857539296150208,-0.3427715003490448,0.23770275712013245
1772721159034537700,0.131537841796875,0.11942406743764877,-0.2963457703590393,0.2407570779323578
1772721159053135600,0.150135498046875,0.20616686344146729,-0.07796161621809006,0.1992182731628418
1772721159071733200,0.168733154296875,0.20647229254245758,0.09246965497732162,0.1931096315383911
1772721159090331000,0.187330810546875,0.1539379209280014,0.12056943774223328,0.1937204897403717
1772721159108928500,0.205928466796875,0.1178968995809555,0.1657734364271164,0.251752644777298
1772721159127526400,0.2245263671875,0.10537417232990265,0.24426954984664917,0.37514734268188477
1772721159146124000,0.2431240234375,0.12431098520755768,0.3862956166267395,0.48449212312698364
1772721159164721700,0.2617216796875,0.18906265497207642,0.376827210187912,0.5180897116661072
1772721159183319600,0.280319580078125,0.29596397280693054,0.22075125575065613,0.42615455389022827
1772721159201917200,0.298917236328125,0.2813032269477844,0.03962985426187515,0.15431971848011017
1772721159220514800,0.317514892578125,0.02871064469218254,0.04512763395905495,-0.19448406994342804
1772721159239112400,0.336112548828125,-0.18753549456596375,0.18501566350460052,-0.48220139741897583
1772721159257710300,0.35471044921875,-0.2263254076242447,0.09613484144210815,-0.630641520023346
1772721159276308000,0.373307861328125,-0.27000224590301514,0.19204062223434448,-0.3820195496082306
1772721159294905600,0.391905517578125,-0.45937031507492065,0.23602287471294403,0.019929463043808937
1772721159313503200,0.410503173828125,-0.5803215503692627,0.12789981067180634,0.13080142438411713
1772721159332101000,0.42910107421875,-0.536339282989502,0.19417864084243774,0.0034361144062131643
1772721159350698500,0.447698486328125,-0.476779967546463,0.36796966195106506,-0.145614892244339
1772721159369296400,0.46629638671875,-0.536644697189331,0.6278926134109497,-0.33712100982666016
1772721159387894000,0.48489404296875,-0.5283980369567871,0.5997928380966187,-0.4928915202617645
1772721159406491600,0.50349169921875,-0.3894262909889221,0.6755400896072388,-0.4586831033229828
1772721159425089300,0.52208935546875,-0.28557929396629333,0.6843976378440857,-0.3404807448387146
1772721159443687200,0.540687255859375,-0.12522727251052856,0.7347939610481262,-0.21494804322719574
1772721159462284800,0.559284912109375,0.018631376326084137,0.6905062794685364,-0.17829616367816925
1772721159480882400,0.57788232421875,0.01282816007733345,0.43455392122268677,-0.26015204191207886
1772721159499480000,0.59647998046875,-0.054672397673130035,0.1764635592699051,-0.28550294041633606
1772721159518077700,0.61507763671875,-0.01588248461484909,0.023441936820745468,-0.27023130655288696
1772721159536675300,0.63367529296875,-0.025045456364750862,-0.03000873140990734,-0.2317468225955963
1772721159555273000,0.65227294921875,-0.11484257876873016,-0.029703300446271896,-0.17402009665966034
1772721159573870600,0.67087060546875,-0.20341797173023224,-0.016569707542657852,-0.04329504072666168
1772721159592468200,0.68946826171875,-0.3536907136440277,-0.06696604937314987,0.007101302966475487
1772721159611066000,0.708066162109375,-0.4987711012363434,-0.09201150387525558,0.03428478538990021
1772721159629663700,0.726663818359375,-0.5097666382789612,-0.024510949850082397,0.033979352563619614
1772721159648261400,0.745261474609375,-0.4740310609340668,0.056428633630275726,0.040088001638650894
1772721159666859000,0.76385888671875,-0.3943132162094116,0.0680350661277771,0.11491893976926804
1772721159685456600,0.78245654296875,-0.3179551064968109,-0.0058795735239982605,0.2407570779323578
1772721159704054300,0.80105419921875,-0.16676609218120575,-0.13049599528312683,0.30031639337539673
1772721159722652000,0.81965185546875,-0.07055488228797913,-0.4258491098880768,0.29878923296928406
1772721159741249500,0.83824951171875,-0.10079269111156464,-0.5956695079803467,0.37117671966552734
1772721159759847200,0.85684716796875,-0.17715078592300415,-0.6912698745727539,0.49396052956581116
1772721159778444800,0.87544482421875,-0.2360992431640625,-0.7893136739730835,0.5513818264007568
1772721159797042400,0.89404248046875,-0.18814635276794434,-0.7502183318138123,0.44295331835746765
1772721159815640000,0.91264013671875,-0.08674279600381851,-0.5269472599029541,0.20746494829654694
1772721159834237700,0.93123779296875,-0.05864302068948746,-0.10819942504167557,-0.05948295816779137
1772721159852835300,0.94983544921875,-0.05894844979047775,0.34322965145111084,-0.27542364597320557
1772721159871433000,0.968432861328125,-0.053756099194288254,0.6801216006278992,-0.40431612730026245
1772721159890030600,0.987030517578125,-0.06200277432799339,0.8206204771995544,-0.42569640278816223
1772721159908628200,1.005628173828125,0.013744457624852657,0.6373610496520996,-0.31207555532455444
1772721159927225900,1.024225830078125,0.10231985151767731,0.5081631541252136,-0.07872519642114639
1772721159945823500,1.042823486328125,0.1698204129934311,0.4519635736942291,0.12316560745239258
1772721159964421000,1.061421142578125,0.27947062253952026,0.279394268989563,0.29817837476730347
1772721159983018800,1.080018798828125,0.46059203147888184,-0.008323032408952713,0.4924333691596985
1772721160001616400,1.098616455078125,0.5870410799980164,-0.30398157238960266,0.6008618474006653
1772721160020214000,1.117214111328125,0.6078104376792908,-0.4661661982536316,0.6201041340827942
1772721160038811600,1.135811767578125,0.5723803043365479,-0.5055669546127319,0.553214430809021
1772721160057409000,1.154408935546875,0.5754346251487732,-0.32536184787750244,0.4542543292045593
1772721160076006700,1.173006591796875,0.5830704569816589,-0.03061959706246853,0.23342670500278473
1772721160094604500,1.1916044921875,0.5079340934753418,0.25526511669158936,0.02695440873503685
1772721160113202200,1.2102021484375,0.4575377106666565,0.37774351239204407,-0.09063705801963806
1772721160131799600,1.228799560546875,0.4920515716075897,0.2787834107875824,-0.10010546445846558
1772721160150397200,1.247397216796875,0.5519163012504578,0.027717988938093185,-0.015195261687040329
1772721160168994800,1.265994873046875,0.5781835317611694,-0.245338574051857,0.12163844704627991
1772721160187592400,1.284592529296875,0.6071996092796326,-0.395305871963501,0.22731806337833405
1772721160206190000,1.303190185546875,0.6298015713691711,-0.43317949771881104,0.24686573445796967
1772721160224787500,1.321787353515625,0.6010909676551819,-0.4059959948062897,0.23220497369766235
1772721160243385000,1.340385009765625,0.5335903763771057,-0.353767067193985,0.17569997906684875
1772721160261982700,1.358982666015625,0.4150826036930084,-0.28901541233062744,0.09476039558649063
1772721160280580400,1.377580322265625,0.2993237376213074,-0.18058690428733826,0.043142326176166534
1772721160299178000,1.396177978515625,0.2110537886619568,-0.10942115634679794,0.060551971197128296
1772721160317775600,1.414775634765625,0.1383608728647232,-0.052916161715984344,0.1170569658279419
1772721160336373200,1.433373291015625,0.10537417232990265,0.07231111824512482,0.147905632853508
1772721160354971000,1.451970947265625,0.14721840620040894,0.07017309218645096,0.18486295640468597
1772721160373568300,1.470568359375,0.25809037685394287,-0.0449749194085598,0.19799654185771942
1772721160392166000,1.489165771484375,0.4150826036930084,-0.20196716487407684,0.14118611812591553
1772721160410763500,1.507763427734375,0.5681042671203613,-0.36506807804107666,0.028787001967430115
1772721160429361200,1.526361083984375,0.6701186895370483,-0.4350120723247528,-0.044211339205503464
1772721160447958500,1.54495849609375,0.6954695582389832,-0.5293906927108765,-0.06681333482265472
1772721160466556200,1.56355615234375,0.6627882719039917,-0.5043452382087708,-0.04634936526417732
1772721160485153800,1.58215380859375,0.6209440231323242,-0.543440580368042,-0.08208495378494263
1772721160503751400,1.60075146484375,0.5787943601608276,-0.41760244965553284,-0.2515999376773834
1772721160522349000,1.61934912109375,0.5128209590911865,-0.23617559671401978,-0.4388299882411957
1772721160540946400,1.637946533203125,0.4523453712463379,-0.10972658544778824,-0.4672352075576782
1772721160559544000,1.6565439453125,0.37140578031539917,-0.044669486582279205,-0.32154396176338196
1772721160578141700,1.6751416015625,0.22479823231697083,-0.02023489587008953,-0.14194969832897186
1772721160596739300,1.6937392578125,-0.007024944759905338,-0.01718057133257389,-0.04390590637922287
1772721160615337000,1.7123369140625,-0.2935205399990082,0.0011453714687377214,-0.05062541738152504
1772721160633934300,1.730934326171875,-0.49144071340560913,0.020998476073145866,-0.15691588819026947
1772721160652532000,1.749531982421875,-0.49113526940345764,0.3050506114959717,-0.23907721042633057
1772721160671129600,1.768129638671875,-0.39248061180114746,0.9259946346282959,-0.30566146969795227
1772721160689727000,1.78672705078125,-0.24434591829776764,1.36367928981781,-0.4214203357696533
1772721160708324600,1.80532470703125,-0.05833758786320686,1.5429680347442627,-0.42997244000434875
1772721160726922200,1.823922119140625,0.14599667489528656,1.372231364250183,-0.33773186802864075
1772721160745519900,1.842519775390625,0.3136790692806244,0.93729567527771,-0.2326631247997284
1772721160764117200,1.8611171875,0.37659814953804016,0.4635699987411499,-0.05520690605044365
1772721160782715000,1.87971484375,0.3338375985622406,0.01183550525456667,0.2514472007751465
1772721160801312500,1.8983125,0.2611446976661682,-0.331165075302124,0.446007639169693
1772721160819910000,1.916909912109375,0.19120067358016968,-0.7364738583564758,0.5330559015274048
1772721160838507500,1.935507568359375,0.0873536616563797,-0.8748347163200378,0.3436878025531769
1772721160857105200,1.954105224609375,-0.009773836471140385,-0.664391815662384,-0.00022907429956831038
1772721160875702800,1.972702880859375,-0.02718348242342472,-0.38247770071029663,-0.32337653636932373
1772721160894300200,1.991300048828125,-0.05955931544303894,-0.05047270283102989,-0.37407833337783813
1772721160912897800,2.009897705078125,-0.13530655205249786,0.22838707268238068,-0.1450040340423584
1772721160931495200,2.0284951171875,-0.24006985127925873,0.529543399810791,0.12866339087486267
1772721160950092800,2.0470927734375,-0.4156934916973114,0.9336304664611816,0.14912736415863037
1772721160968690400,2.0656904296875,-0.5540543794631958,1.1675916910171509,-0.020693045109510422
1772721160987287800,2.084287841796875,-0.6701186895370483,1.121776819229126,-0.1764635592699051
1772721161005885400,2.102885498046875,-0.6438514590263367,0.8123738169670105,-0.1654679924249649
1772721161024483000,2.121483154296875,-0.4471530318260193,0.3960694372653961,0.0703258067369461
1772721161043080400,2.14008056640625,-0.2868010103702545,-0.019013166427612305,0.4133263826370239
1772721161061678000,2.158677978515625,-0.2721402645111084,-0.245338574051857,0.5825359225273132
1772721161080275700,2.177275634765625,-0.36743515729904175,-0.3797288239002228,0.6268236041069031
1772721161098873000,2.195873046875,-0.5965094566345215,-0.43317949771881104,0.5626828074455261
1772721161117470700,2.214470703125,-0.878728985786438,-0.3904189467430115,0.3320813775062561
1772721161136068000,2.233068115234375,-0.9917389750480652,-0.44203701615333557,0.07338013499975204
1772721161154665700,2.251665771484375,-0.9859357476234436,-0.38644832372665405,-0.09246965497732162
1772721161173263000,2.27026318359375,-0.9920443892478943,-0.24350596964359283,-0.09460768103599548
1772721161191860700,2.28886083984375,-0.9874629378318787,-0.08498656004667282,-0.04024071618914604
1772721161210458400,2.307458251953125,-1.0039563179016113,0.29100072383880615,-0.013668099418282509
1772721161229055700,2.3260556640625,-1.0613775253295898,0.603458046913147,-0.13858994841575623
1772721161247653400,2.3446533203125,-1.1310161352157593,0.7641154527664185,-0.1712712198495865
1772721161266250800,2.363250732421875,-1.276707410812378,0.7396808862686157,-0.0011453714687377214
1772721161284848400,2.381848388671875,-1.4914263486862183,0.547563910484314,0.15493057668209076
1772721161303446000,2.400446044921875,-1.7388266324996948,0.33712100982666016,0.2596938908100128
1772721161322043400,2.41904345703125,-1.8753548860549927,0.14714205265045166,0.3775908052921295
1772721161340641000,2.43764111328125,-1.9107850790023804,-0.17997603118419647,0.4967094361782074
1772721161359238400,2.45623828125,-1.8741331100463867,-0.4618901312351227,0.5477166175842285
1772721161377836000,2.4748359375,-1.796858787536621,-0.599334716796875,0.6014727354049683
1772721161396433400,2.493433349609375,-1.7913609743118286,-0.6723330616950989,0.663780927658081
1772721161415030800,2.51203076171875,-1.8365650177001953,-0.7486911416053772,0.6830231547355652
1772721161433628400,2.53062841796875,-2.0018038749694824,-0.5745946764945984,0.5119810700416565
1772721161452225800,2.549225830078125,-2.1807873249053955,-0.44784024357795715,0.2722166180610657
1772721161470823400,2.567823486328125,-2.185063362121582,-0.40141451358795166,0.07948877662420273
1772721161489420800,2.5864208984375,-2.2033891677856445,-0.3638463318347931,-0.030466880649328232
1772721161508018400,2.605018310546875,-2.154520034790039,-0.6286562085151672,0.10178534686565399
1772721161526615800,2.62361572265625,-2.1227550506591797,-0.7355575561523438,0.22701261937618256
1772721161545213400,2.64221337890625,-2.2867722511291504,-0.7331140637397766,0.16500984132289886
1772721161563810800,2.660810791015625,-2.5271475315093994,-0.5871174335479736,0.0449749194085598
1772721161582408400,2.679408447265625,-2.684445381164551,-0.39072439074516296,-0.08941533416509628
1772721161601005800,2.698005859375,-2.7256786823272705,-0.1888335794210434,-0.13858994841575623
1772721161619603500,2.716603515625,-2.682307243347168,0.003894262947142124,-0.1450040340423584
1772721161638200800,2.735200927734375,-2.670700788497925,0.08300124853849411,-0.09308052062988281
1772721161656798500,2.753798583984375,-2.6789474487304688,0.12240202724933624,0.06910407543182373
1772721161675395800,2.772395751953125,-2.5555527210235596,0.26015204191207886,0.2190713882446289
1772721161693993500,2.790993408203125,-2.388786792755127,0.43577566742897034,0.19280420243740082
1772721161712590800,2.8095908203125,-2.2201881408691406,0.5093848705291748,-0.03107774630188942
1772721161731188200,2.828188232421875,-2.079383611679077,0.339869886636734,-0.20914483070373535
1772721161749785900,2.846785888671875,-2.0039420127868652,0.0527634471654892,-0.1654679924249649
1772721161768383200,2.86538330078125,-1.9651520252227783,-0.21784965693950653,0.05047270283102989
1772721161786980900,2.88398095703125,-1.9575161933898926,-0.4802160859107971,0.3723984360694885
1772721161805578200,2.902578125,-1.950491189956665,-0.7712931632995605,0.607886791229248
1772721161824175600,2.921175537109375,-1.897040605545044,-0.792062520980835,0.609108567237854
1772721161842773200,2.939773193359375,-1.8090760707855225,-0.8164971470832825,0.5483275055885315
1772721161861370600,2.95837060546875,-1.6514729261398315,-0.7526617646217346,0.36659523844718933
1772721161879968000,2.976968017578125,-1.553429126739502,-0.609108567237854,0.17997603118419647
1772721161898565600,2.995565673828125,-1.5573997497558594,-0.46860963106155396,0.09384410083293915
1772721161917163000,3.0141630859375,-1.5989385843276978,-0.2963457703590393,0.07521272450685501
1772721161935760400,3.032760498046875,-1.6609413623809814,-0.1582903414964676,0.10881029069423676
1772721161954358000,3.05135791015625,-1.73088538646698,-0.0910952091217041,0.20715951919555664
1772721161972955400,3.069955322265625,-1.7012584209442139,-0.12102758139371872,0.3015381395816803
1772721161991552800,3.088552734375,-1.6322306394577026,-0.1738673895597458,0.35957029461860657
1772721162010150400,3.107150390625,-1.534186840057373,-0.15523600578308105,0.2966512143611908
1772721162028747800,3.125747802734375,-1.4315615892410278,-0.08284853398799896,0.1222493126988411
1772721162047345400,3.144345458984375,-1.3121376037597656,-0.012904518283903599,-0.016416991129517555
1772721162065942800,3.16294287109375,-1.186299443244934,0.010613775812089443,-0.032910339534282684
1772721162084540200,3.1815400390625,-1.081536054611206,0.03474293276667595,0.02237292192876339
1772721162103137800,3.2001376953125,-0.9828814268112183,0.08605557680130005,0.08987347781658173
1772721162121735200,3.218735107421875,-0.916297197341919,0.16913318634033203,0.11583523452281952
1772721162140332500,3.23733251953125,-0.8368847370147705,0.32307112216949463,0.030314164236187935
1772721162158930000,3.255929931640625,-0.721431314945221,0.4492146968841553,-0.1401171088218689
1772721162177527600,3.274527587890625,-0.6041452884674072,0.44585493206977844,-0.2726747691631317
1772721162196125000,3.293125,-0.48563748598098755,0.38873907923698425,-0.31115925312042236
1772721162214722300,3.311722412109375,-0.36835145950317383,0.27053675055503845,-0.2830594778060913
1772721162233319700,3.330319580078125,-0.3494146466255188,0.2949713170528412,-0.2848920524120331
1772721162251917000,3.3489169921875,-0.3436114490032196,0.19478951394557953,-0.2745073735713959
1772721162270514700,3.3675146484375,-0.2968802750110626,-0.010461059398949146,-0.21097742021083832
1772721162289112000,3.386112060546875,-0.22235478460788727,-0.12377647310495377,-0.11171189695596695
1772721162307709400,3.40470947265625,-0.10170898586511612,-0.25205808877944946,-0.017333287745714188
1772721162326307000,3.42330712890625,0.013133592903614044,-0.30520331859588623,-0.0035888305865228176
1772721162344904400,3.441904541015625,0.04764745384454727,-0.29359689354896545,-0.0781143307685852
1772721162363501800,3.460501708984375,0.05864302068948746,-0.24869832396507263,-0.16791145503520966
1772721162382099200,3.47909912109375,0.1029307171702385,-0.15981750190258026,-0.22288928925991058
1772721162400696600,3.497696533203125,0.16310089826583862,-0.1417969912290573,-0.25007277727127075
1772721162419294200,3.516294189453125,0.18264856934547424,-0.0910952091217041,-0.1816559135913849
1772721162437891600,3.5348916015625,0.18631376326084137,-0.13080142438411713,-0.015500693581998348
1772721162456489000,3.553489013671875,0.1594357043504715,-0.22884522378444672,0.1369100660085678
1772721162475086300,3.57208642578125,0.1081230640411377,-0.25236350297927856,0.16500984132289886
1772721162493683700,3.59068359375,0.015271619893610477,-0.16378812491893768,0.07521272450685501
1772721162512281300,3.60928125,-0.07941242307424545,-0.015042545273900032,-0.008781181648373604
1772721162530878700,3.627878662109375,-0.0668896958231926,0.05459604039788246,-0.046654798090457916
1772721162549476000,3.64647607421875,-0.04062250629067421,0.05826122686266899,0.028176138177514076
1772721162568073500,3.665073486328125,-0.05070177838206291,0.1346193253993988,0.1427132785320282
1772721162586670800,3.6836708984375,0.01740964688360691,0.03138317912817001,0.2248746007680893
1772721162605268200,3.702268310546875,0.1386663019657135,-0.32016950845718384,0.34521496295928955
1772721162623865600,3.720865478515625,0.32192572951316833,-0.7499128580093384,0.4612792730331421
1772721162642463000,3.739462890625,0.5216785073280334,-1.0874156951904297,0.4606684148311615
1772721162661060600,3.758060546875,0.6169734001159668,-1.275562047958374,0.451200008392334
1772721162679658000,3.776657958984375,0.7284562587738037,-1.311908483505249,0.3626246154308319
1772721162698255400,3.79525537109375,0.767857015132904,-0.9169843792915344,0.152487114071846
1772721162716852700,3.813852783203125,0.6322450637817383,-0.6766090989112854,-0.023136503994464874
1772721162735450000,3.8324501953125,0.3995055556297302,-0.4771617650985718,-0.09582941234111786
1772721162754047500,3.851047607421875,0.10079269111156464,-0.14698933064937592,-0.10987929999828339
1772721162772644900,3.869644775390625,-0.2461785078048706,0.3087157905101776,-0.19020801782608032
1772721162791242200,3.8882421875,-0.526870846748352,0.7659480571746826,-0.30169084668159485
1772721162809839900,3.90683984375,-0.703410804271698,0.9598976373672485,-0.3707185685634613
1772721162828437200,3.925437255859375,-0.7336485981941223,0.9733366966247559,-0.3603338599205017
1772721162847034600,3.94403466796875,-0.6780598759651184,0.9339358806610107,-0.2723693251609802
1772721162865632000,3.962632080078125,-0.6114756464958191,0.87254399061203,-0.13675735890865326
1772721162884229400,3.9812294921875,-0.555276095867157,0.8294780254364014,0.013209951110184193
1772721162902826800,3.99982666015625,-0.45478883385658264,0.7748056054115295,0.16928590834140778
1772721162921424100,4.018424072265625,-0.34788748621940613,0.7409026026725769,0.29451319575309753
1772721162940021500,4.037021484375,-0.21166464686393738,0.5438987016677856,0.3027598559856415
1772721162958619000,4.055618896484375,-0.08032871782779694,0.2677878439426422,0.20135630667209625
1772721162977216300,4.07421630859375,0.05070177838206291,0.08147408813238144,0.08223766833543777
1772721162995813600,4.092813720703125,0.14721840620040894,-0.01259908638894558,-0.08727730810642242
1772721163014411000,4.111410888671875,0.21746785938739777,0.03474293276667595,-0.29680392146110535
1772721163033008400,4.13000830078125,0.23487751185894012,0.20731224119663239,-0.42416924238204956
1772721163051605800,4.148605712890625,0.24923282861709595,0.372245728969574,-0.4840339720249176
1772721163070203100,4.167203125,0.2724456787109375,0.41378453373908997,-0.5194641351699829
1772721163088800500,4.185800537109375,0.2675587832927704,0.38965538144111633,-0.4586831033229828
1772721163107398000,4.20439794921875,0.22754712402820587,0.5103011727333069,-0.30718863010406494
1772721163125995300,4.222995361328125,0.16035200655460358,0.5417606830596924,-0.17310380935668945
1772721163144592600,4.241592529296875,0.11362084746360779,0.5506182312965393,-0.08575014024972916
1772721163163190000,4.26018994140625,0.002443459117785096,0.558254063129425,-0.036880962550640106
1772721163181787400,4.278787353515625,-0.19730933010578156,0.5350412130355835,-0.04390590637922287
1772721163200384800,4.297384765625,-0.42363473773002625,0.40981391072273254,-0.09613484144210815
1772721163218982100,4.315982177734375,-0.6349939107894897,0.28061601519584656,-0.12087486684322357
1772721163237579500,4.33457958984375,-0.7764091491699219,0.16180281341075897,-0.13125957548618317
1772721163256177000,4.353177001953125,-0.8487966060638428,0.07994692772626877,-0.11751510947942734
1772721163274774300,4.371774169921875,-0.8585704565048218,-0.04069886729121208,-0.03413207083940506
1772721163293371600,4.39037158203125,-0.7968730926513672,-0.05413788929581642,0.015347977168858051
1772721163311969000,4.408968994140625,-0.7073814272880554,-0.004352411720901728,-0.00603228947147727
1772721163330566100,4.427566162109375,-0.6643154621124268,0.104076087474823,-0.08910989761352539
1772721163349163500,4.44616357421875,-0.6704241037368774,0.11720968037843704,-0.18501566350460052
1772721163367761000,4.464760986328125,-0.6976075768470764,0.03321577236056328,-0.18409937620162964
1772721163386358300,4.483358154296875,-0.729983389377594,-0.036422811448574066,-0.07017309218645096
1772721163404955600,4.50195556640625,-0.7229584455490112,-0.0907897800207138,0.12591449916362762
1772721163423553000,4.520552978515625,-0.684473991394043,-0.15645773708820343,0.3320813775062561
1772721163442150400,4.539150390625,-0.6508764028549194,-0.22059854865074158,0.41179922223091125
1772721163460747800,4.557747802734375,-0.6395754218101501,-0.28504478931427,0.4200458824634552
1772721163479345200,4.57634521484375,-0.6453786492347717,-0.3568213880062103,0.37667450308799744
1772721163497942300,4.5949423828125,-0.5836812853813171,-0.48265954852104187,0.3363574147224426
1772721163516539600,4.61353955078125,-0.43982264399528503,-0.6225475668907166,0.3989710509777069
1772721163535137000,4.632136962890625,-0.3381136655807495,-0.47777262330055237,0.6503419280052185
1772721163553734400,4.650734375,-0.24770566821098328,-0.4365392327308655,0.7850375771522522
1772721163572331800,4.669331787109375,-0.20952661335468292,-0.4869355857372284,0.6952404975891113
1772721163590929200,4.68792919921875,-0.24006985127925873,-0.4823541045188904,0.5110647678375244
1772721163609526300,4.7065263671875,-0.2864955961704254,-0.2569449841976166,0.30367615818977356
1772721163628123600,4.72512353515625,-0.2981020212173462,0.07261654734611511,0.01779143698513508
1772721163646721000,4.743720947265625,-0.34666576981544495,0.32673630118370056,-0.19967642426490784
1772721163665318400,4.762318359375,-0.3652971386909485,0.41867145895957947,-0.1914297491312027
1772721163683915800,4.780915771484375,-0.3430005609989166,0.3053560256958008,0.04741837829351425
1772721163702513000,4.799512939453125,-0.2666424810886383,0.17432554066181183,0.3119228184223175
1772721163721110300,4.8181103515625,-0.17104214429855347,-0.05108356848359108,0.44784024357795715
1772721163739707600,4.836707763671875,-0.05711585655808449,-0.266107976436615,0.46311184763908386
1772721163758304800,4.8553046875,0.060781046748161316,-0.4902953505516052,0.4209621846675873
1772721163776902100,4.873902099609375,0.2003636509180069,-0.7004328370094299,0.42829257249832153
1772721163795499500,4.89249951171875,0.26542073488235474,-0.8613957166671753,0.5144245028495789
1772721163814097000,4.911096923828125,0.1695149689912796,-0.7236456871032715,0.6307942271232605
1772721163832694000,4.929694091796875,0.031154103577136993,-0.3018435537815094,0.47380200028419495
1772721163851291400,4.94829150390625,-0.19181154668331146,0.3105483949184418,0.11919499188661575
1772721163869888800,4.966888671875,-0.4114174246788025,0.7250201106071472,-0.13889537751674652
1772721163888486100,4.985486083984375,-0.5250383019447327,0.8523854613304138,-0.2372446060180664
1772721163907083500,5.00408349609375,-0.49480047821998596,0.687451958656311,-0.20547963678836823
1772721163925680600,5.0226806640625,-0.2770271897315979,0.3600284159183502,-0.05367974191904068
1772721163944278000,5.041278076171875,0.01435532234609127,-0.024205517023801804,0.1726456582546234
1772721163962875400,5.05987548828125,0.23365578055381775,-0.34613126516342163,0.3229183852672577
1772721163981472500,5.078472412109375,0.32009315490722656,-0.5571850538253784,0.3128391206264496
1772721164000070000,5.09706982421875,0.30604326725006104,-0.6136900186538696,0.173256516456604
1772721164018667300,5.115667236328125,0.23793183267116547,-0.5489383339881897,0.004963276442140341
1772721164037264400,5.134264404296875,0.16707152128219604,-0.3216966688632965,-0.13187043368816376
1772721164055861800,5.15286181640625,0.12278381735086441,-0.10545053333044052,-0.16455170512199402
1772721164074459100,5.171459228515625,0.09468404203653336,0.05154171586036682,-0.13828451931476593
1772721164093056300,5.19005615234375,0.08307760953903198,0.1960112303495407,-0.029245151206851006
1772721164111653600,5.208653564453125,0.09071341902017593,0.27572908997535706,0.08498656004667282
1772721164130250800,5.227250732421875,0.07910698652267456,0.18318307399749756,0.09812015295028687
1772721164148848000,5.24584814453125,0.04581485688686371,0.042073313146829605,-0.013362666592001915
1772721164167445500,5.264445556640625,-0.003665188793092966,-0.08284853398799896,-0.12606722116470337
1772721164186042600,5.283042724609375,-0.09407317638397217,-0.22120940685272217,-0.1807396113872528
1772721164204640000,5.301639892578125,-0.1740964651107788,-0.2596938908100128,-0.23021966218948364
1772721164223237000,5.320237060546875,-0.2507599890232086,-0.34490951895713806,-0.15325069427490234
1772721164241834500,5.33883447265625,-0.24404047429561615,-0.3326922357082367,-0.03657552972435951
1772721164260431600,5.357431640625,-0.1698204129934311,-0.18516838550567627,0.02328922040760517
1772721164279029000,5.376029052734375,-0.09987638890743256,-0.0006872228696011007,-0.03962985426187515
1772721164297626000,5.394626220703125,-0.07635809481143951,0.19020801782608032,-0.16668972373008728
1772721164316223500,5.413223388671875,-0.15271618962287903,0.29649847745895386,-0.24610215425491333
1772721164334820900,5.43182080078125,-0.3481929302215576,0.3203222155570984,-0.21616977453231812
1772721164353418000,5.45041796875,-0.4477638900279999,0.55672687292099,-0.17799071967601776
1772721164372015400,5.469015380859375,-0.36163195967674255,0.8704059720039368,-0.12637265026569366
1772721164390612500,5.487612548828125,-0.22235478460788727,1.092455267906189,-0.07170025259256363
1772721164409209900,5.5062099609375,-0.13255766034126282,1.0738239288330078,-0.05581776797771454
1772721164427807000,5.524806884765625,-0.08674279600381851,0.7671698331832886,-0.14836378395557404
1772721164446404400,5.543404296875,-0.007024944759905338,0.20914483070373535,-0.22380557656288147
1772721164465001500,5.56200146484375,0.07055488228797913,-0.21265730261802673,-0.13706278800964355
1772721164483598800,5.580598876953125,0.11331541836261749,-0.4664716124534607,0.09995274990797043
1772721164502196200,5.5991962890625,0.15057817101478577,-0.6402626633644104,0.3134499788284302
1772721164520793300,5.61779345703125,0.1692095398902893,-0.533666729927063,0.4554760456085205
1772721164539390700,5.636390625,0.2968802750110626,-0.45242172479629517,0.5104538798332214
1772721164557987800,5.65498779296875,0.4917461574077606,-0.5694023370742798,0.30306529998779297
1772721164576585000,5.6735849609375,0.5864301919937134,-0.6317105293273926,-0.07170025259256363
1772721164595182300,5.692182373046875,0.5900954008102417,-0.5031235218048096,-0.3090212345123291
1772721164613779500,5.710779541015625,0.4773908257484436,-0.31864234805107117,-0.3197113573551178
1772721164632376800,5.729376953125,0.24953825771808624,-0.13019055128097534,-0.24579671025276184
1772721164650974000,5.747973876953125,0.005192350596189499,0.1089630052447319,-0.19417864084243774
1772721164669571300,5.7665712890625,-0.1747073233127594,0.26962044835090637,-0.21097742021083832
1772721164688168400,5.78516845703125,-0.21899501979351044,0.45623964071273804,-0.2900844216346741
1772721164706765800,5.803765869140625,-0.17134757339954376,0.640720784664154,-0.335288405418396
1772721164725363000,5.822363037109375,-0.16096286475658417,0.6440805792808533,-0.2683987021446228
1772721164743960000,5.8409599609375,-0.21441353857517242,0.6202568411827087,-0.17249293625354767
1772721164762557400,5.859557373046875,-0.25320345163345337,0.6562978625297546,-0.17982332408428192
1772721164781154600,5.878154541015625,-0.24037529528141022,0.5912407636642456,-0.2479347437620163
1772721164799752000,5.896751953125,-0.25931209325790405,0.24365869164466858,-0.29558220505714417
1772721164818349000,5.91534912109375,-0.3271180987358093,0.04024071618914604,-0.22594361007213593
1772721164836946400,5.933946533203125,-0.472198486328125,-0.24228423833847046,-0.01030834298580885
1772721164855543600,5.95254345703125,-0.5396990180015564,-0.31375542283058167,0.18974986672401428
1772721164874140700,5.971140625,-0.4773908257484436,-0.25877758860588074,0.39133524894714355
1772721164892737800,5.98973779296875,-0.45539969205856323,-0.26732969284057617,0.5306124091148376
1772721164911335200,6.008335205078125,-0.4459312856197357,-0.2395353466272354,0.507094144821167
1772721164929932300,6.026932373046875,-0.48013970255851746,-0.3174206018447876,0.39683303236961365
1772721164948529700,6.04552978515625,-0.5845975875854492,-0.2865719497203827,0.21815508604049683
1772721164967126800,6.064126708984375,-0.6789761781692505,-0.11278090626001358,0.06177370250225067
1772721164985724200,6.08272412109375,-0.7519745230674744,0.035964664071798325,-0.03352120518684387
1772721165004321300,6.1013212890625,-0.8014546036720276,0.17249293625354767,-0.0784197673201561
1772721165022918400,6.11991845703125,-0.8469640016555786,0.3004691004753113,-0.10621411353349686
1772721165041515500,6.138515625,-0.9083559513092041,0.4076758921146393,-0.15722131729125977
1772721165060113000,6.15711279296875,-0.9874629378318787,0.4641808867454529,-0.17188207805156708
1772721165078710000,6.1757099609375,-1.0613775253295898,0.4324159026145935,-0.1346193253993988
1772721165097307100,6.19430712890625,-1.1169662475585938,0.34872743487358093,-0.03504836559295654
1772721165115904500,6.212904541015625,-1.1597267389297485,0.12331832945346832,0.11125374585390091
1772721165134501600,6.231501708984375,-1.2651009559631348,-0.08040507882833481,0.24686573445796967
1772721165153098800,6.2500986328125,-1.3738348484039307,-0.31528258323669434,0.35987570881843567
1772721165171696000,6.268696044921875,-1.5140283107757568,-0.3577376902103424,0.43317949771881104
1772721165190293200,6.287293212890625,-1.5906919240951538,-0.3009272515773773,0.38033968210220337
1772721165208890400,6.305890380859375,-1.6316198110580444,-0.31528258323669434,0.3174206018447876
1772721165227487500,6.324487548828125,-1.7895283699035645,-0.39072439074516296,0.326583594083786
1772721165246084900,6.3430849609375,-1.9996658563613892,-0.474718302488327,0.3797288239002228
1772721165264682000,6.361681884765625,-2.165515661239624,-0.5590176582336426,0.4857138693332672
1772721165283279000,6.380279052734375,-2.2195770740509033,-0.5984184145927429,0.6197986602783203
1772721165301876200,6.398876220703125,-2.202167510986328,-0.414242684841156,0.7031817436218262
1772721165320473600,6.4174736328125,-2.0940444469451904,-0.2502254843711853,0.6686678528785706
1772721165339070700,6.43607080078125,-2.0164647102355957,-0.17631085216999054,0.5507709383964539
1772721165357667800,6.454667724609375,-2.048229694366455,-0.106366828083992,0.43867728114128113
1772721165376265000,6.473264892578125,-2.1279475688934326,-0.11888955533504486,0.3317759335041046
1772721165394862000,6.491862060546875,-2.1591014862060547,-0.08162680268287659,0.26396992802619934
1772721165413459500,6.51045947265625,-2.076024055480957,-0.01565340906381607,0.26732969284057617
1772721165432056600,6.529056640625,-1.9950844049453735,-0.06604975461959839,0.2914588451385498
1772721165450653700,6.54765380859375,-1.9804235696792603,-0.14882193505764008,0.32475098967552185
1772721165469250800,6.566250732421875,-2.0186026096343994,-0.23831361532211304,0.3531562089920044
1772721165487848200,6.58484814453125,-2.072664260864258,-0.30917394161224365,0.37270388007164
1772721165506445000,6.603445068359375,-2.1334452629089355,-0.353767067193985,0.36201372742652893
1772721165525042400,6.62204248046875,-2.1917827129364014,-0.3488801419734955,0.33024877309799194
1772721165543639600,6.6406396484375,-2.1615450382232666,-0.43256860971450806,0.24656029045581818
1772721165562236700,6.659236572265625,-2.0277657508850098,-0.5694023370742798,0.173256516456604
1772721165580833800,6.677833740234375,-1.7974696159362793,-0.5742892622947693,0.11430807411670685
1772721165599431000,6.696430908203125,-1.571755051612854,-0.606970489025116,0.10606139898300171
1772721165618028300,6.7150283203125,-1.3506220579147339,-0.552603542804718,0.08865175396203995
1772721165636625400,6.73362548828125,-1.1856884956359863,-0.5150353908538818,0.07154753804206848
1772721165655222500,6.752222412109375,-1.1212422847747803,-0.49365508556365967,0.0602465383708477
1772721165673819600,6.770819580078125,-1.101083755493164,-0.34124433994293213,0.018402300775051117
1772721165692416800,6.789416748046875,-1.083979606628418,-0.450589120388031,0.041004300117492676
1772721165711014000,6.808013916015625,-1.1071923971176147,-0.3904189467430115,0.11125374585390091
1772721165729611000,6.826611083984375,-1.1334595680236816,-0.42310020327568054,0.16378812491893768
1772721165748208000,6.8452080078125,-1.2171480655670166,-0.3928624093532562,0.18730641901493073
1772721165766805500,6.863805419921875,-1.2638791799545288,-0.316809743642807,0.19127702713012695
1772721165785402600,6.882402587890625,-1.1957677602767944,-0.19249875843524933,0.18455752730369568
1772721165803999700,6.900999755859375,-1.0696241855621338,-0.036422811448574066,0.12774710357189178
1772721165822596900,6.919596923828125,-0.9825760126113892,-0.018402300775051117,0.05780307948589325
1772721165841194000,6.938194091796875,-1.0048725605010986,0.1245400533080101,-0.007864884100854397
1772721165859791000,6.956791015625,-1.1322379112243652,0.4217257797718048,-0.16638429462909698
1772721165878388200,6.97538818359375,-1.3075560331344604,0.568027913570404,-0.32673630118370056
1772721165896985300,6.9939853515625,-1.472795009613037,0.5668061375617981,-0.34720027446746826
1772721165915582500,7.01258251953125,-1.477987289428711,0.3652207851409912,-0.19478951394557953
1772721165934179600,7.0311796875,-1.3768892288208008,0.17340923845767975,0.05413788929581642
1772721165952776700,7.049776611328125,-1.25715970993042,-0.00954476185142994,0.19005531072616577
1772721165971373800,7.068373779296875,-1.1417062282562256,-0.11430807411670685,0.15493057668209076
1772721165989971000,7.086970947265625,-1.053436279296875,-0.19005531072616577,0.06818778067827225
1772721166008568300,7.105568359375,-0.9975422024726868,-0.22884522378444672,0.05841394513845444
1772721166027165200,7.124165283203125,-0.9572250843048096,-0.2926805913448334,0.10178534686565399
1772721166045762600,7.142762451171875,-0.9016364216804504,-0.3794233798980713,0.1170569658279419
1772721166064359700,7.161359619140625,-0.8426879644393921,-0.39072439074516296,0.12255474925041199
1772721166082956500,7.17995654296875,-0.8087849617004395,-0.3027598559856415,0.08804088830947876
1772721166101554000,7.198553955078125,-0.7947350740432739,-0.1625663936138153,0.03214675933122635
1772721166120150800,7.21715087890625,-0.7681624889373779,-0.09323323518037796,-0.014584396965801716
1772721166138748000,7.235747802734375,-0.6954695582389832,-0.051389001309871674,-0.02496909722685814
1772721166157345300,7.25434521484375,-0.648127555847168,0.009086613543331623,-0.04787652567028999
1772721166175942100,7.272942138671875,-0.6255255341529846,0.114460788667202,-0.09827287495136261
1772721166194539300,7.291539306640625,-0.5794052481651306,0.17982332408428192,-0.14194969832897186
1772721166213136600,7.31013671875,-0.5748237371444702,0.18715369701385498,-0.13736821711063385
1772721166231733500,7.3287333984375,-0.6108647584915161,0.17829616367816925,-0.07383827865123749
1772721166250330600,7.34733056640625,-0.6395754218101501,0.22105668485164642,-0.012140937149524689
1772721166268928000,7.365927978515625,-0.6133082509040833,0.26687154173851013,-0.03871355578303337
1772721166287524900,7.38452490234375,-0.5855138897895813,0.29710936546325684,-0.16424626111984253
1772721166306122000,7.4031220703125,-0.6062833070755005,0.29588761925697327,-0.3203222155570984
1772721166324719000,7.421718994140625,-0.6734784245491028,0.24640758335590363,-0.4693732261657715
1772721166343316200,7.440316162109375,-0.7565560340881348,0.16149736940860748,-0.5307651162147522
1772721166361913300,7.458913330078125,-0.8084795475006104,0.09980003535747528,-0.4996110200881958
1772721166380510500,7.477510498046875,-0.8429933786392212,0.0576503649353981,-0.3917934000492096
1772721166399107600,7.496107666015625,-0.8732311725616455,-0.03733910992741585,-0.28611379861831665
1772721166417704700,7.51470458984375,-0.880256175994873,-0.18180863559246063,-0.18318307399749756
1772721166436301800,7.5333017578125,-0.8277217745780945,-0.32933247089385986,-0.07383827865123749
1772721166454899000,7.55189892578125,-0.7333431839942932,-0.5519927144050598,0.033368486911058426
1772721166473496000,7.57049609375,-0.6655371785163879,-0.5727620720863342,0.12530364096164703
1772721166492093200,7.58909326171875,-0.6233875155448914,-0.43317949771881104,0.13080142438411713
1772721166510690300,7.607690185546875,-0.6365211009979248,-0.30489787459373474,0.17753258347511292
1772721166529287200,7.626287109375,-0.6050615906715393,-0.23861905932426453,0.24808746576309204
1772721166547884300,7.64488427734375,-0.6163625717163086,-0.1170569658279419,0.30398157238960266
1772721166566481400,7.6634814453125,-0.6542361974716187,0.1340084671974182,0.20593778789043427
1772721166585078500,7.68207861328125,-0.5910117030143738,0.35941755771636963,0.01107192412018776
1772721166603675600,7.700675537109375,-0.4630354940891266,0.38324129581451416,-0.093691386282444
1772721166622272800,7.719272705078125,-0.40317076444625854,0.2992473840713501,0.010155626572668552
1772721166640870000,7.737869873046875,-0.4581485986709595,0.145614892244339,0.24106250703334808
1772721166659466800,7.756466796875,-0.5338957905769348,0.06192641705274582,0.44722938537597656
1772721166678063900,7.77506396484375,-0.545502245426178,0.043600473552942276,0.5920043587684631
1772721166696661000,7.793660888671875,-0.4828886091709137,-0.03275762498378754,0.7205913662910461
1772721166715258000,7.812258056640625,-0.3656025826931,-0.1164461001753807,0.7795398235321045
1772721166733855200,7.830855224609375,-0.23823726177215576,-0.21326816082000732,0.7416661977767944
1772721166752452400,7.849452392578125,-0.1389717310667038,-0.38033968210220337,0.6365974545478821
1772721166771049500,7.868049560546875,-0.0821613147854805,-0.40233081579208374,0.4698313772678375
1772721166789646300,7.886646240234375,-0.07757982611656189,-0.35071274638175964,0.33941173553466797
1772721166808243500,7.905243408203125,-0.07605266571044922,-0.3134499788284302,0.2951240539550781
1772721166826840600,7.923840576171875,-0.07605266571044922,-0.2401462197303772,0.23403756320476532
1772721166845437700,7.942437744140625,-0.07880155742168427,-0.09292780607938766,0.10331250727176666
1772721166864034600,7.96103466796875,-0.0824667438864708,0.06101011857390404,-0.035964664071798325
1772721166882631700,7.979631591796875,-0.11728604137897491,0.10835213959217072,-0.1297324001789093
1772721166901228800,7.998228759765625,-0.15210533142089844,0.0423787422478199,-0.1599702090024948
1772721166919826000,8.016825927734375,-0.18814635276794434,-0.08345939964056015,-0.15111267566680908
1772721166938423000,8.035423095703125,-0.210442915558815,-0.16562071442604065,-0.12606722116470337
1772721166957020200,8.054020263671875,-0.18631376326084137,-0.21815508604049683,-0.08972076326608658
1772721166975617000,8.072616943359375,-0.14538581669330597,-0.33971717953681946,-0.06925679743289948
1772721166994214100,8.091214111328124,-0.10445787757635117,-0.42768171429634094,-0.026190826669335365
1772721167012811300,8.109811279296874,-0.04550942778587341,-0.4496728479862213,0.02328922040760517
1772721167031408400,8.128408447265626,0.043371398001909256,-0.4136318266391754,0.04589121788740158
1772721167050005200,8.147005126953125,0.13713914155960083,-0.37270388007164,0.020540328696370125
1772721167068602400,8.165602294921875,0.18875721096992493,-0.23648102581501007,0.004657844081521034
1772721167087199500,8.184199462890625,0.18875721096992493,-0.0345902182161808,-0.05123628303408623
1772721167105796400,8.20279638671875,0.08002328872680664,0.13889537751674652,-0.22960880398750305
1772721167124393500,8.2213935546875,-0.010690134018659592,0.3468948304653168,-0.3554469347000122
1772721167142990600,8.239990478515624,-0.12675444781780243,0.5359575152397156,-0.29161158204078674
1772721167161587500,8.25858740234375,-0.25503605604171753,0.6651554107666016,-0.2485456019639969
1772721167180184600,8.2771845703125,-0.3958403766155243,0.7094430923461914,-0.2977202236652374
1772721167198781700,8.29578173828125,-0.4929678738117218,0.6902008652687073,-0.3753000497817993
1772721167217378800,8.31437890625,-0.5064069032669067,0.5206858515739441,-0.4076758921146393
1772721167235975700,8.3329755859375,-0.4526508152484894,0.4012618064880371,-0.3658316433429718
1772721167254572800,8.35157275390625,-0.39400777220726013,0.25068363547325134,-0.25129449367523193
1772721167273170000,8.370169921875,-0.39736753702163696,0.13064870238304138,-0.05062541738152504
1772721167291767000,8.38876708984375,-0.5219839811325073,0.13889537751674652,0.024205517023801804
1772721167310364000,8.407364013671875,-0.5238165259361267,-0.12805253267288208,-0.010919207707047462
1772721167328961000,8.4259609375,-0.6420188546180725,-0.06849320977926254,0.06207913160324097
1772721167347558000,8.444557861328125,-0.795040488243103,0.05948295816779137,0.1066722646355629
1772721167366155000,8.463155029296875,-0.9101884961128235,0.1657734364271164,0.12896881997585297
1772721167384752000,8.481752197265624,-1.0118975639343262,0.3148244321346283,0.1573740392923355
1772721167403349200,8.500349365234374,-1.0543526411056519,0.46570804715156555,0.1738673895597458
1772721167421946000,8.518946044921876,-1.0552688837051392,0.5286270976066589,0.06788235157728195
1772721167440543200,8.537543212890625,-1.0693187713623047,0.3774380683898926,-0.08666644245386124
1772721167459140400,8.556140380859375,-1.0503820180892944,0.11049016565084457,-0.09063705801963806
1772721167477737200,8.5747373046875,-1.0903936624526978,0.030772313475608826,0.008628465235233307
1772721167496334300,8.593334228515625,-1.165224552154541,-0.13843722641468048,0.21051926910877228
1772721167514931200,8.61193115234375,-1.2907572984695435,-0.21662792563438416,0.48327040672302246
1772721167533528300,8.6305283203125,-1.4257583618164062,-0.26396992802619934,0.7004328370094299
1772721167552125400,8.64912548828125,-1.49081552028656,-0.33085963129997253,0.7832050323486328
1772721167570722300,8.667722412109375,-1.4508038759231567,-0.44173160195350647,0.708984911441803
1772721167589319400,8.6863193359375,-1.3170244693756104,-0.5538252592086792,0.5975021123886108
1772721167607916500,8.70491650390625,-1.1249074935913086,-0.7071523666381836,0.5269472599029541
1772721167626513400,8.723513427734375,-0.9465349912643433,-0.8351284861564636,0.5468003153800964
1772721167645110500,8.742110595703124,-0.8604030609130859,-0.8974367380142212,0.6509527564048767
1772721167663707400,8.760707275390626,-0.8329141139984131,-0.8595631122589111,0.7318923473358154
1772721167682304500,8.779304443359376,-0.7877101302146912,-0.7117338180541992,0.7108175158500671
1772721167700901600,8.797901611328125,-0.7122683525085449,-0.5529089570045471,0.6494256258010864
1772721167719498500,8.81649853515625,-0.6356047987937927,-0.3485747277736664,0.49487683176994324
1772721167738095600,8.835095703125,-0.5983420610427856,-0.0016035200096666813,0.2651916742324829
1772721167756692500,8.8536923828125,-0.5925388336181641,0.395764023065567,0.019929463043808937
1772721167775289600,8.87228955078125,-0.5821541547775269,0.7131083011627197,-0.15752676129341125
1772721167793886500,8.890886474609376,-0.5568032264709473,0.9311869740486145,-0.2977202236652374
1772721167812483600,8.909483642578126,-0.49663305282592773,0.9855539798736572,-0.4119519293308258
1772721167831080700,8.928080810546875,-0.39675667881965637,0.7189114689826965,-0.330706924200058
1772721167849677600,8.946677490234375,-0.2767217457294464,0.37804892659187317,-0.035964664071798325
1772721167868274400,8.9652744140625,-0.19914191961288452,-0.08315397053956985,0.3995819091796875
1772721167886871600,8.98387158203125,-0.12950333952903748,-0.5214494466781616,0.7065414786338806
1772721167905468700,9.00246875,-0.0818558782339096,-0.8210785984992981,0.8131373524665833
1772721167924065500,9.0210654296875,-0.1233946830034256,-0.8467349410057068,0.7697659730911255
1772721167942662700,9.03966259765625,-0.24312418699264526,-0.7184533476829529,0.5150353908538818
1772721167961259500,9.058259521484375,-0.4318813979625702,-0.3421606421470642,0.14943279325962067
1772721167979856600,9.076856689453125,-0.6890554428100586,0.09124792367219925,-0.14622575044631958
1772721167998453500,9.09545361328125,-0.9227112531661987,0.4266127049922943,-0.2952767610549927
1772721168017050600,9.114050537109375,-1.0219768285751343,0.6071232557296753,-0.30657777190208435
1772721168035647500,9.1326474609375,-1.0164790153503418,0.5814669132232666,-0.1963166743516922
1772721168054244600,9.15124462890625,-0.8869756460189819,0.4324159026145935,-0.07628174126148224
1772721168072841500,9.169841552734376,-0.6524035930633545,0.19753839075565338,0.031230462715029716
1772721168091438600,9.1884384765625,-0.37201663851737976,-0.09873101860284805,0.1066722646355629
1772721168110035500,9.207035400390625,-0.09010255336761475,-0.40171995759010315,0.16195552051067352
1772721168128632600,9.225632568359375,0.1740964651107788,-0.6729438900947571,0.2086866796016693
1772721168147229400,9.2442294921875,0.3707949221134186,-0.7963386178016663,0.22609633207321167
1772721168165826300,9.262826416015624,0.4523453712463379,-0.8296307325363159,0.16989676654338837
1772721168184423400,9.28142333984375,0.4407389461994171,-0.7517454624176025,0.08681915700435638
1772721168203020300,9.300020263671875,0.3842339515686035,-0.5241983532905579,-0.03932442143559456
1772721168221617400,9.318617431640625,0.2562577724456787,-0.22640176117420197,-0.11323905736207962
1772721168240214300,9.33721435546875,0.08674279600381851,0.10499238222837448,-0.10102175921201706
1772721168258811400,9.355811279296875,-0.0409279391169548,0.349643737077713,-0.15416699647903442
1772721168277408300,9.374408203125,-0.16310089826583862,0.48586657643318176,-0.27053675055503845
1772721168296005400,9.39300537109375,-0.2761108875274658,0.48586657643318176,-0.3649153411388397
1772721168314602200,9.411602294921876,-0.3656025826931,0.33895358443260193,-0.3346775472164154
1772721168333199400,9.430199462890625,-0.40714138746261597,0.1352301836013794,-0.1807396113872528
1772721168351796200,9.448796142578125,-0.3897317349910736,-0.06879864633083344,-0.05520690605044365
1772721168370393000,9.46739306640625,-0.30970844626426697,-0.2349538654088974,-0.020387612283229828
1772721168388990200,9.485990234375,-0.1640172004699707,-0.3317759335041046,-0.07170025259256363
1772721168407587000,9.504587158203124,-0.0021380267571657896,-0.3946950137615204,-0.15172353386878967
1772721168426184000,9.523183837890626,0.09712749719619751,-0.3061196208000183,-0.212504580616951
1772721168444781000,9.541781005859375,0.13561198115348816,-0.28993168473243713,-0.16638429462909698
1772721168463378000,9.5603779296875,0.10720676928758621,-0.25786128640174866,-0.0939968153834343
1772721168481975000,9.57897509765625,0.07757982611656189,-0.21174100041389465,-0.027717988938093185
1772721168500572000,9.597572021484375,0.04673115536570549,-0.14637847244739532,0.003741546766832471
1772721168519168800,9.616168701171874,-0.006414080038666725,-0.0550541877746582,-0.004505127668380737
1772721168537766000,9.634765869140624,-0.05436696484684944,0.027107125148177147,-0.018860450014472008
1772721168556362800,9.65336279296875,-0.20677772164344788,0.24029892683029175,-0.0939968153834343
1772721168574959900,9.6719599609375,-0.3387245237827301,0.2827540338039398,-0.1816559135913849
1772721168593556700,9.690556640625,-0.3433060050010681,0.3655261993408203,-0.13339759409427643
1772721168612153600,9.709153564453125,-0.32039856910705566,0.4699840843677521,-0.0628427118062973
1772721168630750700,9.727750732421875,-0.32070401310920715,0.5356520414352417,-0.0243582334369421
1772721168649347600,9.74634765625,-0.318871408700943,0.4580722153186798,0.050778135657310486
1772721168667944400,9.7649443359375,-0.19883649051189423,0.1703549176454544,0.11308634281158447
1772721168686541300,9.783541259765625,-0.03237583488225937,-0.34032803773880005,0.17081306874752045
1772721168705138400,9.802138427734375,0.06994401663541794,-0.6130791902542114,0.1986074149608612
1772721168723735300,9.8207353515625,0.20647229254245758,-0.8375719785690308,0.1989128440618515
1772721168742332200,9.839332275390625,0.30970844626426697,-0.9728785157203674,0.15126539766788483
1772721168760929300,9.85792919921875,0.3597993552684784,-0.9411135315895081,0.08926261961460114
1772721168779526100,9.876526123046874,0.3075704276561737,-0.9435570240020752,0.04894553869962692
1772721168798123000,9.895123046875,0.1805105358362198,-0.8836922645568848,0.03306305781006813
1772721168816720000,9.913719970703125,0.01282816007733345,-0.6323214173316956,0.036422811448574066
1772721168835317000,9.93231689453125,-0.11148282140493393,-0.3216966688632965,-0.04482220485806465
1772721168853913900,9.950913818359375,-0.18142683804035187,0.00022907429956831038,-0.247629314661026
1772721168872510700,9.9695107421875,-0.2761108875274658,0.283975750207901,-0.5041925311088562
1772721168891107800,9.98810791015625,-0.33078327775001526,0.2372446060180664,-0.6850084662437439
1772721168909704700,10.00670458984375,-0.32589635252952576,0.22838707268238068,-0.6889790892601013
1772721168928301600,10.025301513671875,-0.2813032269477844,0.22808164358139038,-0.3920988440513611
1772721168946898400,10.0438984375,-0.3500255048274994,0.19753839075565338,-0.045738499611616135
1772721168965495600,10.06249560546875,-0.4379900395870209,0.19326233863830566,0.14851650595664978
1772721168984092400,10.081092529296875,-0.45326167345046997,0.23388485610485077,0.12774710357189178
1772721169002689300,10.099689208984374,-0.38820457458496094,0.5270999670028687,-0.07506000995635986
1772721169021286100,10.1182861328125,-0.3854556679725647,0.034437503665685654,-0.4892263412475586
1772721169039883000,10.136883056640626,-0.30512696504592896,0.0319940410554409,-0.6269763112068176
1772721169058480000,10.155480224609375,-0.27519458532333374,0.1966221034526825,-0.49136435985565186
1772721169077077000,10.174076904296875,-0.32620179653167725,0.30260714888572693,-0.29130613803863525
1772721169095673900,10.192673828125,-0.4156934916973114,0.3502545952796936,-0.14897464215755463
1772721169114270700,10.211270751953125,-0.4633409380912781,0.30718863010406494,-0.1196531355381012
1772721169132867600,10.22986767578125,-0.5094612240791321,0.2528216540813446,-0.18226677179336548
1772721169151464700,10.248464599609376,-0.5451968312263489,0.2580140233039856,-0.1816559135913849
1772721169170061600,10.2670615234375,-0.5674933791160583,0.23449571430683136,-0.15202897787094116
1772721169188658400,10.285658447265625,-0.5482511520385742,0.22594361007213593,-0.13645191490650177
1772721169207255300,10.30425537109375,-0.5061014890670776,0.22594361007213593,-0.1498909443616867
1772721169225852200,10.32285205078125,-0.4608974754810333,0.2940550446510315,-0.15447242558002472
1772721169244449000,10.341448974609374,-0.44379326701164246,0.3349829614162445,-0.19478951394557953
1772721169263046000,10.3600458984375,-0.4517345130443573,0.32795801758766174,-0.279394268989563
1772721169281643000,10.37864306640625,-0.4987711012363434,0.29588761925697327,-0.3801869750022888
1772721169300240000,10.397239990234375,-0.602007269859314,0.2537379562854767,-0.4837285578250885
1772721169318836700,10.415836669921875,-0.7727439403533936,0.18471023440361023,-0.4846448302268982
1772721169337433600,10.43443359375,-0.9453132748603821,0.21342088282108307,-0.27511823177337646
1772721169356030700,10.45303076171875,-1.0751219987869263,0.2796997129917145,-0.02283107116818428
1772721169374627600,10.471627685546874,-1.1527018547058105,0.29588761925697327,0.07735075056552887
1772721169393224400,10.490224365234376,-1.1948515176773071,0.21006113290786743,0.03917170315980911
1772721169411821300,10.5088212890625,-1.2260055541992188,0.11293362826108932,-0.019471315667033195
1772721169430418200,10.527418212890625,-1.276707410812378,0.022525638341903687,0.012293653562664986
1772721169449015000,10.54601513671875,-1.324354887008667,-0.08987347781658173,0.12896881997585297
1772721169467612000,10.56461181640625,-1.3176352977752686,-0.16195552051067352,0.28351762890815735
1772721169486208800,10.583208740234374,-1.316108226776123,-0.1472947746515274,0.42707082629203796
1772721169504805600,10.6018056640625,-1.3674207925796509,-0.25786128640174866,0.5379427671432495
1772721169523402500,10.620402587890625,-1.3811652660369873,-0.4398989975452423,0.5938369035720825
1772721169541999400,10.638999267578125,-1.2974767684936523,-0.497320294380188,0.6601157784461975
1772721169560596200,10.65759619140625,-1.1948515176773071,-0.534277617931366,0.7743474841117859
1772721169579193000,10.676193115234375,-1.072678565979004,-0.35498878359794617,0.8580359220504761
1772721169597790000,10.6947900390625,-0.9587522745132446,-0.15676318109035492,0.8525381684303284
1772721169616387000,10.713386962890626,-0.9062178730964661,0.17188207805156708,0.6735547780990601
1772721169634984000,10.73198388671875,-0.9615011811256409,0.39484772086143494,0.307646781206131
1772721169653580800,10.750580810546875,-1.0836740732192993,0.3850739002227783,0.01870773360133171
1772721169672177700,10.769177734375,-1.2327251434326172,0.4024835228919983,-0.1089630052447319
1772721169690774500,10.7877744140625,-1.184772253036499,0.2723693251609802,-0.10193806141614914
1772721169709371400,10.806371337890624,-1.0378592014312744,0.17768529057502747,0.04130972921848297
1772721169727968300,10.82496826171875,-0.9541707634925842,-0.07857248187065125,0.19982914626598358
1772721169746565000,10.843565185546876,-0.8833104968070984,-0.4133263826370239,0.2508363425731659
1772721169765162000,10.862161865234375,-0.7751874327659607,-0.7260891199111938,0.14973822236061096
1772721169783758800,10.8807587890625,-0.7574723362922668,-0.8290198445320129,0.0703258067369461
1772721169802355700,10.899355712890625,-0.8148936033248901,-0.9493602514266968,-0.07047852128744125
1772721169820952600,10.91795263671875,-0.9666935205459595,-0.9875392913818359,-0.1291215419769287
1772721169839549400,10.936549560546876,-1.0430516004562378,-0.9734894037246704,-0.13767364621162415
1772721169858146300,10.955146240234376,-1.071456789970398,-0.9261473417282104,-0.1300378441810608
1772721169876743200,10.9737431640625,-1.1948515176773071,-0.6750819683074951,-0.0884990319609642
1772721169895340000,10.992340087890625,-1.4401136636734009,-0.516257107257843,-0.14225514233112335
1772721169913936600,11.0109365234375,-1.5735876560211182,-0.256334125995636,-0.23113596439361572
1772721169932533500,11.029533447265624,-1.5372412204742432,0.09980003535747528,-0.3551415205001831
1772721169951130400,11.04813037109375,-1.5418226718902588,0.31665703654289246,-0.37438374757766724
1772721169969727500,11.0667275390625,-1.6340632438659668,0.13645191490650177,-0.44005170464515686
1772721169988324400,11.085324462890625,-1.6490294933319092,0.055512335151433945,-0.4785361886024475
1772721170006921000,11.1039208984375,-1.5204424858093262,0.00847574882209301,-0.5240456461906433
1772721170025517800,11.122517822265625,-1.277012825012207,0.029245151206851006,-0.4733438491821289
1772721170044114700,11.14111474609375,-1.05496346950531,0.018555017188191414,-0.18287764489650726
1772721170062711600,11.159711669921874,-0.8833104968070984,-0.13813179731369019,0.1534034162759781
1772721170081308400,11.178308349609376,-0.7104357481002808,-0.3012326955795288,0.3430769443511963
1772721170099905300,11.1969052734375,-0.6108647584915161,-0.33055421710014343,0.31528258323669434
1772721170118502100,11.215502197265625,-0.4975493550300598,-0.1579848974943161,0.17050762474536896
1772721170137099000,11.23409912109375,-0.4004218578338623,-0.0006872228696011007,0.17661628127098083
1772721170155695900,11.25269580078125,-0.41355544328689575,0.19326233863830566,0.18608468770980835
1772721170174292700,11.271292724609374,-0.5115992426872253,0.3655261993408203,0.07704532146453857
1772721170192889300,11.289889404296876,-0.6478220820426941,0.14775292575359344,-0.1245400533080101
1772721170211486200,11.308486328125,-0.5409207344055176,0.083306685090065,-0.3652207851409912
1772721170230083000,11.3270830078125,-0.49602219462394714,0.028328854590654373,-0.38293585181236267
1772721170248680000,11.345679931640625,-0.5528326034545898,0.05062541738152504,-0.2928332984447479
