time,seconds_elapsed,z,y,x
1772721322016641300,0.027641357421875,0,0,0
1772721322035237400,0.0462373046875,-0.07764339447021484,0.006278291344642639,-0.03663051128387451
1772721322053833700,0.064833740234375,-0.12007713317871094,-0.033142246305942535,0.03575652837753296
1772721322072430000,0.08343017578125,0.030698776245117188,-0.06754861772060394,0.00789228081703186
1772721322091026400,0.1020263671875,0.1771697998046875,-0.03371790051460266,0.12565287947654724
1772721322109622800,0.120622802734375,0.11229991912841797,0.008160732686519623,0.07689514756202698
1772721322128219100,0.13921923828125,-0.048758506774902344,0.006897330284118652,0.007716476917266846
1772721322146815500,0.1578154296875,-0.1311960220336914,0.003986679017543793,-0.044863104820251465
1772721322165411800,0.176411865234375,0.15318965911865234,-0.028750121593475342,-0.10301318764686584
1772721322184008200,0.19500830078125,0.2660198211669922,-0.0286412313580513,-0.03723844885826111
1772721322202604500,0.2136044921875,0.0081634521484375,-0.0498211532831192,0.013286173343658447
1772721322221201000,0.232200927734375,-0.16351985931396484,-0.05437766760587692,0.11111113429069519
1772721322239797200,0.25079736328125,-0.051444053649902344,-0.07468607276678085,0.08107572793960571
1772721322258393600,0.2693935546875,0.10732746124267578,-0.08246563374996185,-0.01408851146697998
1772721322276990000,0.287989990234375,-0.06012535095214844,0.043933019042015076,-0.07369443774223328
1772721322295586300,0.30658642578125,-0.05446910858154297,0.03685697913169861,-0.10612940788269043
1772721322314182700,0.3251826171875,0.06210136413574219,-0.005873538553714752,-0.14446112513542175
1772721322332779000,0.343779052734375,0.0902872085571289,0.0010140910744667053,-0.06809747219085693
1772721322351375400,0.362375244140625,0.005511283874511719,0.005800612270832062,0.011710107326507568
1772721322369971700,0.3809716796875,-0.04605674743652344,-0.0006573796272277832,0.07860055565834045
1772721322388568300,0.399568359375,-0.08152961730957031,0.0026910603046417236,0.1320199966430664
1772721322407164700,0.41816455078125,0.05020332336425781,-0.06337165087461472,0.15278801321983337
1772721322425761000,0.436760986328125,0.012074470520019531,-0.06411884725093842,0.09358474612236023
1772721322444357400,0.455357421875,-0.0012121200561523438,-0.02681792713701725,0.041284412145614624
1772721322462953700,0.47395361328125,0.041520118713378906,0.026714380830526352,0.024482667446136475
1772721322481550300,0.49255029296875,-0.04080390930175781,0.08779338747262955,0.0006253421306610107
1772721322500146700,0.511146728515625,-0.1590566635131836,0.07886769622564316,0.01931619644165039
1772721322518743000,0.529742919921875,-0.03841876983642578,0.05552874505519867,-0.004882484674453735
1772721322537339400,0.54833935546875,0.2407817840576172,-0.03303025662899017,0.04580363631248474
1772721322555935700,0.566935791015625,0.1798229217529297,0.026924697682261467,0.06482553482055664
1772721322574532000,0.585531982421875,-0.09421920776367188,0.05038433521986008,0.0075833797454833984
1772721322593128700,0.604128662109375,-0.1246185302734375,-0.010871810838580132,-0.03352269530296326
1772721322611725000,0.62272509765625,0.05449485778808594,-0.12409579753875732,-0.06817495822906494
1772721322630321400,0.6413212890625,0.15348148345947266,-0.10373205691576004,-0.05105769634246826
1772721322648917800,0.659917724609375,0.05456066131591797,-0.09514511376619339,-0.023696869611740112
1772721322667514400,0.678514404296875,-0.12195873260498047,-0.05412276089191437,-0.048975586891174316
1772721322686110700,0.69711083984375,-0.09990978240966797,-0.04724632576107979,0.009829550981521606
1772721322704707000,0.71570703125,0.0747690200805664,-0.09357379376888275,0.08280369639396667
1772721322723303700,0.7343037109375,0.14512062072753906,-0.14848853647708893,0.09603118896484375
1772721322741900000,0.752900146484375,-0.03423118591308594,-0.11263777315616608,0.07066243886947632
1772721322760496400,0.771496337890625,-0.1436901092529297,-0.0816686749458313,0.014359503984451294
1772721322779092700,0.7900927734375,-0.19627952575683594,-0.03935209661722183,0.021164298057556152
1772721322797689300,0.808689453125,-0.16947555541992188,-0.004016422666609287,-0.03968915343284607
1772721322816285700,0.82728564453125,0.015654563903808594,-0.000563301146030426,-0.08466923236846924
1772721322834882300,0.84588232421875,0.023832321166992188,0.023467669263482094,-0.13577821850776672
1772721322853478700,0.864478759765625,0.06680107116699219,-0.052247148007154465,-0.10956263542175293
1772721322872075000,0.883074951171875,0.02648162841796875,-0.039021752774715424,-0.0026114583015441895
1772721322890671600,0.901671630859375,-0.24459266662597656,-0.00842495821416378,0.005200058221817017
1772721322909268000,0.92026806640625,-0.11407089233398438,-0.006376916076987982,-0.05219358205795288
1772721322927864300,0.9388642578125,0.23643779754638672,-0.04708988592028618,-0.07923737168312073
1772721322946461000,0.9574609375,0.17599105834960938,0.010750398971140385,-0.016554057598114014
1772721322965057300,0.976057373046875,-0.1783609390258789,0.03035489097237587,-0.0034495294094085693
1772721322983654000,0.99465380859375,-0.23558425903320312,0.04626895859837532,0.03794729709625244
1772721323002250200,1.013250244140625,-0.06326961517333984,0.0017994008958339691,0.0423676073551178
1772721323020846600,1.0318466796875,0.06420040130615234,-0.023761559277772903,-0.01344326138496399
1772721323039443000,1.05044287109375,0.22392654418945312,-0.0035963403061032295,-0.07092076539993286
1772721323058039600,1.06903955078125,0.15073299407958984,0.05788432061672211,-0.04321169853210449
1772721323076636000,1.087635986328125,-0.13063621520996094,0.016565199941396713,-0.017607182264328003
1772721323095232500,1.106232421875,-0.09672260284423828,-0.01665790006518364,-0.013417810201644897
1772721323113828900,1.124828857421875,-0.0072650909423828125,-0.04094928875565529,0.009683310985565186
1772721323132425200,1.14342529296875,-0.04323577880859375,-0.03611420840024948,-0.020633339881896973
1772721323151021800,1.162021728515625,-0.010999679565429688,-0.028042681515216827,-0.03721645474433899
1772721323169618200,1.1806181640625,0.06753349304199219,-0.04197380691766739,-0.052969157695770264
1772721323188214800,1.19921484375,-0.057814598083496094,-0.022515054792165756,-0.05146282911300659
1772721323206811100,1.21781103515625,-0.26999473571777344,0.028330475091934204,0.03536653518676758
1772721323225407700,1.23640771484375,-0.1442718505859375,-0.04420049861073494,0.010070264339447021
1772721323244004000,1.255004150390625,0.2042837142944336,-0.08133774250745773,-0.047094106674194336
1772721323262600400,1.273600341796875,0.27936744689941406,0.016375575214624405,-0.020504802465438843
1772721323281197000,1.292197021484375,-0.04974174499511719,0.020783543586730957,0.020194649696350098
1772721323299793400,1.31079345703125,-0.21398639678955078,0.0051916539669036865,-0.014325439929962158
1772721323318390000,1.32939013671875,0.12286853790283203,-0.0196097269654274,-0.09923198819160461
1772721323336986400,1.347986328125,0.15972518920898438,-0.06502795219421387,0.0812900960445404
1772721323355582700,1.366582763671875,0.090606689453125,-0.05441178381443024,-0.06382164359092712
1772721323374179300,1.385179443359375,0.11223697662353516,0.014393690973520279,-0.007096767425537109
1772721323392775700,1.403775634765625,-0.07994651794433594,0.057090215384960175,-0.06915691494941711
1772721323411372300,1.422372314453125,-0.23566341400146484,0.03517153114080429,-0.12009528279304504
1772721323429968600,1.44096875,-0.13197040557861328,-0.026074234396219254,-0.09270992875099182
1772721323448565200,1.459565185546875,-0.05929279327392578,-0.04368894547224045,-0.002162933349609375
1772721323467161600,1.47816162109375,-0.15653038024902344,0.008277922868728638,0.06392106413841248
1772721323485758000,1.496758056640625,-0.22562217712402344,0.050973080098629,0.10651391744613647
1772721323504354600,1.5153544921875,-0.06896781921386719,0.03885488212108612,0.04078167676925659
1772721323522951000,1.533950927734375,0.16884899139404297,-0.025404654443264008,0.027086704969406128
1772721323541547500,1.552547607421875,0.25150012969970703,0.030364176258444786,0.05515781044960022
1772721323560144000,1.571143798828125,0.009393692016601562,0.028841711580753326,0.14026668667793274
1772721323578740200,1.589740234375,-0.01171875,0.007245324552059174,0.17758238315582275
1772721323597336800,1.6083369140625,0.005410194396972656,0.023310083895921707,0.17182153463363647
1772721323615933200,1.62693310546875,0.06994247436523438,0.024943452328443527,0.142869770526886
1772721323634529800,1.64552978515625,0.06472396850585938,0.0294511616230011,0.08183862268924713
1772721323653126100,1.664126220703125,-0.10127639770507812,0.06838913261890411,0.03085342049598694
1772721323671722800,1.68272265625,-0.04537200927734375,0.06352658569812775,-0.01220238208770752
1772721323690319000,1.701319091796875,0.06387901306152344,0.01685882732272148,-0.09444659948348999
1772721323708915500,1.71991552734375,-0.030872344970703125,0.05359157919883728,-0.07609179615974426
1772721323727512000,1.738511962890625,-0.0798025131225586,0.06409987062215805,-0.05690360069274902
1772721323746108400,1.7571083984375,0.01520538330078125,0.008697204291820526,-0.04809652268886566
1772721323764705000,1.775705078125,0.15627384185791016,-0.02533145248889923,-0.10333272814750671
1772721323783301400,1.79430126953125,-0.04364967346191406,0.006080128252506256,0.005340576171875
1772721323801897700,1.812897705078125,-0.11814498901367188,-0.08127706497907639,0.044700995087623596
1772721323820494300,1.831494384765625,-0.20833301544189453,-0.04631688445806503,0.1105489730834961
1772721323839090700,1.850090576171875,0.03460884094238281,-0.06766759604215622,-0.02030859887599945
1772721323857687300,1.868687255859375,0.1334514617919922,-0.048857081681489944,-0.07712191343307495
1772721323876283600,1.88728369140625,0.07597160339355469,-0.01807878166437149,-0.19437849521636963
1772721323894880300,1.90588037109375,-0.1469879150390625,0.030047662556171417,-0.176081582903862
1772721323913476600,1.9244765625,-0.16534423828125,0.033615611493587494,-0.11735835671424866
1772721323932073000,1.943072998046875,-0.06571102142333984,0.048866428434848785,0.0228741317987442
1772721323950669600,1.961669677734375,-0.04961872100830078,0.0575299933552742,0.13979648053646088
1772721323969266000,1.980265869140625,-0.07930183410644531,0.025344349443912506,0.0022997260093688965
1772721323987862500,1.998862548828125,0.001430511474609375,0.011819466948509216,-0.0954553633928299
1772721324006459000,2.017458984375,0.03941631317138672,0.10008902102708817,-0.05814474821090698
1772721324025055200,2.03605517578125,0.07046318054199219,0.06748594343662262,-0.043206289410591125
1772721324043651800,2.05465185546875,-0.02055644989013672,0.021741874516010284,-0.0044997334480285645
1772721324062248200,2.073248291015625,0.04691505432128906,-0.10110114514827728,0.022674188017845154
1772721324080844800,2.0918447265625,0.15915870666503906,-0.12751907110214233,0.04928503930568695
1772721324099441200,2.110441162109375,0.0028219223022460938,-0.03990940749645233,0.10487949103116989
1772721324118037800,2.129037841796875,-0.21784687042236328,-0.0019271224737167358,0.10694263875484467
1772721324136634000,2.147634033203125,-0.014079093933105469,-0.0866595134139061,0.12612813711166382
1772721324155230500,2.16623046875,0.08214569091796875,-0.11906597763299942,-0.004584953188896179
1772721324173827000,2.1848271484375,0.05620288848876953,-0.025236666202545166,-0.034102678298950195
1772721324192423400,2.20342333984375,-0.16534423828125,0.003800228238105774,-0.027003824710845947
1772721324211020000,2.22202001953125,-0.21996307373046875,-0.03205057233572006,-0.03315328061580658
1772721324229616400,2.240616455078125,0.0012836456298828125,-0.0657745748758316,-0.0761428028345108
1772721324248212700,2.259212646484375,0.08605289459228516,-0.07584371417760849,-0.07092274725437164
1772721324266809300,2.277809326171875,0.03057575225830078,-0.06616008281707764,0.015664801001548767
1772721324285405700,2.29640576171875,-0.0711669921875,-0.02641846239566803,0.06228214502334595
1772721324304002300,2.315002197265625,-0.035050392150878906,0.009576313197612762,-0.03490962088108063
1772721324322598700,2.3335986328125,0.17975330352783203,-0.05316212773323059,-0.07327760756015778
1772721324341195000,2.352195068359375,0.06679916381835938,-0.017747297883033752,-0.08232979476451874
1772721324359791600,2.37079150390625,-0.14197731018066406,0.028648480772972107,-0.07497970759868622
1772721324378388000,2.389387939453125,-0.09385395050048828,0.014086738228797913,-0.03586992621421814
1772721324396984300,2.407984375,0.10091972351074219,-0.05173482745885849,-0.01917259395122528
1772721324415581000,2.426580810546875,0.13788223266601562,-0.03889565169811249,0.06192447245121002
1772721324434177300,2.44517724609375,-0.027740478515625,-0.002015039324760437,0.16835705935955048
1772721324452774000,2.46377392578125,-0.11739730834960938,-0.018254324793815613,0.195179283618927
1772721324471370200,2.482370361328125,-0.07081031799316406,-0.06522233784198761,0.032193392515182495
1772721324489966600,2.500966552734375,0.09369659423828125,-0.10125075280666351,0.007644668221473694
1772721324508563200,2.519563232421875,0.04965400695800781,-0.030530400574207306,-0.011598408222198486
1772721324527159600,2.53815966796875,-0.0536041259765625,0.013034671545028687,-0.06229683756828308
1772721324545756200,2.556756103515625,-0.11651802062988281,0.003963500261306763,-0.03280901908874512
1772721324564352500,2.5753525390625,-0.002811431884765625,-0.03925319015979767,-0.03227457404136658
1772721324582948900,2.593948974609375,0.08208465576171875,-0.020091339945793152,-0.03544735908508301
1772721324601545200,2.612545166015625,0.06269264221191406,0.006500035524368286,-0.04503144323825836
1772721324620141800,2.631141845703125,-0.13273334503173828,0.0273466557264328,-0.013911262154579163
1772721324638738200,2.64973828125,-0.0916891098022461,0.0409918874502182,0.0045842379331588745
1772721324657334800,2.668334716796875,0.01982879638671875,0.04494684934616089,0.015198677778244019
1772721324675931100,2.68693115234375,0.12974834442138672,0.024606183171272278,-0.05092121660709381
1772721324694527500,2.705527587890625,0.024504661560058594,0.04322628676891327,-0.09302793443202972
1772721324713124000,2.7241240234375,-0.13999176025390625,0.05118526518344879,-0.10104575753211975
1772721324731720400,2.742720458984375,-0.05693244934082031,-0.00628141313791275,-0.08892330527305603
1772721324750316800,2.76131689453125,0.05936145782470703,-0.04025811702013016,-0.03404141962528229
1772721324768913400,2.779913330078125,0.11080265045166016,-0.06636665761470795,-0.027028650045394897
1772721324787509800,2.798509765625,-0.055352210998535156,0.03495696932077408,-0.027497082948684692
1772721324806106000,2.817106201171875,-0.034435272216796875,0.04770039767026901,0.0365353524684906
1772721324824702700,2.83570263671875,0.10414981842041016,0.0063776299357414246,0.02218286693096161
1772721324843299000,2.854299072265625,-0.013892173767089844,0.059919409453868866,0.06241784989833832
1772721324861895400,2.8728955078125,-0.10747432708740234,0.028498195111751556,0.03559572994709015
1772721324880492000,2.891491943359375,-0.013884544372558594,-0.02214769273996353,0.11555919051170349
1772721324899088400,2.91008837890625,0.1135263442993164,0.01202452927827835,0.07458947598934174
1772721324917684700,2.928684814453125,-0.03543281555175781,0.05908321589231491,0.1124117523431778
1772721324936281300,2.94728125,-0.11169719696044922,0.059949226677417755,0.009824305772781372
1772721324954877700,2.965877685546875,0.108978271484375,-0.008997462689876556,-0.026785358786582947
1772721324973474000,2.98447412109375,0.11858177185058594,-0.017264917492866516,-0.046377480030059814
1772721324992070700,3.003070556640625,-0.09540748596191406,-0.030537664890289307,0.04927392303943634
1772721325010667000,3.0216669921875,-0.11497974395751953,-0.07390235364437103,0.08460809290409088
1772721325029263400,3.040263427734375,0.12852764129638672,-0.0694420337677002,0.056935906410217285
1772721325047859700,3.058859619140625,0.18429851531982422,-0.016451604664325714,0.047513797879219055
1772721325066456300,3.077456298828125,0.00074005126953125,0.008904583752155304,0.012688487768173218
1772721325085052700,3.096052734375,-0.12704849243164062,0.04176829010248184,0.041018202900886536
1772721325103649000,3.11464892578125,-0.03949928283691406,0.047154054045677185,0.03790055215358734
1772721325122245600,3.13324560546875,0.1345205307006836,0.01292276382446289,-0.027369916439056396
1772721325140842000,3.151842041015625,0.10983753204345703,0.04058530926704407,-0.02903015911579132
1772721325159438600,3.1704384765625,-0.01387786865234375,0.05118422210216522,-0.03206925094127655
1772721325178035000,3.189034912109375,-0.1171121597290039,0.009228453040122986,0.01804545521736145
1772721325196631300,3.20763134765625,-0.0898284912109375,-0.09518085420131683,0.07963256537914276
1772721325215227600,3.2262275390625,0.019309043884277344,-0.12351005524396896,-0.003684699535369873
1772721325233824000,3.244823974609375,0.07623291015625,-0.10418973118066788,-0.023240312933921814
1772721325252420600,3.263420654296875,0.05257892608642578,-0.07966253161430359,-0.08115731179714203
1772721325271017000,3.282016845703125,-0.10351371765136719,-0.04539713263511658,-0.07481454312801361
1772721325289613300,3.30061328125,-0.1437845230102539,-0.021381206810474396,-0.0727984756231308
1772721325308210000,3.3192099609375,-0.03454399108886719,0.024118438363075256,-0.032791972160339355
1772721325326806300,3.33780615234375,0.05984210968017578,-0.01820942759513855,0.052390843629837036
1772721325345402600,3.356402587890625,0.07328319549560547,0.0006446689367294312,0.0672672837972641
1772721325363999000,3.3749990234375,-0.02179718017578125,-0.015168756246566772,0.16853490471839905
1772721325382595600,3.393595703125,-0.15123367309570312,0.055348724126815796,0.1633279025554657
1772721325401192000,3.41219189453125,-0.07908058166503906,0.08849366009235382,0.0897318422794342
1772721325419788300,3.430788330078125,0.15579891204833984,0.06771285831928253,-0.038170069456100464
1772721325438384600,3.449384521484375,0.21877098083496094,-0.003285318613052368,-0.066661536693573
1772721325456981200,3.467981201171875,-0.01946544647216797,-0.018652349710464478,-0.08990052342414856
1772721325475577600,3.48657763671875,0.13209056854248047,-0.026381835341453552,-0.007271230220794678
1772721325494174000,3.505174072265625,-0.0438079833984375,0.003543838858604431,-0.024891018867492676
1772721325512770600,3.5237705078125,-0.09567642211914062,-0.014024987816810608,-0.05103492736816406
1772721325531367000,3.542366943359375,0.02767181396484375,-0.04883788526058197,-0.02291002869606018
1772721325549963300,3.56096337890625,0.009021759033203125,0.003646671772003174,-0.005249351263046265
1772721325568559600,3.5795595703125,-0.06016349792480469,0.051305726170539856,-0.061546146869659424
1772721325587156000,3.598156005859375,-0.031148910522460938,0.011600285768508911,-0.06875601410865784
1772721325605752600,3.616752685546875,0.0010433197021484375,-0.011310487985610962,-0.05664092302322388
1772721325624349000,3.635348876953125,-0.03850269317626953,-0.06701028347015381,-0.1112116277217865
1772721325642945300,3.6539453125,-0.10396862030029297,-0.049177318811416626,-0.1363658308982849
1772721325661541600,3.672541748046875,-0.12000846862792969,-0.05480693280696869,-0.15191486477851868
1772721325680138200,3.69113818359375,-0.11614513397216797,-0.06700846552848816,-0.10465666651725769
1772721325698734600,3.709734619140625,0.018522262573242188,-0.03692637383937836,-0.09754076600074768
1772721325717331000,3.7283310546875,0.050228118896484375,-0.022041693329811096,-0.055894553661346436
1772721325735927300,3.74692724609375,-0.08904743194580078,-0.020624905824661255,-0.05402606725692749
1772721325754524000,3.76552392578125,-0.07033920288085938,-0.02977164089679718,-0.0192144513130188
1772721325773120300,3.784120361328125,0.02928638458251953,-0.025849923491477966,0.03929784893989563
1772721325791716600,3.802716552734375,0.15234947204589844,-0.05139254033565521,0.09685301780700684
1772721325810313000,3.82131298828125,0.11845111846923828,0.02273273468017578,0.1621697098016739
1772721325828909300,3.839909423828125,0.028804779052734375,0.054590970277786255,0.1822417676448822
1772721325847505700,3.858505615234375,0.06902694702148438,0.05569322407245636,0.10135909914970398
1772721325866102300,3.877102294921875,0.14387798309326172,0.02871127426624298,-0.023036092519760132
1772721325884698600,3.89569873046875,0.08868408203125,0.030326008796691895,-0.008832037448883057
1772721325903295000,3.914294921875,0.03592395782470703,-0.0377541184425354,0.03358694911003113
1772721325921891300,3.932891357421875,0.04490184783935547,-0.0426001101732254,0.03822046518325806
1772721325940487700,3.95148779296875,-0.1203012466430664,0.01587449014186859,0.056694746017456055
1772721325959084300,3.970084228515625,-0.2059640884399414,-0.0005810558795928955,0.017447054386138916
1772721325977680600,3.9886806640625,-0.06007671356201172,-0.01209898293018341,-0.008941054344177246
1772721325996277000,4.007277099609375,0.1095724105834961,-0.06580236554145813,-0.11656969785690308
1772721326014873300,4.025873291015625,0.0028858184814453125,0.03619077801704407,-0.19917768239974976
1772721326033469700,4.0444697265625,-0.14397239685058594,0.04355384409427643,-0.07495081424713135
1772721326052066000,4.063066162109375,-0.0933828353881836,0.0020583122968673706,0.018809884786605835
1772721326070662700,4.08166259765625,0.18264102935791016,-0.0845874696969986,0.016992509365081787
1772721326089259000,4.100259033203125,0.1734914779663086,-0.01827138662338257,0.10455673933029175
1772721326107855400,4.11885546875,-0.05507087707519531,-0.02518211305141449,0.13908883929252625
1772721326126451700,4.13745166015625,-0.1459980010986328,0.005500525236129761,0.06447988748550415
1772721326145048000,4.156048095703125,0.0069980621337890625,-0.0214700847864151,-0.004049330949783325
1772721326163644400,4.17464453125,0.10064029693603516,0.03599846363067627,-0.028793752193450928
1772721326182240800,4.19324072265625,0.008294105529785156,0.054863616824150085,-0.02861008048057556
1772721326200837400,4.21183740234375,-0.014182090759277344,0.06740120053291321,0.01027381420135498
1772721326219433700,4.230433837890625,0.06445121765136719,0.030582979321479797,0.0788506269454956
1772721326238030000,4.249030029296875,-0.008421897888183594,-0.02568705379962921,0.08034908771514893
1772721326256626400,4.26762646484375,-0.198486328125,-0.021756082773208618,0.06770706176757812
1772721326275222800,4.286222900390625,-0.18319416046142578,-0.032381683588027954,0.014747858047485352
1772721326293819100,4.304819091796875,0.05620861053466797,-0.04787605255842209,-0.027389317750930786
1772721326312415700,4.323415771484375,0.06213951110839844,0.007861465215682983,-0.026964634656906128
1772721326331012000,4.34201220703125,0.028005599975585938,0.06947885453701019,0.0018742084503173828
1772721326349608400,4.3606083984375,0.14845752716064453,0.03880469501018524,-0.01490899920463562
1772721326368204800,4.379204833984375,0.11254596710205078,0.012523531913757324,-0.03962782025337219
1772721326386801200,4.39780126953125,-0.07664299011230469,0.025449678301811218,-0.04175373911857605
1772721326405397500,4.4163974609375,-0.03720664978027344,-0.019899144768714905,-0.05426087975502014
1772721326423994000,4.434994140625,0.1805419921875,-0.09212049841880798,-0.06486645340919495
1772721326442590500,4.453590576171875,0.0895090103149414,-0.04331808537244797,-0.048654913902282715
1772721326461186800,4.472186767578125,-0.08181285858154297,0.016808614134788513,0.01725590229034424
1772721326479783200,4.490783203125,-0.1295642852783203,-0.008758962154388428,0.03843320906162262
1772721326498379500,4.509379638671875,-0.1343364715576172,-0.027243122458457947,-0.0465187132358551
1772721326516975900,4.527975830078125,-0.004085540771484375,-0.07471232861280441,-0.1675892174243927
1772721326535572200,4.546572265625,0.0446014404296875,-0.05829793959856033,-0.14983823895454407
1772721326554168600,4.56516845703125,-0.07496166229248047,0.0022335201501846313,-0.04219239950180054
1772721326572765000,4.583764892578125,-0.15252113342285156,0.02959074079990387,0.03514537215232849
1772721326591361300,4.602361328125,-0.08881473541259766,0.061467885971069336,0.11387014389038086
1772721326609957600,4.62095751953125,0.05050182342529297,0.035445183515548706,0.10424292087554932
1772721326628554000,4.639553955078125,0.011418342590332031,0.05113793909549713,0.10506561398506165
1772721326647150300,4.658150390625,0.04404640197753906,0.00020823627710342407,-0.041738927364349365
1772721326665747000,4.676746826171875,0.028655052185058594,0.01463966816663742,0.009541481733322144
1772721326684343300,4.69534326171875,0.03373146057128906,-0.00416623055934906,0.0025324225425720215
1772721326702939600,4.713939697265625,-0.1187429428100586,-0.00009679049253463745,0.009610950946807861
1772721326721536000,4.732535888671875,0.10626029968261719,-0.03414665162563324,-0.017700910568237305
1772721326740132400,4.75113232421875,0.09195423126220703,-0.047506384551525116,0.1260453462600708
1772721326758728700,4.769728759765625,-0.11776351928710938,0.015033513307571411,-0.04180261492729187
1772721326777325000,4.788324951171875,0.05906867980957031,-0.0068199485540390015,-0.0529157817363739
1772721326795921400,4.80692138671875,0.2924928665161133,-0.0813370794057846,-0.026300132274627686
1772721326814517800,4.825517822265625,0.18857192993164062,-0.022478006780147552,0.006986558437347412
1772721326833114000,4.844114013671875,-0.08544921875,0.04943773150444031,0.025938749313354492
1772721326851710500,4.86271044921875,-0.013548851013183594,0.06578151881694794,0.025190800428390503
1772721326870306800,4.881306884765625,0.09271717071533203,-0.03667420148849487,0.058689773082733154
1772721326888903200,4.899903076171875,0.05223369598388672,-0.0874352753162384,0.00021919608116149902
1772721326907499800,4.918499755859375,-0.057122230529785156,-0.023978769779205322,-0.013756215572357178
1772721326926096100,4.93709619140625,-0.0062541961669921875,0.0017899274826049805,0.00562015175819397
1772721326944692500,4.9556923828125,-0.10071277618408203,0.023252233862876892,0.010547786951065063
1772721326963288800,4.974288818359375,-0.2778282165527344,-0.004900053143501282,-0.055861979722976685
1772721326981885200,4.99288525390625,-0.04660511016845703,-0.06754258275032043,-0.1748942732810974
1772721327000481500,5.0114814453125,0.14061260223388672,-0.06745170801877975,0.012765765190124512
1772721327019078000,5.030077880859375,-0.05010032653808594,-0.04647906869649887,0.024245023727416992
1772721327037674200,5.04867431640625,-0.30858898162841797,-0.052221089601516724,0.04980599880218506
1772721327056270600,5.0672705078125,-0.1561422348022461,-0.056958235800266266,0.0019674599170684814
1772721327074867000,5.085866943359375,0.1392536163330078,-0.07275325804948807,-0.01698589324951172
1772721327093463300,5.10446337890625,-0.010373115539550781,0.04615864157676697,0.01352354884147644
1772721327112059600,5.1230595703125,-0.1360931396484375,0.06556449830532074,-0.017479687929153442
1772721327130656000,5.141656005859375,0.11014366149902344,-0.02352537214756012,0.0018314123153686523
1772721327149252400,5.16025244140625,0.28440093994140625,-0.0015937387943267822,0.0031684041023254395
1772721327167848700,5.1788486328125,0.17879295349121094,0.05966077744960785,-0.000051409006118774414
1772721327186445000,5.197445068359375,0.06357574462890625,0.02208895981311798,-0.02846202254295349
1772721327205041400,5.21604150390625,0.13019275665283203,-0.03640562295913696,-0.011141747236251831
1772721327223637800,5.2346376953125,0.06716537475585938,0.0015721023082733154,0.06200435757637024
1772721327242234000,5.253234130859375,-0.048323631286621094,0.03498980402946472,0.09252557158470154
1772721327260830500,5.27183056640625,-0.021013259887695312,0.07040080428123474,0.05463409423828125
1772721327279426800,5.2904267578125,-0.023322105407714844,0.010820016264915466,-0.023581206798553467
1772721327298023200,5.309023193359375,-0.13618850708007812,-0.01682153344154358,-0.061418741941452026
1772721327316619500,5.32761962890625,-0.23993873596191406,0.014787942171096802,-0.017627954483032227
1772721327335215900,5.3462158203125,-0.09427547454833984,-0.008056029677391052,0.009552091360092163
1772721327353812200,5.364812255859375,-0.15332317352294922,-0.0002390742301940918,-0.0376284122467041
1772721327372408600,5.38340869140625,-0.0733184814453125,0.025630950927734375,-0.1849897801876068
1772721327391005000,5.4020048828125,0.054749488830566406,-0.05552347004413605,-0.09742861986160278
1772721327409601300,5.420601318359375,0.3212146759033203,-0.025793179869651794,0.06461548805236816
1772721327428197600,5.43919775390625,-0.01399993896484375,0.044695064425468445,-0.08387908339500427
1772721327446794000,5.4577939453125,-0.023985862731933594,-0.0270499587059021,0.010865777730941772
1772721327465390300,5.476390380859375,-0.10864639282226562,-0.09839572012424469,0.17506344616413116
1772721327483986700,5.494986572265625,0.09636878967285156,-0.0732647031545639,0.1794591248035431
1772721327502583000,5.5135830078125,0.28983306884765625,-0.031004801392555237,0.0907839834690094
1772721327521179400,5.532179443359375,0.0908355712890625,0.04741781949996948,0.0018393099308013916
1772721327539775700,5.550775634765625,-0.08078765869140625,0.027870401740074158,-0.02138182520866394
1772721327558372000,5.5693720703125,-0.1304149627685547,0.02060490846633911,-0.13521379232406616
1772721327576968400,5.587968505859375,-0.07219505310058594,0.05229373276233673,-0.1282239854335785
1772721327595564800,5.606564697265625,0.05954551696777344,0.005143418908119202,-0.13927459716796875
1772721327614161200,5.6251611328125,-0.008204460144042969,0.017283901572227478,-0.061617136001586914
1772721327632757800,5.6437578125,-0.1765117645263672,0.012764200568199158,-0.0019219815731048584
1772721327651354000,5.66235400390625,-0.1557455062866211,0.032645732164382935,0.05778878927230835
1772721327669950500,5.680950439453125,0.20161056518554688,0.007626250386238098,-0.012075334787368774
1772721327688546800,5.699546875,0.07224845886230469,0.04218776524066925,0.0017373263835906982
1772721327707143200,5.71814306640625,0.10112762451171875,0.07573257386684418,0.021382153034210205
1772721327725739300,5.7367392578125,0.06951904296875,0.0381205677986145,-0.01670074462890625
1772721327744335600,5.755335693359375,0.07995033264160156,-0.03447914123535156,0.0131264328956604
1772721327762932000,5.773931884765625,0.034890174865722656,-0.11286969482898712,0.10181131958961487
1772721327781528300,5.7925283203125,-0.17281436920166016,-0.08242057263851166,0.2129291296005249
1772721327800124700,5.811124755859375,-0.17914199829101562,-0.0644829273223877,0.15534615516662598
1772721327818721000,5.829720947265625,0.10816478729248047,-0.0396091490983963,0.006303191184997559
1772721327837317400,5.8483173828125,0.18663597106933594,-0.0028138309717178345,-0.09392845630645752
1772721327855913700,5.866913818359375,-0.0040836334228515625,0.03592272102832794,-0.08352968096733093
1772721327874510000,5.885510009765625,-0.16684341430664062,0.03796131908893585,-0.1007935106754303
1772721327893106400,5.9041064453125,0.024114608764648438,-0.07084211707115173,-0.05759990215301514
1772721327911702800,5.922702880859375,0.06957721710205078,-0.07752043008804321,0.007205486297607422
1772721327930299100,5.941299072265625,-0.06583595275878906,-0.05956937372684479,0.04154506325721741
1772721327948895500,5.9598955078125,-0.07283306121826172,-0.02738495171070099,-0.03154945373535156
1772721327967491800,5.978491943359375,-0.004076957702636719,0.0033022016286849976,-0.040951818227767944
1772721327986088200,5.997088134765625,-0.05309772491455078,0.008104309439659119,-0.04838559031486511
1772721328004684500,6.0156845703125,0.03757190704345703,-0.026212185621261597,-0.08580085635185242
1772721328023281000,6.034281005859375,0.1034841537475586,-0.015451803803443909,-0.10450237989425659
1772721328041877200,6.052877197265625,0.08448410034179688,0.01191641390323639,-0.03587427735328674
1772721328060473600,6.0714736328125,-0.0880136489868164,-0.007008597254753113,0.07767859101295471
1772721328079069700,6.090069580078125,-0.1301593780517578,-0.028949767351150513,0.10274714231491089
1772721328097666000,6.108666015625,0.00908660888671875,-0.060546815395355225,0.05342254042625427
1772721328116262700,6.1272626953125,0.03332328796386719,-0.009772121906280518,0.095770925283432
1772721328134859000,6.14585888671875,0.021765708923339844,0.01489005982875824,0.052180081605911255
1772721328153455400,6.164455322265625,-0.04290962219238281,0.056828662753105164,0.017709702253341675
1772721328172051700,6.1830517578125,0.07884407043457031,-0.025668039917945862,-0.08446124196052551
1772721328190647800,6.201647705078125,0.06188201904296875,0.014470189809799194,-0.03270938992500305
1772721328209244200,6.220244140625,-0.057875633239746094,0.006497621536254883,-0.0032151639461517334
1772721328227840500,6.238840576171875,-0.09687995910644531,-0.010388582944869995,-0.016116350889205933
1772721328246436900,6.257436767578125,-0.031581878662109375,-0.030930161476135254,-0.04965770244598389
1772721328265033200,6.276033203125,0.026618003845214844,-0.025191619992256165,0.023494035005569458
1772721328283629600,6.294629638671875,0.05839061737060547,-0.04623270034790039,-0.02726420760154724
1772721328302226000,6.313225830078125,0.013331413269042969,0.021079987287521362,-0.032304972410202026
1772721328320822300,6.331822265625,-0.04771232604980469,0.029402315616607666,-0.040309250354766846
1772721328339418600,6.350418701171875,-0.1219015121459961,0.008790373802185059,-0.008244842290878296
1772721328358015000,6.369014892578125,-0.03815746307373047,-0.052620649337768555,-0.03394809365272522
1772721328376611000,6.387611083984375,0.13458728790283203,-0.06568847596645355,-0.03981885313987732
1772721328395207400,6.40620751953125,0.1072683334350586,-0.06407074630260468,-0.04200279712677002
1772721328413803800,6.4248037109375,-0.10625743865966797,0.002016201615333557,0.09965565800666809
1772721328432400100,6.443400146484375,-0.12243080139160156,-0.04891642928123474,0.05351504683494568
1772721328450996500,6.46199658203125,0.12652206420898438,-0.06873287260532379,0.004485726356506348
1772721328469592800,6.4805927734375,0.19011211395263672,-0.009565949440002441,0.05146333575248718
1772721328488189200,6.499189208984375,-0.06496715545654297,-0.0019769519567489624,0.019545793533325195
1772721328506785500,6.51778564453125,-0.18946170806884766,-0.001568719744682312,-0.034908175468444824
1772721328525382000,6.5363818359375,-0.011350631713867188,-0.04678976535797119,-0.09918990731239319
1772721328543978200,6.554978271484375,0.12979888916015625,-0.01871611177921295,0.027426451444625854
1772721328562574600,6.57357470703125,0.08089542388916016,0.0469149649143219,0.06270700693130493
1772721328581171000,6.5921708984375,-0.085296630859375,0.06264029443264008,0.10592257976531982
1772721328599767300,6.610767333984375,-0.11454391479492188,0.04677927494049072,0.06444263458251953
1772721328618363400,6.62936328125,0.023400306701660156,0.005334094166755676,0.03142905235290527
1772721328636959700,6.647959716796875,0.14760589599609375,0.0252426415681839,-0.018929332494735718
1772721328655556000,6.66655615234375,0.1845226287841797,0.023392438888549805,-0.06685391068458557
1772721328674152400,6.68515234375,-0.011226654052734375,0.020822733640670776,0.0014921128749847412
1772721328692748800,6.703748779296875,-0.2366342544555664,0.025700628757476807,0.041868239641189575
1772721328711345200,6.72234521484375,-0.14987659454345703,-0.012992650270462036,0.026401996612548828
1772721328729941500,6.74094140625,0.14182662963867188,-0.04986017942428589,-0.02817705273628235
1772721328748537900,6.759537841796875,0.23673248291015625,-0.010745465755462646,-0.07217442989349365
1772721328767134200,6.77813427734375,-0.012139320373535156,0.04658222198486328,-0.013523876667022705
1772721328785730600,6.79673046875,-0.1518239974975586,0.0009943842887878418,-0.051112860441207886
1772721328804327000,6.815326904296875,0.03528881072998047,-0.018455922603607178,-0.04163658618927002
1772721328822923000,6.833923095703125,0.085601806640625,-0.0345175564289093,0.0043756067752838135
1772721328841519400,6.852519287109375,0.033041954040527344,-0.04050000011920929,0.0342772901058197
1772721328860116000,6.871115966796875,-0.09740352630615234,0.006156474351882935,-0.00011101365089416504
1772721328878712000,6.889712158203125,-0.009752273559570312,-0.024805724620819092,-0.05202922224998474
1772721328897308400,6.908308349609375,-0.003017425537109375,0.00868690013885498,-0.11148950457572937
1772721328915904800,6.92690478515625,0.0026903152465820312,-0.019662529230117798,-0.07601657509803772
1772721328934501000,6.945501220703125,-0.1359996795654297,-0.06810973584651947,-0.027363061904907227
1772721328953097500,6.964097412109375,0.05304241180419922,-0.07208952307701111,-0.11858847737312317
1772721328971693800,6.98269384765625,0.17091751098632812,0.008670419454574585,-0.19447195529937744
1772721328990290200,7.001290283203125,-0.10279655456542969,-0.04275926947593689,0.286188006401062
1772721329008886300,7.01988623046875,-0.6201868057250977,0.021105915307998657,-0.09113696217536926
1772721329027482600,7.038482666015625,-0.031217575073242188,-0.023157089948654175,-0.007326394319534302
1772721329046079000,7.057078857421875,0.25717926025390625,0.03177180886268616,-0.016183406114578247
1772721329064675300,7.07567529296875,0.06996536254882812,0.01717829704284668,-0.11384385824203491
1772721329083271700,7.094271728515625,-0.11772346496582031,0.009067356586456299,-0.1404556930065155
1772721329101868000,7.112867919921875,-0.13594341278076172,0.0012313425540924072,-0.022439032793045044
1772721329120464400,7.13146435546875,-0.02197551727294922,-0.02792036533355713,0.09935691952705383
1772721329139060700,7.150060791015625,0.019303321838378906,-0.010847210884094238,0.19411909580230713
1772721329157657000,7.168656982421875,0.07384586334228516,0.007856994867324829,0.15428993105888367
1772721329176253200,7.187253173828125,0.1256265640258789,0.03682401776313782,0.14018389582633972
1772721329194849500,7.205849609375,0.006275177001953125,0.06132951378822327,0.06152808666229248
1772721329213446000,7.22444580078125,0.04854869842529297,0.004277169704437256,-0.06241616606712341
1772721329232042200,7.243042236328125,0.1666088104248047,-0.018113672733306885,-0.06229060888290405
1772721329250638600,7.261638671875,0.03831672668457031,0.03236261010169983,-0.026484131813049316
1772721329269235000,7.28023486328125,-0.014064788818359375,0.02882230281829834,0.09660740196704865
1772721329287831000,7.2988310546875,-0.06866168975830078,-0.020878970623016357,0.1140420138835907
1772721329306427400,7.317427490234375,-0.045020103454589844,-0.05639612674713135,0.031744152307510376
1772721329325023700,7.336023681640625,0.024995803833007812,-0.04871140420436859,0.02252596616744995
1772721329343620000,7.3546201171875,0.015958786010742188,-0.06613814830780029,0.014312177896499634
1772721329362216400,7.373216552734375,0.04949378967285156,-0.04354292154312134,-0.014924556016921997
1772721329380812800,7.391812744140625,0.07912063598632812,-0.017680779099464417,-0.051751673221588135
1772721329399409200,7.4104091796875,-0.046042442321777344,0.014339327812194824,0.02514907717704773
1772721329418005500,7.429005615234375,-0.10240554809570312,-0.02253168821334839,0.03780621290206909
1772721329436601900,7.447601806640625,0.013133049011230469,-0.01876978576183319,-0.037784576416015625
1772721329455198000,7.466197998046875,0.10804557800292969,-0.009937018156051636,-0.09269031882286072
1772721329473794300,7.484794189453125,0.03411865234375,0.037591755390167236,-0.04858899116516113
1772721329492390700,7.503390625,-0.3792610168457031,0.05817267298698425,-0.020674139261245728
1772721329510987000,7.521987060546875,-0.017803192138671875,-0.02276606857776642,0.04472801089286804
1772721329529583400,7.540583251953125,0.2165994644165039,-0.03139534592628479,0.04754266142845154
1772721329548179700,7.5591796875,-0.05439281463623047,0.0012816786766052246,-0.03000664710998535
1772721329566776000,7.577776123046875,-0.17780494689941406,0.04869109392166138,0.020594686269760132
1772721329585372400,7.596372314453125,-0.0757303237915039,0.009705960750579834,-0.04504591226577759
1772721329603968500,7.614968505859375,0.21250152587890625,-0.002825409173965454,-0.028709828853607178
1772721329622564900,7.63356494140625,0.2323160171508789,0.01479947566986084,0.017403483390808105
1772721329641161200,7.6521611328125,-0.09470367431640625,-0.02010408043861389,-0.019112974405288696
1772721329659757600,7.670757568359375,-0.14814186096191406,-0.039925768971443176,-0.06854107975959778
1772721329678354000,7.68935400390625,-0.07439708709716797,-0.018500804901123047,-0.02282816171646118
1772721329696950000,7.707949951171875,0.10976696014404297,-0.05548170208930969,-0.06688737869262695
1772721329715546400,7.72654638671875,0.09619331359863281,0.024055033922195435,0.0016957521438598633
1772721329734142700,7.745142822265625,-0.13257598876953125,0.06728848814964294,0.06835237145423889
1772721329752739000,7.763739013671875,-0.2195281982421875,0.04802018404006958,0.03760603070259094
1772721329771335400,7.78233544921875,0.0014257431030273438,0.00801202654838562,0.029679834842681885
1772721329789931800,7.800931884765625,0.13489151000976562,0.013364225625991821,-0.08362060785293579
1772721329808528100,7.819528076171875,0.16098880767822266,0.05276337265968323,-0.1068553626537323
1772721329827124200,7.838124267578125,-0.03224372863769531,0.09006944298744202,-0.02756384015083313
1772721329845720600,7.856720458984375,0.1097726821899414,0.024565964937210083,-0.144203782081604
1772721329864317000,7.87531689453125,0.06032562255859375,0.012668371200561523,-0.05457150936126709
1772721329882913300,7.893913330078125,-0.1134796142578125,0.02623632550239563,-0.029945462942123413
1772721329901509600,7.912509521484375,-0.06369495391845703,-0.03633353114128113,0.07899092137813568
1772721329920105700,7.931105712890625,0.053829193115234375,-0.048423632979393005,0.021836698055267334
1772721329938702000,7.9497021484375,0.12305259704589844,-0.06945207715034485,-0.07179448008537292
1772721329957298400,7.96829833984375,0.010265350341796875,-0.013252019882202148,0.040672510862350464
1772721329975894800,7.986894775390625,-0.11257553100585938,-0.03738865256309509,0.09180137515068054
1772721329994491100,8.0054912109375,-0.04213523864746094,-0.026889339089393616,0.07189172506332397
1772721330013087500,8.02408740234375,0.11401176452636719,-0.015375688672065735,-0.01400706171989441
1772721330031683600,8.04268359375,-0.019702911376953125,0.01872594654560089,0.02616901695728302
1772721330050280000,8.061280029296874,-0.17045879364013672,0.01216423511505127,0.045318782329559326
1772721330068876300,8.079876220703126,-0.09555530548095703,-0.003955870866775513,-0.04192975163459778
1772721330087472600,8.09847265625,0.14663314819335938,-0.04739047586917877,-0.06173643469810486
1772721330106068700,8.11706884765625,-0.18200302124023438,0.018389925360679626,-0.07749873399734497
1772721330124665000,8.1356650390625,-0.05972576141357422,-0.1530006229877472,0.004662126302719116
1772721330143261400,8.154261474609376,0.052788734436035156,-0.08136171102523804,0.04590719938278198
1772721330161857800,8.17285791015625,0.21103858947753906,-0.023618042469024658,-0.046242356300354004
1772721330189752300,8.20075244140625,-0.012824058532714844,-0.010958656668663025,0.01361265778541565
1772721330208348700,8.2193486328125,-0.1146240234375,-0.049572378396987915,0.023155614733695984
1772721330226945000,8.237945068359375,0.06604194641113281,-0.05291135609149933,-0.04563385248184204
1772721330245541000,8.256541015625,0.15033340454101562,-0.05053524672985077,-0.025853872299194336
1772721330264137500,8.275137451171876,-0.10546398162841797,0.007126510143280029,-0.01245996356010437
1772721330282733800,8.29373388671875,-0.16220760345458984,0.004524484276771545,-0.008191913366317749
1772721330301330200,8.312330078125,0.030691146850585938,-0.03628155589103699,-0.009353458881378174
1772721330319926300,8.33092626953125,0.01961517333984375,0.007362633943557739,0.0493021160364151
1772721330338522600,8.349522705078124,-0.09918975830078125,-0.020988240838050842,0.01588761806488037
1772721330357119000,8.368118896484376,0.022734642028808594,-0.030318930745124817,-0.09376201033592224
1772721330375715300,8.38671533203125,0.22226238250732422,-0.012352943420410156,-0.004454076290130615
1772721330394311700,8.405311767578125,0.047575950622558594,-0.057489827275276184,0.12106676399707794
1772721330412907800,8.42390771484375,-0.17170047760009766,0.004528418183326721,0.026269614696502686
1772721330431504100,8.442504150390626,-0.11743927001953125,-0.02292175590991974,-0.03319118916988373
1772721330450100500,8.4611005859375,0.09015941619873047,-0.008399978280067444,-0.017885491251945496
1772721330468696800,8.47969677734375,0.10678768157958984,0.007388219237327576,0.04020455479621887
1772721330487293000,8.49829296875,-0.010028839111328125,0.0314861536026001,0.031993329524993896
1772721330505889300,8.51688916015625,-0.06904220581054688,0.005071133375167847,-0.04115809500217438
1772721330524485600,8.535485595703125,-0.011687278747558594,0.018401145935058594,0.01686951518058777
1772721330543082000,8.55408203125,-0.004313468933105469,0.02381587028503418,0.05093413591384888
1772721330561678300,8.57267822265625,0.019191741943359375,0.015572011470794678,-0.04917523264884949
1772721330580274400,8.5912744140625,0.015108108520507812,-0.005827575922012329,-0.05985270440578461
1772721330598870800,8.609870849609376,0.0074520111083984375,0.04863044619560242,-0.02947905659675598
1772721330617467100,8.628467041015625,0.02695178985595703,0.025179505348205566,0.009395048022270203
1772721330636063200,8.647063232421875,0.024827003479003906,-0.023449167609214783,-0.027548998594284058
1772721330654659600,8.66565966796875,0.054314613342285156,-0.015753045678138733,-0.029389724135398865
1772721330673256000,8.684255859375,-0.02237224578857422,-0.01572352647781372,0.053801923990249634
1772721330691852300,8.702852294921875,-0.1588764190673828,0.03137040138244629,0.05435645580291748
1772721330710448600,8.72144873046875,-0.05614757537841797,-0.004643529653549194,-0.01214514672756195
1772721330729044700,8.740044677734375,0.10763931274414062,-0.023954153060913086,-0.014570072293281555
1772721330747641000,8.75864111328125,0.03465557098388672,0.011951178312301636,0.0021448731422424316
1772721330766237400,8.777237548828126,-0.03021526336669922,0.06618344783782959,-0.009518399834632874
1772721330784833500,8.79583349609375,0.02921581268310547,0.061391979455947876,-0.006140410900115967
1772721330803430000,8.814429931640625,0.015003204345703125,0.007597118616104126,-0.0005112290382385254
1772721330822026200,8.833026123046874,-0.0928964614868164,0.026262909173965454,-0.021270811557769775
1772721330840622600,8.85162255859375,-0.11158275604248047,0.02255532145500183,-0.009197726845741272
1772721330859219000,8.870218994140625,0.04705810546875,0.016680210828781128,-0.07620869576931
1772721330877815000,8.88881494140625,0.026688575744628906,-0.018905431032180786,-0.02244013547897339
1772721330896411400,8.907411376953124,-0.040676116943359375,-0.041624635457992554,0.025889337062835693
1772721330915007700,8.9260078125,0.0030183792114257812,-0.018170133233070374,0.0005107969045639038
1772721330933603800,8.944603759765625,0.19161415100097656,-0.023027494549751282,-0.06397198140621185
1772721330952200200,8.9632001953125,0.09686946868896484,0.025996685028076172,-0.09119799733161926
1772721330970796500,8.981796630859375,-0.13226985931396484,-0.00950920581817627,-0.07123462855815887
1772721330989393000,9.000392822265624,-0.1194009780883789,-0.10548284649848938,-0.035542652010917664
1772721331007989000,9.018989013671876,-0.03864002227783203,-0.02976951003074646,0.04133008420467377
1772721331026585300,9.03758544921875,-0.04583930969238281,0.0143280029296875,0.10527678579092026
1772721331045181700,9.056181640625,-0.038349151611328125,0.037863075733184814,0.04349140822887421
1772721331063778000,9.074778076171874,0.05986499786376953,0.06492957472801208,0.08438815921545029
1772721331082374100,9.0933740234375,0.041359901428222656,0.05592980980873108,0.05885964632034302
1772721331100970500,9.111970458984375,-0.00031280517578125,0.036570221185684204,0.03257330507040024
1772721331119566800,9.13056689453125,0.1105508804321289,0.034523844718933105,0.048706769943237305
1772721331138163000,9.149162841796874,0.004848480224609375,0.08247175812721252,0.045202478766441345
1772721331156759300,9.16775927734375,-0.09998512268066406,0.061116695404052734,-0.03407315909862518
1772721331175355600,9.186355712890625,-0.013492584228515625,0.026127904653549194,-0.013301864266395569
1772721331193952000,9.204951904296875,-0.0038909912109375,-0.026858165860176086,0.015925332903862
1772721331212548000,9.223548095703125,0.032439231872558594,-0.04317936301231384,0.03415754437446594
1772721331231144400,9.24214453125,-0.035073280334472656,-0.02225947380065918,0.0297698974609375
1772721331249740500,9.260740478515626,-0.010530471801757812,-0.034663259983062744,-0.04309745132923126
1772721331268337000,9.2793369140625,0.10412120819091797,-0.023140430450439453,0.01010964810848236
1772721331286933200,9.297933349609375,0.08872318267822266,-0.004591226577758789,-0.01996617019176483
1772721331305529600,9.316529541015624,-0.02731037139892578,-0.03258293867111206,0.031174153089523315
1772721331324125700,9.335125732421876,-0.08935356140136719,-0.02980847656726837,0.02792559564113617
1772721331342722000,9.35372216796875,0.04372692108154297,-0.0756399929523468,-0.06308075785636902
1772721331361318400,9.372318359375,0.09980583190917969,-0.037348151206970215,-0.023158490657806396
1772721331379914500,9.39091455078125,-0.029570579528808594,-0.01710839569568634,0.01139862835407257
1772721331398510800,9.4095107421875,-0.07616996765136719,-0.009199082851409912,0.030726835131645203
1772721331417107200,9.428107177734375,-0.053664207458496094,-0.040583640336990356,-0.009927958250045776
1772721331435703300,9.446703369140625,0.04391193389892578,-0.04176147282123566,-0.022802457213401794
1772721331454299600,9.465299560546875,0.09564971923828125,-0.06534391641616821,-0.010708421468734741
1772721331472896000,9.48389599609375,0.010004043579101562,0.0058930665254592896,0.04549133777618408
1772721331491492000,9.5024921875,-0.12128639221191406,0.041176632046699524,0.03911519795656204
1772721331510088400,9.52108837890625,-0.030442237854003906,-0.014066725969314575,-0.08988575637340546
1772721331528684800,9.539684814453125,0.20699501037597656,-0.038508012890815735,0.06762997806072235
1772721331547281000,9.558281005859374,0.07027053833007812,-0.004308938980102539,0.013115011155605316
1772721331565877200,9.576877197265626,-0.16509532928466797,0.02773645520210266,0.09434373676776886
1772721331584473600,9.5954736328125,-0.1632223129272461,0.09023001790046692,-0.03846631944179535
1772721331603069700,9.614069580078125,0.3642463684082031,-0.046460241079330444,0.018819868564605713
1772721331621666000,9.632666015625,0.11245536804199219,-0.004391849040985107,-0.024671882390975952
1772721331640262400,9.651262451171876,-0.23727703094482422,-0.021583884954452515,-0.02197406440973282
1772721331658858500,9.6698583984375,-0.1279916763305664,-0.1470922976732254,-0.0991375744342804
1772721331677454800,9.688454833984375,0.22751235961914062,-0.04642508924007416,-0.11080434918403625
1772721331696051000,9.707051025390625,0.08878707885742188,0.009561508893966675,-0.06091360002756119
1772721331714647300,9.725647216796874,-0.10303306579589844,0.008563250303268433,-0.0908794179558754
1772721331733243600,9.74424365234375,-0.2756175994873047,0.012678593397140503,0.06070682406425476
1772721331751840000,9.762840087890625,-0.11304855346679688,-0.07444784045219421,0.004445232450962067
1772721331770436000,9.78143603515625,0.2441091537475586,-0.10278205573558807,-0.021758928894996643
1772721331789032400,9.800032470703124,0.29662418365478516,-0.0523526668548584,0.029623396694660187
1772721331807628500,9.818628662109376,-0.09281730651855469,0.04943549633026123,0.030081622302532196
1772721331826225000,9.837224853515625,-0.3658933639526367,0.05845227837562561,0.03070448338985443
1772721331844821200,9.8558212890625,-0.1996021270751953,-0.012460574507713318,-0.02054031938314438
1772721331863417300,9.874417236328124,0.3047599792480469,-0.11038090288639069,-0.08793500810861588
1772721331882013700,9.893013671875,0.32485103607177734,-0.025817275047302246,-0.001956559717655182
1772721331900609800,9.91160986328125,-0.09650897979736328,0.03295862674713135,0.044268690049648285
1772721331919206100,9.9302060546875,-0.2804117202758789,0.04822744429111481,0.03296653926372528
1772721331937802500,9.948802490234375,-0.05095195770263672,0.04743359982967377,0.02479492872953415
1772721331956398600,9.967398681640624,0.10975074768066406,-0.0049823373556137085,-0.04605592042207718
1772721331974995000,9.985994873046875,-0.06810665130615234,0.07856351137161255,-0.03414321690797806
1772721331993591000,10.004591064453125,-0.02105998992919922,0.09992732107639313,-0.01778830587863922
1772721332021485600,10.032485595703125,0.14146041870117188,0.04698346555233002,-0.000481434166431427
1772721332040081700,10.05108154296875,0.0057888031005859375,0.04853680729866028,0.03631611168384552
1772721332058678000,10.069677978515625,-0.2706441879272461,0.021407604217529297,0.08380736410617828
1772721332077274400,10.0882744140625,-0.02913951873779297,-0.0644155889749527,-0.01558782160282135
1772721332095870500,10.106870361328125,0.42467308044433594,-0.036764875054359436,-0.0008752197027206421
1772721332114466800,10.125466796875,0.19367122650146484,0.0710216611623764,-0.002451270818710327
1772721332133063000,10.14406298828125,-0.17721939086914062,0.02468651533126831,-0.013262555003166199
1772721332151659300,10.1626591796875,-0.23357868194580078,0.00013911724090576172,-0.05506928265094757
1772721332170255600,10.181255615234376,0.03445148468017578,-0.029029786586761475,-0.03838382661342621
1772721332188851700,10.199851806640625,0.1503591537475586,-0.04206204414367676,-0.011091545224189758
1772721332207448000,10.218447998046875,-0.0850973129272461,0.0415402352809906,-0.22562965750694275
1772721332226044200,10.237044189453124,-0.06264019012451172,-0.0416991263628006,-0.019996896386146545
1772721332244640500,10.255640625,0.04615306854248047,-0.011429399251937866,0.004708290100097656
1772721332263236900,10.27423681640625,-0.047020912170410156,0.04004424810409546,0.10075044631958008
1772721332281833000,10.2928330078125,0.08313560485839844,-0.05789679288864136,0.050930365920066833
1772721332300429300,10.31142919921875,0.09710693359375,-0.021790966391563416,0.023303911089897156
1772721332319025400,10.330025390625,-0.1223745346069336,0.04011797904968262,0.11316065490245819
1772721332337621800,10.348621826171875,-0.2613983154296875,0.001139134168624878,0.07167858630418777
1772721332356218000,10.367218017578125,0.05071449279785156,-0.10780787467956543,-0.05501582473516464
1772721332374814200,10.385814208984375,0.2659873962402344,-0.0597134530544281,0.08697600662708282
1772721332393410600,10.40441064453125,0.04868125915527344,0.004190593957901001,0.1109393760561943
1772721332412006700,10.423006591796875,-0.055871009826660156,-0.015725702047348022,0.09136874228715897
1772721332430603000,10.44160302734375,-0.1408090591430664,0.07250288128852844,-0.014937341213226318
1772721332449199000,10.46019921875,-0.07889080047607422,0.013273268938064575,0.015990741550922394
1772721332467795500,10.47879541015625,0.024030685424804688,-0.006017804145812988,-0.021778561174869537
1772721332486391600,10.4973916015625,0.15771102905273438,-0.03602828085422516,0.009177573025226593
1772721332504988000,10.51598779296875,-0.034461021423339844,-0.00007024407386779785,-0.025878675282001495
1772721332523584300,10.534584228515625,-0.1401529312133789,0.05469319224357605,-0.0654086321592331
1772721332542180400,10.553180419921874,-0.06650352478027344,0.043973177671432495,-0.053243763744831085
1772721332560776700,10.571776611328126,0.10467147827148438,-0.011938348412513733,-0.05809147655963898
1772721332579372800,10.590372802734375,0.064544677734375,-0.0033045709133148193,0.03379378467798233
1772721332597969200,10.60896923828125,-0.00600433349609375,-0.03892126679420471,-0.006277620792388916
1772721332616565200,10.627565185546874,0.02232837677001953,-0.03020864725112915,-0.0161658376455307
1772721332635161600,10.64616162109375,0.0035953521728515625,0.0023949146270751953,-0.033217839896678925
1772721332653757700,10.6647578125,-0.09343242645263672,0.04961276054382324,-0.015336476266384125
1772721332672354000,10.68335400390625,-0.056067466735839844,0.015210241079330444,0.000827498733997345
1772721332690950400,10.701950439453125,0.1905193328857422,-0.03948363661766052,-0.022917024791240692
1772721332709546500,10.72054638671875,0.1002645492553711,0.0745384693145752,0.05493123084306717
1772721332728142600,10.739142578125,-0.15956974029541016,0.06697580218315125,0.04361872375011444
1772721332746739000,10.757739013671875,-0.18562602996826172,0.029947936534881592,-0.024699322879314423
1772721332765335300,10.776335205078125,0.03035259246826172,-0.03747880458831787,-0.03761695325374603
1772721332783931400,10.794931396484374,0.05689239501953125,-0.03573521971702576,-0.032937802374362946
1772721332802527700,10.81352783203125,0.07748699188232422,-0.059954360127449036,-0.003969058394432068
1772721332821123800,10.832123779296875,0.1035604476928711,-0.04976695775985718,-0.01192377507686615
1772721332839720200,10.85072021484375,-0.13585662841796875,-0.006584450602531433,0.07033804804086685
1772721332858316300,10.86931640625,-0.15170860290527344,-0.05420885980129242,0.0973825752735138
1772721332876912600,10.88791259765625,0.058208465576171875,-0.15193071961402893,0.016188226640224457
1772721332895508700,10.9065087890625,0.3630952835083008,-0.09552666544914246,-0.23488616943359375
1772721332914105000,10.92510498046875,0.019334793090820312,0.11927950382232666,-0.03958553820848465
1772721332932701200,10.943701171875,-0.2804069519042969,0.11296746134757996,0.04468826949596405
1772721332951297500,10.962297607421876,-0.23669052124023438,-0.003374934196472168,0.12107434123754501
1772721332969893600,10.9808935546875,0.0181884765625,-0.042713016271591187,0.00357808917760849
