time,seconds_elapsed,z,y,x
1772796377705474800,0.065474853515625,-0.6708721394062042,-0.1910488242195919,0.3111734793776646
1772796377715466800,0.075466796875,-0.5763976199418306,-0.17995386810097844,0.3284032849894836
1772796377725459000,0.085458984375,-0.5366811111032962,-0.17085530996397136,0.2904625901844352
1772796377735452000,0.095451904296875,-0.4947568630874157,-0.16061024867296217,0.24311620752196758
1772796377745443800,0.10544384765625,-0.4041033632159233,-0.11168247857056557,0.18288111719191072
1772796377755436800,0.115436767578125,-0.3648299219697714,-0.10898048960287124,0.1159373778023757
1772796377765428700,0.1254287109375,-0.3428729417055845,-0.09347195482570678,0.021885394599009303
1772796377775421000,0.1354208984375,-0.3278314399182796,-0.09054196578841656,-0.049395424146763976
1772796377785413600,0.14541357421875,-0.3073503774255514,-0.08042772780284285,-0.07515877442397177
1772796377795405800,0.15540576171875,-0.25061025307178497,-0.031378523277863855,-0.119017808161024
1772796377805399000,0.16539892578125,-0.1715197652220726,-0.013205518531799316,-0.15225657235281542
1772796377815390700,0.175390625,-0.07874094375967979,0.0062272039517760275,-0.20503316337047142
1772796377825384000,0.185384033203125,-0.009368716847896575,0.0034944179870188235,-0.25296554749365896
1772796377835375900,0.1953759765625,0.04187456365525722,-0.0028624402264133095,-0.3120436498083174
1772796377845367800,0.205367919921875,0.1262146425962448,-0.03764781280569732,-0.3911601854147389
1772796377855360800,0.21536083984375,0.20818039362132548,-0.08638685540296137,-0.5009576904889196
1772796377865353000,0.22535302734375,0.27144553582966324,-0.15392335478756575,-0.592936484147422
1772796377875346000,0.235345947265625,0.28523616077303887,-0.18784491361174732,-0.6361402871124446
1772796377885337900,0.245337890625,0.3256073341280222,-0.18029617873262613,-0.6542490675158799
1772796377895330000,0.255330078125,0.35393911012113094,-0.1697072724400088,-0.6167239312417805
1772796377905322800,0.26532275390625,0.3673696695804596,-0.19722838963735848,-0.6147274236623197
1772796377915315000,0.27531494140625,0.3359475263565779,-0.19439824424535035,-0.6110020464636385
1772796377925307600,0.2853076171875,0.2657704128026962,-0.19855963824111966,-0.5793199005967006
1772796377935299800,0.2952998046875,0.2088514247506857,-0.17804233539123088,-0.4680640134077519
1772796377945291800,0.305291748046875,0.15499357783496379,-0.17188889079540967,-0.36940205219089983
1772796377955284700,0.31528466796875,0.1302022509276867,-0.15087346569765359,-0.3132865625414997
1772796377965277000,0.32527685546875,0.12578034283220768,-0.13176135347057133,-0.2904570189601742
1772796377975270000,0.335269775390625,0.10730243685543536,-0.11213354680631309,-0.24440049344515427
1772796377985261800,0.34526171875,0.059494976019859314,-0.09995897875744848,-0.1601506683371961
1772796377995253800,0.355253662109375,0.030969138759374615,-0.12068396954126655,-0.14748186876429245
1772796378005247000,0.3652470703125,0.028909868142008778,-0.12245996623784303,-0.13812287872596643
1772796378015238700,0.37523876953125,0.04401683638095855,-0.1080810930777341,-0.11958697721795178
1772796378025232000,0.38523193359375,0.051741293153166765,-0.08463493370171636,-0.07970915860417299
1772796378035224000,0.39522412109375,0.051312254086136815,-0.07186777005456388,0.0045313689524773505
1772796378045215700,0.4052158203125,0.006361936247348785,-0.0746222563944757,0.04081731882044114
1772796378055209000,0.415208984375,-0.02999298720359802,-0.054945313358865676,0.06967861684667877
1772796378065201000,0.425200927734375,-0.08330313710868358,-0.02146316886525601,0.07038218940561637
1772796378075193900,0.43519384765625,-0.10519698900878428,0.01567797305993736,0.0813201648642309
1772796378085185800,0.445185791015625,-0.12542962969839572,0.048784562239423394,0.08445141209466382
1772796378095178000,0.455177978515625,-0.11510405051708221,0.09894939985610544,0.0607677541683428
1772796378105171000,0.4651708984375,-0.09036533057987689,0.13815529229138046,0.08102169337430969
1772796378115163000,0.475162841796875,-0.07427110486924648,0.107912969969213,0.10586707942322827
1772796378125155800,0.48515576171875,-0.08631400936245917,0.09239237942807375,0.11194536729045211
1772796378135147800,0.495147705078125,-0.11321896742284297,0.06402549558896571,0.07943835143931209
1772796378145139700,0.5051396484375,-0.060868017938733095,0.03598214461579918,0.03750782894627191
1772796378155132400,0.51513232421875,0.007620996397733688,-0.011217705715447664,-0.0008638320214115082
1772796378165124600,0.52512451171875,0.08312836506366729,-0.031975027866289016,-0.028127723054680972
1772796378175117600,0.53511767578125,0.10671323879063128,-0.06695128337517381,-0.013534339494211598
1772796378185109500,0.545109619140625,0.13031214104294775,-0.07199508622866123,-0.0034735578620806334
1772796378195102700,0.555102783203125,0.1063292079091072,-0.05424498306978494,0.01838191652270034
1772796378205094700,0.5650947265625,0.06830430541932582,-0.013991846603900192,0.03345632506576367
1772796378215086600,0.575086669921875,0.028802900636196133,0.031708960808627305,0.026890819937177003
1772796378225079600,0.58507958984375,-0.0010819500178098679,0.03470733890701085,0.030450676976377142
1772796378235071700,0.59507177734375,-0.015367665001749992,0.047839463409036394,0.0045207562269177284
1772796378245064400,0.605064453125,-0.01926817957162857,0.05587068457547575,0.022085264552664012
1772796378255056600,0.615056640625,-0.013407178583741188,0.07052727869842201,0.059097601599572225
1772796378265048600,0.625048583984375,-0.019212065470218656,0.06411269894838333,0.04908994752732105
1772796378275041500,0.63504150390625,-0.06904372560977935,0.06364920962247997,0.009935785279283299
1772796378285033700,0.64503369140625,-0.09728022453486919,0.07856708503011614,-0.008224570047762244
1772796378295026400,0.6550263671875,-0.09106617232561111,0.07873265085536986,0.008683748524729163
1772796378305018600,0.6650185546875,-0.05799450832903385,0.059004123762995,0.05503857199973426
1772796378315010600,0.675010498046875,-0.004605447968840598,0.04535093452893197,0.05197719340142794
1772796378325003500,0.68500341796875,0.01887128920853138,0.030514928718470034,0.033911238359566775
1772796378334995500,0.694995361328125,0.02411445055902004,-0.014893910010159014,0.0022166714024730023
1772796378344988700,0.70498876953125,-0.0011503390789031982,-0.06202573660649359,-0.010606405416689812
1772796378354980600,0.714980712890625,0.0003758475750684738,-0.03679923315234482,-0.014070775325316935
1772796378364972500,0.72497265625,0.05054126971364021,-0.05430120676904916,-0.026962798327999186
1772796378374965800,0.7349658203125,0.05791442883014679,-0.09458156003542244,-0.02373052927535027
1772796378384957400,0.74495751953125,0.062004913014173504,-0.12065898123048245,-0.039532503174291925
1772796378394950700,0.75495068359375,0.06356324837207794,-0.11662526873499154,-0.03574393367944285
1772796378404942600,0.764942626953125,0.029058336701989172,-0.11881832179985939,-0.08199949803105555
1772796378414934500,0.7749345703125,-0.020409166300296783,-0.1348598309425637,-0.12008130007353611
1772796378424927700,0.784927734375,-0.05013561152219772,-0.09733283150494099,-0.13166126323011704
1772796378434919700,0.794919677734375,-0.06855331174433231,-0.08843220709282905,-0.11890038319327868
1772796378444912600,0.80491259765625,-0.08417290568053722,-0.0856187571072951,-0.09327678844663315
1772796378454904600,0.814904541015625,-0.062081485381722444,-0.10673545062243937,-0.12487928407294675
1772796378464896800,0.824896728515625,-0.0332312384724617,-0.1418665313668549,-0.217650981674809
1772796378474889500,0.834889404296875,-0.004933949270844459,-0.13572576358951627,-0.2252218005215749
1772796378484881700,0.844881591796875,-0.028036007916927334,-0.1282506784684956,-0.21157851162701843
1772796378494874600,0.85487451171875,-0.037038229539990426,-0.11127857394479214,-0.1976619587490335
1772796378504866600,0.864866455078125,-0.06788987939953804,-0.08418141778055578,-0.17078213512990623
1772796378514858500,0.8748583984375,-0.01286065061688423,-0.08425802668072283,-0.18088057275814934
1772796378524851500,0.8848515625,0.01804769786596298,-0.10281151864435523,-0.20536171947140244
1772796378534843600,0.89484375,0.04835281975865364,-0.12192830704655498,-0.1827536000884138
1772796378544836600,0.904836669921875,0.07178571779429913,-0.1142958759393543,-0.15053647056194022
1772796378554828500,0.91482861328125,0.056471828806400295,-0.07510189313758164,-0.10948031061748043
1772796378564821500,0.924821533203125,0.029810616374015806,-0.02932064089998603,-0.07381819173628464
1772796378574813700,0.934813720703125,0.04448854554593563,-0.006116802379861474,-0.04257569766193628
1772796378584805400,0.944805419921875,0.04751929154396057,-0.004612060372717678,-0.00479191045165062
1772796378594798600,0.954798583984375,0.023306641307473182,-0.015441935814358293,0.005191686891578138
1772796378604790800,0.964790771484375,0.046833062845468516,-0.027774872762709853,-0.0063056577491573985
1772796378614783500,0.974783447265625,0.050612581384181975,-0.026167072239890694,0.00653108226917684
1772796378624775700,0.984775634765625,0.0073871876418590545,-0.05062573312669992,-0.008920297226961702
1772796378634767600,0.994767578125,-0.02421732641160488,-0.06839074159376322,-0.016873393389582634
1772796378644760600,1.004760498046875,-0.011702128231525421,-0.0427702338533476,-0.02062836200892925
1772796378654752500,1.01475244140625,0.008287351351976394,-0.03588697714563459,-0.003454104242939502
1772796378664745500,1.024745361328125,0.02107376768887043,-0.05713507848810404,-0.014511212569195776
1772796378674737700,1.034737548828125,0.021294716963171957,-0.03293890446238219,-0.002564169665891677
1772796378684729600,1.0447294921875,0.043209027129411694,0.006367452672682702,0.014119071446452289
1772796378694722600,1.05472265625,-0.005478139150142669,0.010631832118891179,0.04713060275362804
1772796378704714500,1.064714599609375,-0.023593641555309294,-0.04952252112515271,0.07732291192160919
1772796378714707700,1.074707763671875,-0.04392915809750557,-0.06503898348044604,-0.0022568572823889552
1772796378724699400,1.084699462890625,-0.07996668616235256,-0.02634392664413899,-0.06875561111709103
1772796378734691600,1.094691650390625,-0.0775508571922779,-0.016246712858602404,-0.059888980306126174
1772796378744684800,1.104684814453125,-0.03817395557165146,-0.01829780016951263,-0.02750358154065907
1772796378754676500,1.114676513671875,0.009460486784577369,-0.06379676486700774,-0.016141133592277764
1772796378764669700,1.124669677734375,0.08437982642948627,-0.0873544583261013,-0.021745931329391895
1772796378774661600,1.13466162109375,0.14272972406744955,-0.10758304389510304,-0.03162036920972168
1772796378784653600,1.144653564453125,0.17116496043503285,-0.12022369508575648,-0.02706411241116002
1772796378794646500,1.154646484375,0.1377659641802311,-0.1226940672546625,-0.046246988319512454
1772796378804638700,1.164638671875,0.0655471156656742,-0.12508702680580316,-0.053256958413124084
1772796378814631700,1.174631591796875,-0.010958616387844086,-0.042077904207631946,-0.009666969142109155
1772796378824623600,1.18462353515625,-0.007764204260706901,0.0033860257091000673,0.057232236985955386
1772796378834615800,1.19461572265625,-0.005766892963647842,-0.032298852993175385,0.13021288191955535
1772796378844608500,1.2046083984375,0.01721124704182148,-0.05112864114753902,0.11026411793893202
1772796378854600700,1.2146005859375,0.027079730105400084,-0.034664632276445624,0.012229111247695981
1772796378864593400,1.224593505859375,0.008834463840723037,-0.05573774237819016,-0.046159182171896095
1772796378874585600,1.234585693359375,-0.01974222682416439,-0.06630728638321161,-0.028625443443749097
1772796378884577500,1.24457763671875,-0.051502223700284955,-0.05853014957569539,0.011938530803285538
1772796378894570500,1.254570556640625,-0.08617138602137565,-0.03291018982455134,0.03806158123835921
1772796378904562700,1.264562744140625,-0.10007423916757106,0.010249518270418046,0.03588880377653986
1772796378914555600,1.2745556640625,-0.07839139966964721,0.018657390729524194,0.033994660593010484
1772796378924547600,1.284547607421875,-0.03855623288750648,0.0315610767705366,0.05335521288951858
1772796378934539500,1.29453955078125,-0.01690612661540508,0.02399908055104315,0.0536850841647014
1772796378944532700,1.30453271484375,-0.0076589903205633155,0.0018142828803509473,0.08975328136244788
1772796378954524400,1.3145244140625,-0.010854571491479873,-0.022640103690139947,0.0945667460587807
1772796378964517600,1.324517578125,-0.0476093079149723,-0.02672784792780876,0.04071036044778302
1772796378974509800,1.334509765625,-0.05926292082965374,-0.027088863259926436,0.027156247674021868
1772796378984502500,1.34450244140625,-0.07287409755289555,-0.0056858636166900395,0.005445734717883169
1772796378994494700,1.35449462890625,-0.029746318966150282,0.019015118126012382,-0.0004299523824825883
1772796379004486700,1.364486572265625,0.030762218010425564,-0.013549692326970397,-0.02729134529577568
1772796379014479600,1.374479736328125,0.029153029248118398,-0.0707405195903033,-0.03898255027448758
1772796379024471600,1.384471435546875,0.029870822128653524,-0.10171199643723666,-0.054312897206842896
1772796379034464500,1.394464599609375,0.042213001829385755,-0.12662176209241152,-0.026569552093558012
1772796379044456400,1.40445654296875,0.024022680622339247,-0.13919943104945123,-0.04683521826993674
1772796379054448600,1.41444873046875,0.013961305335164069,-0.10433032570946961,-0.03681793785281479
1772796379064441600,1.424441650390625,0.021024667850136756,-0.07470777925346046,-0.013635489180590956
1772796379074433500,1.43443359375,-0.005206336471438407,-0.07843980538863689,0.0034858510880731042
1772796379084426800,1.4444267578125,-0.04319090695083141,-0.07697239971719681,0.013151103197131305
1772796379094418400,1.45441845703125,-0.060817164534330365,-0.08913052808791398,-0.025318857912719248
1772796379104410600,1.46441064453125,-0.106616792678833,-0.08251600531898438,-0.05466996701620519
1772796379114403600,1.474403564453125,-0.10954992352128028,-0.05484240097366273,-0.07639838095521553
1772796379124395500,1.4843955078125,-0.0531383004695177,-0.08756832027249038,-0.06666028280565514
1772796379134388700,1.494388671875,0.04395663062632084,-0.1151181521076709,-0.06429050320070237
1772796379144381200,1.504381103515625,0.1132353340357542,-0.12219791776817292,-0.056447461550123985
1772796379154373400,1.514373291015625,0.1476993291735649,-0.11812997420951724,-0.04078901517456397
1772796379164366300,1.524366455078125,0.14243687860071658,-0.09025660950839519,-0.038830063126515595
1772796379174358300,1.534358154296875,0.13232698799669743,-0.06880323138479143,-0.038673703521024436
1772796379184351500,1.5443515625,0.06989829661250115,-0.05348462968915701,-0.0463519465313293
1772796379194343400,1.554343505859375,0.02321604041457176,-0.05316219280175864,-0.029585922506358473
1772796379204335400,1.56433544921875,-0.05777823522984981,-0.04112597377765923,0.0009458842816762625
1772796379214328300,1.574328369140625,-0.11909575050175189,-0.003382335914671421,-0.009545772181544452
1772796379224320500,1.584320556640625,-0.1524970848441124,0.016701215160451827,0.00048224882530048486
1772796379234313200,1.594313232421875,-0.14101064518988132,0.018184110661968587,0.014315087208896874
1772796379244305400,1.604305419921875,-0.115440150603652,0.002105959303304553,0.0071125536852516226
1772796379254297300,1.61429736328125,-0.0637958880841732,-0.03809299928992987,-0.06305414807246998
1772796379264290300,1.624290283203125,-0.025864509096741675,-0.03963321446925402,-0.08471086674844845
1772796379274282500,1.634282470703125,-0.01499298647046089,-0.06890325769316405,-0.08513016987275332
1772796379284275200,1.644275146484375,-0.012951836031675337,-0.07720704872328787,-0.0847948917700909
1772796379294267400,1.654267333984375,-0.006298807883262634,-0.04121525949630886,-0.057867776676826174
1772796379304259300,1.66425927734375,0.028015549650788306,-0.04213036504723131,-0.023849954403936863
1772796379314252300,1.674252197265625,0.08150222516655921,-0.07232789837960153,-0.02496661040894687
1772796379324244200,1.684244140625,0.13533376859724522,-0.08312577124778181,-0.03640855333432555
1772796379334237400,1.694237548828125,0.11660451820790767,-0.0914785890514031,-0.033908206152264024
1772796379344229400,1.7042294921875,0.07749123595952988,-0.0984340707451105,-0.02040470932088792
1772796379354221300,1.71422119140625,0.04854045128524303,-0.09607877632323653,-0.021205467777140437
1772796379364214500,1.724214599609375,0.03020049247443676,-0.09953878058400005,-0.034069278465490786
1772796379374206200,1.734206298828125,0.024288053560256956,-0.06102960170861333,-0.06173572241766378
1772796379384199400,1.744199462890625,-0.008112579306960105,-0.06742967800926417,-0.0524712879281491
1772796379394191400,1.75419140625,-0.007765957826375961,-0.09975549207460134,-0.04012872463492676
1772796379404183300,1.764183349609375,-0.015536591827869414,-0.08779913335368036,-0.02473782488806173
1772796379414176500,1.774176513671875,-0.020353636720776558,-0.0448548946402967,-0.0010465681771747767
1772796379424168400,1.78416845703125,-0.03175648974478244,-0.02762307973448187,0.01768626240873709
1772796379434161400,1.794161376953125,-0.012620996642112732,-0.0319371070086956,0.030626590665709226
1772796379444153300,1.8041533203125,0.05125087928771972,-0.042495106706395745,0.048605077486671505
1772796379454145500,1.8141455078125,0.10899638129174709,-0.07498097017165273,0.017546068486757577
1772796379464138200,1.82413818359375,0.11886603339910506,-0.09241060920450836,-0.029521204973384736
1772796379474130400,1.83413037109375,0.12396364879906177,-0.08634082430414855,-0.028889373343251645
1772796379484123100,1.844123046875,0.07564823844134808,-0.05014708276428282,0.02274800277771428
1772796379494115300,1.854115234375,0.049183425363898275,-0.02717171923778951,0.03829886059295386
1772796379504107300,1.864107177734375,0.04171206656992435,0.0042411081684753296,0.02231174851860851
1772796379514100200,1.874100341796875,0.06462941629886627,0.006114902683719992,0.009044617726374417
1772796379524092400,1.884092529296875,0.050904842329025264,-0.003973908599652349,-0.011213321801275013
1772796379534085400,1.89408544921875,-0.00004208557605743408,-0.008182648868486285,0.02565026355786249
1772796379544077300,1.904077392578125,-0.05393967998027801,-0.002058941823802888,0.02421091493712738
1772796379554069200,1.9140693359375,-0.09297580533921718,0.03719791361372918,0.02764341013645753
1772796379564062500,1.9240625,-0.08859715186357497,0.02519680243562907,0.01907415483687073
1772796379574054100,1.93405419921875,-0.07538461906909942,-0.0032093905005604025,0.05231987849241122
1772796379584047400,1.94404736328125,-0.04094225124120712,-0.02820285238381475,0.0328548611744307
1772796379594039600,1.95403955078125,-0.030919454398751257,-0.05919697945397347,0.010584613709989935
1772796379604031200,1.96403125,-0.034112697482109065,-0.05473375296741724,0.014604224614892154
1772796379614024400,1.9740244140625,-0.030341946771740912,-0.03531418222635984,-0.010183522095810622
1772796379624016400,1.984016357421875,-0.02438508419394493,-0.07380520439054816,-0.015270963161624967
1772796379634009300,1.99400927734375,0.04050093721449375,-0.10191595804411917,-0.016429759541619567
1772796379644001300,2.004001220703125,0.10176935264766215,-0.11759897260535508,-0.07075957135064527
1772796379653993500,2.013993408203125,0.1247463236093521,-0.1320892702506855,-0.07381194465858862
1772796379663986400,2.023986328125,0.13143968376815318,-0.15808986334986982,-0.050249392361287025
1772796379673978400,2.033978271484375,0.057820320805907245,-0.12202387637551873,-0.04791236424846575
1772796379683971300,2.043971435546875,0.004010989207029343,-0.08431264294479042,-0.06409890788504853
1772796379693963300,2.05396337890625,-0.053497781431674954,-0.059543418271467086,-0.08713781990073621
1772796379703955500,2.06395556640625,-0.06684241617321968,-0.0709052451653406,-0.07605491954609751
1772796379713948200,2.0739482421875,-0.0515963317245245,-0.08723284124042838,-0.06362692472543567
1772796379723940400,2.0839404296875,-0.06931202115714549,-0.0956924804193899,-0.0703851120150648
1772796379733933600,2.09393359375,-0.1069867950350046,-0.08939582796059549,-0.06741880955537781
1772796379743925200,2.10392529296875,-0.12602993367910384,-0.06522789364866911,-0.06845651857266202
1772796379753917400,2.11391748046875,-0.07374386612474917,-0.052319750628247855,-0.07424209797047078
1772796379763910400,2.123910400390625,-0.029713001218438145,-0.0648516807474196,-0.06550230840956792
1772796379773902300,2.13390234375,0.02943009262382984,-0.08754504899475724,-0.06446339381588623
1772796379783895300,2.143895263671875,0.06389817941486835,-0.10421488263625651,-0.06434689129674807
1772796379793887500,2.153887451171875,0.05753975029885768,-0.09691489835381507,-0.0836921729588881
1772796379803879200,2.163879150390625,0.03667056527137756,-0.08794672513082623,-0.08092221505520865
1772796379813872400,2.173872314453125,0.023451018214225766,-0.0717504638178274,-0.09739992365809157
1772796379823864600,2.183864501953125,0.02939911296367645,-0.05730667219534516,-0.09591520152566954
1772796379833857300,2.193857177734375,0.059632923185825346,-0.06315397345144301,-0.10522095440626143
1772796379843849500,2.203849365234375,0.09947919588387012,-0.0764726700341329,-0.11848996662832796
1772796379853841400,2.21384130859375,0.14776128849387168,-0.06483666584137827,-0.09426805537315085
1772796379863834400,2.22383447265625,0.15461363860666752,-0.06987330830171704,-0.07827473275372758
1772796379873826300,2.233826416015625,0.1381277832299471,-0.0646309506688267,-0.09906824046280234
1772796379883819300,2.2438193359375,0.06115677175223827,-0.05229319141488522,-0.11198672221414745
1772796379893811500,2.2538115234375,-0.002992752075195312,-0.04405077518317848,-0.11147075378233566
1772796379903803400,2.263803466796875,-0.03157236534953117,-0.012006444940343499,-0.10665973677141591
1772796379913796400,2.27379638671875,-0.025026304706931114,0.002477021105401218,-0.07215727278674021
1772796379923788300,2.283788330078125,-0.030292262411117554,0.03755794256515801,-0.06761431386116892
1772796379933781500,2.293781494140625,0.011167875224351882,0.015810696061514317,-0.03835601587397978
1772796379943773200,2.303773193359375,0.021836568754911422,-0.016385646405257283,-0.02575127624692395
1772796379953765400,2.313765380859375,0.026239187628030774,-0.0636575025267899,-0.08051935160905123
1772796379963758300,2.32375830078125,0.0022217677026987073,-0.0746844714431092,-0.10122353706685826
1772796379973750300,2.333750244140625,-0.03796352769136429,-0.06662504709549248,-0.07983418235648423
1772796379983743500,2.343743408203125,-0.06562076542377472,-0.04444916338361799,-0.013001246397662907
1772796379993735400,2.3537353515625,-0.04782558101415634,-0.028704481763020154,0.009510189411509782
1772796380003727400,2.363727294921875,0.004388005825877189,-0.04869692048858851,-0.028586390074994413
1772796380013720300,2.37372021484375,0.06004851824939251,-0.05824822736177593,-0.025392909529618916
1772796380023712500,2.38371240234375,0.1141062716513872,-0.0590844589902088,-0.02189334044344723
1772796380033705200,2.393705322265625,0.09203180248737335,-0.07524963104519992,0.015069504039082676
1772796380043697400,2.403697509765625,0.04571136533915996,-0.10366671070158481,0.026981037237588313
1772796380053689300,2.413689453125,-0.029388591569662094,-0.09869608268216251,0.004360277568735182
1772796380063682300,2.423682373046875,-0.07713292404115199,-0.08706954043749719,-0.010103533928468822
1772796380073674500,2.433674560546875,-0.08449380819797515,-0.07505356048382818,-0.03507429078957066
1772796380083667200,2.443667236328125,-0.08526946874558926,-0.05676032689157873,-0.045338422107230866
1772796380093659400,2.453659423828125,-0.06298340265750885,-0.0312748071750626,-0.027002646281197664
1772796380103651300,2.4636513671875,-0.01839198125898838,-0.021226510565169155,0.014214220650307833
1772796380113644300,2.473644287109375,-0.0005798457145690918,-0.03183580205868929,0.011542115364223718
1772796380123636200,2.48363623046875,-0.013182137656211852,-0.038722419767268,0.021184132728166875
1772796380133629400,2.49362939453125,-0.03749941731095314,-0.04639737484194338,0.00039740181975066657
1772796380143621000,2.50362109375,-0.03372165233790874,-0.049524895745329554,-0.03574749560970813
1772796380153614300,2.5136142578125,-0.0004646949023008346,-0.05391162292957306,-0.08490125648770482
1772796380163606300,2.523606201171875,-0.013867781832814216,-0.0627867110416293,-0.04540821767412126
1772796380173598200,2.53359814453125,-0.0001613280415534973,-0.045578532739728686,-0.03345711965020746
1772796380183591200,2.543591064453125,0.02122574338018894,-0.017022665667161343,0.0007174458206631243
1772796380193583400,2.553583251953125,0.010929974815249443,-0.008116269101388752,-0.013831230948399751
1772796380203575000,2.563574951171875,0.02022796451449394,-0.03824413473103195,-0.020736041900794953
1772796380213568300,2.573568359375,0.000021627309918403625,-0.05445855275522917,-0.005041190771292895
1772796380223560400,2.583560546875,-0.018899346259236335,-0.048865007064491504,-0.004057312566787004
1772796380233553200,2.59355322265625,-0.015290508112311363,-0.031149646425433455,-0.007108297635242343
1772796380243545300,2.60354541015625,0.011525018098950386,-0.0189740554632619,0.0014658895677886901
1772796380253537300,2.613537353515625,0.06532382830381393,-0.0246704404739663,-0.0013826499974355102
1772796380263530200,2.6235302734375,0.1629319696187973,-0.060710489289462564,-0.010180855214688927
1772796380273522200,2.633522216796875,0.21901801397800444,-0.07276621673163026,-0.01969497188264504
1772796380283515100,2.64351513671875,0.23681612099707125,-0.10704393204972147,-0.039631077311094845
1772796380293507300,2.65350732421875,0.19144553191959857,-0.09158500856794416,-0.0606344283785671
1772796380303499300,2.663499267578125,0.034688451543450356,-0.05797375780194997,-0.03581139115877449
1772796380313492200,2.6734921875,-0.09457564175128937,-0.0010739493744447827,-0.015715163265168666
1772796380323484200,2.683484130859375,-0.15355390042066575,0.022434936506859956,-0.018124160635657607
1772796380333477400,2.693477294921875,-0.12247896319925784,0.028593897528015076,-0.010896693600155412
1772796380343469000,2.703468994140625,-0.06178805539309978,0.03990209453850984,0.022136355419084427
1772796380353461200,2.713461181640625,-0.011680500921607016,-0.0029651334159076213,0.06658639558553696
1772796380363454500,2.723454345703125,-0.02061842513680458,-0.03270863937046379,0.02396592720011249
1772796380373446100,2.733446044921875,-0.06229132874011993,-0.011077237798832356,-0.02749048459706828
1772796380383439400,2.743439453125,-0.10231588061451911,-0.006473689526133239,-0.05449566989522427
1772796380393431300,2.753431396484375,-0.13277999246120453,-0.02900909073278308,-0.0386184844687581
1772796380403423200,2.76342333984375,-0.12783376823067663,-0.008170848832838237,-0.028485395652242004
1772796380413416200,2.773416259765625,-0.12429682627618312,0.01675071685798466,-0.011372969342395662
1772796380423408400,2.783408447265625,-0.11456395229101181,0.03572809678949415,0.037116153614409265
1772796380433401000,2.793401123046875,-0.11088614056110381,0.034376755245774986,0.045911564086377615
1772796380443393300,2.803393310546875,-0.09511281736791133,0.008313070315122604,-0.025265100165177135
1772796380453385200,2.81338525390625,-0.023935586860775945,-0.026884572859480975,-0.0889764152384363
1772796380463378200,2.823378173828125,0.03623509646356106,-0.032155864325910805,-0.0725281701920554
1772796380473370400,2.833370361328125,0.05894727900922298,-0.022649821366555987,-0.026401867376454172
1772796380483363000,2.843363037109375,0.09909399595856666,0.012573833032138645,0.020902411443646997
1772796380493355300,2.853355224609375,0.12982991048395634,0.010615465505979955,-0.005500113519933074
1772796380503347200,2.86334716796875,0.13426117092967033,-0.00911653218511492,-0.02722545871902257
1772796380513340200,2.873340087890625,0.15551263327300546,-0.09713508044313639,-0.08305391158796846
1772796380523332000,2.88333203125,0.20082243207395076,-0.13587087114863097,-0.07658721805820241
1772796380533325300,2.8933251953125,0.23464345313310622,-0.11895601323749869,-0.10932278196820988
1772796380543317200,2.903317138671875,0.15749182439148426,-0.09371146267000585,-0.06010708003621548
1772796380553309200,2.91330908203125,0.023680735316872596,-0.07682042402587831,-0.017245715567003935
1772796380563302400,2.923302490234375,-0.11021510943174362,-0.061100803781300776,-0.07198503975868224
1772796380573294000,2.933294189453125,-0.23282792814373968,-0.053083136216178536,-0.15004614802803842
1772796380583287300,2.943287353515625,-0.23011983822882173,-0.052854295896366234,-0.18076080056969077
1772796380593279200,2.953279296875,-0.171366035965085,-0.04816646687369793,-0.17404484498659148
1772796380603271200,2.963271240234375,-0.11343231791257857,-0.027820867328904566,-0.07703030391689389
1772796380613264400,2.973264404296875,-0.04742869065105915,-0.02612451173979789,0.012582893121428787
1772796380623256300,2.98325634765625,-0.01845510962307453,-0.03655409928485751,0.07714023056477308
1772796380633249300,2.993249267578125,-0.04959551329612732,-0.05685823430810123,0.0343209973373916
1772796380643241200,3.0032412109375,-0.09144786511957645,-0.05992982377316802,-0.002222434422979131
1772796380653233400,3.0132333984375,-0.0777472565472126,-0.009538264728523791,0.011746350965742022
1772796380663226000,3.02322607421875,-0.07655483189225197,0.011659969590231776,0.009214193006465211
1772796380673218300,3.03321826171875,-0.04775368482172489,0.03314308526497334,0.06941841327422298
1772796380683211300,3.043211181640625,-0.011489362263679503,0.06333517523724586,0.0885819816939067
1772796380693203200,3.053203125,0.07686287492811679,0.05084872822761535,0.08110608372213318
1772796380703195400,3.0631953125,0.1472860721975565,0.01864285074751824,0.07152506669727153
1772796380713188000,3.07318798828125,0.1529541809618473,-0.0258255287932232,0.025162872766563666
1772796380723180300,3.08318017578125,0.1327507663667202,-0.029781901736184953,0.01710916577368043
1772796380733173200,3.09317333984375,0.12125906601548195,0.004733896654099226,0.04216417598528787
1772796380743165200,3.103165283203125,0.09765841019749641,0.032280221357941626,0.04416852894448675
1772796380753157000,3.1131572265625,0.11806231580078601,0.05485825612992048,0.043329109845124184
1772796380763150300,3.123150390625,0.12803075210750103,0.06080372053086757,0.048112142870575185
1772796380773142300,3.133142333984375,0.10360007520616053,0.053632805988192554,0.05801670189453289
1772796380783135200,3.14313525390625,0.05389934796988964,0.007110562657564878,0.009803044011397286
1772796380793127400,3.15312744140625,0.027839024040102956,0.008349456802755595,-0.018919274802412837
1772796380803119000,3.163119140625,0.008369768938422202,-0.008721285789832472,-0.031160441814083603
1772796380813112300,3.1731123046875,0.016898527830839154,-0.03836765151284635,-0.020562822492048143
1772796380823104300,3.183104248046875,0.04071487222611904,-0.04241371203325688,-0.0009022917351219803
1772796380833097200,3.19309716796875,0.05889584108293056,-0.06967888170816004,0.007283818598929792
1772796380843089400,3.20308935546875,0.07801964374780654,-0.10516652080528438,-0.01836891091065481
1772796380853081300,3.213081298828125,0.08340016774237155,-0.10551694167815148,-0.012250884688086806
1772796380863074300,3.22307421875,0.0010819500178098679,-0.10532784884683787,-0.012875336729362606
1772796380873066200,3.233066162109375,-0.08427695057690143,-0.10518058586325496,-0.04206983963218518
1772796380883059200,3.24305908203125,-0.1180494563192129,-0.07301310416478664,-0.024419141727173698
1772796380893051100,3.253051025390625,-0.13614566950201987,-0.061790393480658526,-0.058743728394294155
1772796380903043300,3.263043212890625,-0.13765548954308032,-0.06372212872821838,-0.07195090002706274
1772796380913036000,3.2730361328125,-0.08111819428503513,-0.07785550269465893,-0.07489014094988815
1772796380923028200,3.2830283203125,-0.03728840490877628,-0.086397815188393,-0.07132646625209599
1772796380933021200,3.293021240234375,-0.018016133683919907,-0.10899879244454204,-0.07443397641391493
1772796380943013000,3.30301318359375,0.019525953724980352,-0.12032868983019143,-0.07828571993862278
1772796380953005300,3.31300537109375,0.05019406371116638,-0.11774959658980369,-0.0971191430884879
1772796380962998300,3.322998291015625,0.053632221466302865,-0.09828677122890948,-0.06899436090956441
1772796380972990200,3.332990234375,0.037624504995346066,-0.03902721140012145,0.001100746049825102
1772796380982983200,3.342983154296875,0.026121114206314085,0.002465586395934224,0.03032276714723557
1772796380992975400,3.352975341796875,0.04200783464610577,0.007098251165263354,0.01953838394829072
1772796381002967000,3.362967041015625,0.06255202550292015,-0.006896591113321483,0.0022716621258761734
1772796381012960300,3.372960205078125,0.09927402870059013,-0.015455489415675401,-0.019575400623586026
1772796381022952200,3.3829521484375,0.14052490749955177,-0.036197285203821955,-0.0204658375241328
1772796381032945200,3.392945068359375,0.11925415593385695,-0.06529160653464496,-0.010759358355542644
1772796381042937300,3.402937255859375,0.10759060614705085,-0.05412581366952508,0.02242178476434201
1772796381052929300,3.41292919921875,0.055823594030737875,-0.029241072857752442,0.08042694235155358
1772796381062922200,3.422922119140625,-0.0056540802389383315,-0.0084507617527619,0.09486630439409054
1772796381072914200,3.4329140625,-0.048131285962462425,0.0075134443700313564,0.07184269041223451
1772796381082907100,3.4429072265625,-0.09348200129568576,0.03940956178121269,0.06601499803890473
1772796381092899300,3.4528994140625,-0.1158358719229698,0.017465879390016197,0.07617311169882304
1772796381102891300,3.462891357421875,-0.12147241650521755,0.027304405706748365,0.05649147422178648
1772796381112884200,3.47288427734375,-0.0752197838962078,-0.0069850731143727895,0.038324205096764485
1772796381122876200,3.482876220703125,-0.05516308429539203,-0.040454394659027455,0.02154670982970856
1772796381132869000,3.492869140625,-0.036139819395542144,-0.06473590888064354,0.03369210658301599
1772796381142861000,3.502861083984375,-0.0004682020336389541,-0.0879668180707842,0.00517094549764879
1772796381152853000,3.51285302734375,-0.015499182426929473,-0.05811042632628232,0.02570259653329849
1772796381162846200,3.52284619140625,-0.025441899770498273,-0.033868476930074394,0.02721644429550506
1772796381172838000,3.532837890625,-0.05727203927338123,-0.025838607470504937,0.023563246417045592
1772796381182831000,3.5428310546875,-0.08123392961919307,-0.046095798079483205,0.024705539186811072
1772796381192823000,3.552822998046875,-0.05871873095035553,-0.04449545021075755,-0.0011268668717704714
1772796381202815000,3.56281494140625,-0.06752163060903549,-0.04710541351344436,-0.0458194744892884
1772796381212808000,3.572807861328125,-0.03757423611283302,-0.06768606392312794,-0.07558613299056888
1772796381222800100,3.582800048828125,-0.017640286108851433,-0.10084135108254849,-0.09678531715739518
1772796381232792800,3.592792724609375,-0.01996960583925247,-0.08068568461928516,-0.08767860311339609
1772796381242785000,3.602784912109375,-0.011329203265905379,-0.07591967579387128,-0.08396066943565383
1772796381252777000,3.61277685546875,0.0018184475988149641,-0.06934552156794815,-0.05057947369902394
1772796381262770000,3.62277001953125,0.04085048130452633,-0.0837711199466139,-0.05596235404745675
1772796381272762000,3.63276220703125,0.07942074271738529,-0.0884136485228315,-0.07779218253432772
1772796381282754800,3.6427548828125,0.08987082506120204,-0.10691668894086033,-0.10443224258082918
1772796381292747000,3.6527470703125,0.10481062003970146,-0.11206921286582947,-0.07829476176160387
1772796381302739000,3.662739013671875,0.07352057876288891,-0.1178644551411271,-0.05527113864659331
1772796381312732000,3.67273193359375,0.05735036520659923,-0.08445080930646509,-0.05588766310974024
1772796381322723800,3.682723876953125,0.03369944050610065,-0.08455134707149117,-0.07172478138729929
1772796381332717000,3.692717041015625,0.04028407959342003,-0.08123170112948865,-0.06461834691558033
1772796381342709000,3.702708984375,0.0577829114049673,-0.08352426904607564,-0.04744143140162341
1772796381352701000,3.712700927734375,0.05342822332680225,-0.08822678418122232,-0.04346923983502202
1772796381362694100,3.722694091796875,0.032468437406420705,-0.07737250495068729,-0.036037975589418784
1772796381372685800,3.732685791015625,0.010186462971568108,-0.06850253140516578,-0.04237833019262179
1772796381382679000,3.742678955078125,-0.02061842513680458,-0.043880788911134,-0.03324801607732661
1772796381392671000,3.7526708984375,-0.041052141356468196,-0.041406836545653636,-0.04547802237416617
1772796381402663000,3.762662841796875,-0.05341477932333946,-0.015748042621463537,-0.019386645718989893
1772796381412656000,3.77265625,-0.06835048264861106,0.003512063241563737,0.022871994483564046
1772796381422648000,3.78264794921875,-0.052664253216981885,0.0327073972614482,0.03898363711987622
1772796381432641000,3.79264111328125,-0.04509878639876842,0.04725815638974309,0.04969860834442079
1772796381442633000,3.802633056640625,-0.013025485789775847,0.017818601817823944,0.017619946573721245
1772796381452625200,3.812625244140625,0.014394436055421829,-0.012710428491234778,-0.04438453718218952
1772796381462617900,3.822617919921875,0.013850830698013305,-0.026102738299407062,-0.044554633052088316
1772796381472610000,3.832610107421875,-0.006546645164489746,0.007822181525640189,-0.019344761072332038
1772796381482603000,3.84260302734375,-0.004001052334904671,0.02561415106486529,0.019490590150654314
1772796381492595000,3.852594970703125,0.012200725403428076,0.030497721855342386,0.03163156645717099
1772796381502587100,3.862587158203125,0.07092705513834953,0.039157267520576716,0.01029871857385151
1772796381512579800,3.872579833984375,0.09448445633649825,-0.028396219531446693,-0.02869660898381844
1772796381522572000,3.882572021484375,0.13493454014658926,-0.09881269479915498,-0.05086383446520194
1772796381532565000,3.89256494140625,0.11985621348023413,-0.14085567382387815,-0.032247524664737286
1772796381542557000,3.902556884765625,0.055529579520225525,-0.130787722665444,-0.03291862885933369
1772796381552548900,3.912548828125,-0.013740356060862541,-0.07842895520105958,0.0052547147909644985
1772796381562542000,3.9225419921875,-0.04902911158502102,-0.03688022596668452,0.004148004791233688
1772796381572534000,3.932533935546875,-0.054385670182108874,-0.02320570168364793,-0.012293591318652033
1772796381582527000,3.94252685546875,-0.08116203342676162,-0.05546517251450568,-0.02438263650853187
1772796381592519200,3.952519287109375,-0.09376490989029407,-0.054577795220725235,-0.05864650596436113
1772796381602510800,3.9625107421875,-0.05673427913486957,-0.0563503213185817,-0.07134352698475122
1772796381612504000,3.972504150390625,-0.013588380369544028,-0.0700870971828699,-0.03598144136290066
1772796381622496000,3.98249609375,0.03764145613014698,-0.08910813359301537,-0.02315965231852606
1772796381632489000,3.992489013671875,0.06378010599315166,-0.09777779879346489,-0.0001990662360563874
1772796381642481200,4.002481201171875,0.07393383573889732,-0.07714804854504764,-0.021494650848908347
1772796381652473000,4.01247314453125,0.041165538603067396,-0.06280727890562265,-0.03199713010024279
1772796381662466000,4.022466064453125,-0.008350479716062545,-0.04598937856294214,-0.0539323643235024
1772796381672458000,4.0324580078125,-0.03345744844377041,-0.03314129516668617,-0.054811558310827235
1772796381682451000,4.042450927734375,-0.036571781072020526,-0.03647255848124623,-0.03261334403613582
1772796381692443000,4.05244287109375,-0.05213526090681553,-0.02605922795124352,-0.035559243028610944
1772796381702435000,4.06243505859375,-0.042460839110612866,-0.017836758529022334,-0.03406957985959016
1772796381712427800,4.072427734375,-0.007824994537234306,-0.018101364281959832,-0.01959622421590611
1772796381722420000,4.082419921875,0.014526538002490997,-0.01859517568089068,-0.02173237772807479
1772796381732413000,4.092412841796875,0.049483285093307496,-0.03954517085961997,-0.04435222408147529
1772796381742404900,4.10240478515625,0.10484978300631045,-0.04666194406226277,-0.05517098447405733
1772796381752397000,4.11239697265625,0.1309516079902649,-0.05680336231570691,-0.051323031208477914
1772796381762390000,4.12239013671875,0.13375497497320174,-0.0521958319876343,-0.050472570125292986
1772796381772382000,4.1323818359375,0.09870295081436634,-0.03980959394946694,-0.032136730367178096
1772796381782375000,4.142375,0.04103986639678478,-0.047804355563037096,-0.04190392674705945
1772796381792367000,4.1523671875,0.01803600742816925,-0.03103957364708185,-0.05708686456535943
1772796381802358800,4.16235888671875,-0.010697919625043868,-0.029313407441601155,-0.07779576273090205
1772796381812352000,4.17235205078125,0.0006529109507799148,-0.044019868588261304,-0.09017005460294894
1772796381822344200,4.18234423828125,0.021873393633961676,-0.05237484181635081,-0.12368239330542273
1772796381832337000,4.1923369140625,0.047151627275347704,-0.09679445031192153,-0.125124573204061
1772796381842329000,4.2023291015625,0.07740121958851814,-0.0926843115793541,-0.13979432820267976
1772796381852321000,4.212321044921875,0.07940846775770187,-0.08170764807816594,-0.10321698503955266
1772796381862314000,4.22231396484375,0.006911971345543861,-0.05580441440623253,-0.04974383572563529
1772796381872306000,4.232305908203125,-0.024404373416304588,-0.03751282478179782,-0.028618346982682123
1772796381882299000,4.242298828125,-0.030395138263702392,-0.010972133456543087,-0.08090361081943846
1772796381892291000,4.252291015625,-0.08951075957715511,-0.01120499236434698,-0.10717223460450769
1772796381902283000,4.262282958984375,-0.13489303909242154,-0.02703757146410644,-0.08641696741343476
1772796381912276000,4.27227587890625,-0.1559469330370426,-0.013491678529419003,-0.032290861482964825
1772796381922268000,4.282267822265625,-0.12378420057892799,0.021830248611979186,-0.021317120591225102
1772796381932260900,4.2922607421875,-0.04978899004161358,0.039960583260096605,-0.010042305260524154
1772796381942252800,4.302252685546875,0.004118541234731674,-0.0027523674480617044,0.02596220645071007
1772796381952245000,4.312244873046875,0.09469137708544731,-0.026255188914760946,0.012206168763525784
1772796381962238000,4.322238037109375,0.11435820058584213,-0.046467809729650617,0.005413275486696512
1772796381972230000,4.33222998046875,0.08184826212525367,-0.004792312310449779,0.021548527327459304
1772796381982223000,4.34222314453125,0.05418401013016701,0.030317944841645655,0.04294244861509651
1772796381992215000,4.352215087890625,0.045421442481875414,0.055242944598570466,0.06215104348659515
1772796382002207000,4.36220703125,0.10180617752671241,0.038209940200485286,0.037799185708817094
1772796382012200000,4.372199951171875,0.1580740081936121,-0.0015673954471945761,-0.015849511968251316
1772796382022192000,4.382192138671875,0.1827560295075178,-0.07380867498926819,-0.047508605753164734
1772796382032183800,4.392183837890625,0.19977730693519113,-0.07978570357225835,-0.029274573268555103
1772796382042177000,4.402177001953125,0.11695347777605056,-0.07027527669873088,0.014878602843172847
1772796382052169000,4.4121689453125,0.014978373423218725,-0.013479111308790743,0.053083227547723794
1772796382062162000,4.422161865234375,-0.06903904943466187,0.024229930164851247,0.062407703395094716
1772796382072154000,4.432154052734375,-0.1166816750973463,0.02766589596290141,-0.01147084022630006
1772796382082146000,4.44214599609375,-0.1276741937547922,0.007943542882986366,-0.06646505249449983
1772796382092139000,4.452138916015625,-0.0990314521163702,-0.031099377542920408,-0.08364464402273297
1772796382102131000,4.462130859375,-0.09061024525165558,-0.048866395303979515,-0.08162037165351212
1772796382112124000,4.4721240234375,-0.03895429229438305,-0.05284340917617082,-0.06145752653079107
1772796382122116000,4.4821162109375,0.011965163081884384,-0.06145352620910853,-0.032934721477609126
1772796382132108000,4.49210791015625,0.032686464071273805,-0.08107081147935241,-0.005962068475876003
1772796382142101000,4.50210107421875,0.022594693645834923,-0.07745894112512469,0.016137754325103015
1772796382152093200,4.51209326171875,-0.008324176231026648,-0.054197855992428955,0.02783222897313535
1772796382162086100,4.522086181640625,-0.050336687052249904,-0.05850559965632855,-0.03328201881162822
1772796382172078000,4.532078125,-0.07379296596348285,-0.065122497045435,-0.05579456886565312
1772796382182070300,4.5420703125,-0.08691489786505699,-0.06357263725493102,-0.054197855992428955
1772796382192063000,4.55206298828125,-0.08309855444729328,-0.058817624747566875,-0.028328944715205577
1772796382202055200,4.56205517578125,-0.06088906072676181,-0.07344112031850963,-0.0048342517560347915
1772796382212048100,4.572048095703125,-0.06039455520808697,-0.057781486632861194,-0.004122030099760741
1772796382222040000,4.5820400390625,-0.08582008836567401,-0.07524122854303568,-0.022460107480734584
1772796382232032000,4.592031982421875,-0.08987374767065048,-0.08587865015249699,-0.040104211248178034
1772796382242025200,4.602025146484375,-0.09347966320812702,-0.061643422758020455,-0.014289678773004562
1772796382252017000,4.612016845703125,-0.03363748118579388,-0.04191197305619716,-0.009338047714997083
1772796382262010000,4.622010009765625,0.011529109752178192,-0.046175621850043536,0.014981953619793056
1772796382272002300,4.632002197265625,0.067917936450243,-0.037958340059593317,0.011803816774021833
1772796382281994000,4.641993896484375,0.07927519676685332,-0.03678637367077171,0.03344815089246258
1772796382291987200,4.6519873046875,0.1223679040402174,-0.05817081474401056,0.01916530371904373
1772796382301979100,4.661979248046875,0.11655191123783588,-0.07082122014369815,-0.03392906627720221
1772796382311972000,4.67197216796875,0.12888356954455374,-0.06915270240958779,-0.03325935032209381
1772796382321964000,4.681964111328125,0.13389759831428527,-0.05915865673758089,-0.006396313440985978
1772796382331956200,4.691956298828125,0.10329086312651634,-0.05686557736434042,0.0454081628751941
1772796382341949200,4.70194921875,0.029104513931274414,-0.05579210291393101,0.051112895589135586
1772796382351941000,4.711941162109375,-0.041240357404947275,-0.03347260948028415,0.04592420437224209
1772796382361934000,4.72193408203125,-0.11593757873177528,-0.027924693029560146,0.023272848635725676
1772796382371926000,4.731926025390625,-0.14022913942337034,-0.026788090215064585,-0.005737009282037616
1772796382381918200,4.741918212890625,-0.11993453941345214,-0.047420836138166486,-0.011017908827029167
1772796382391911000,4.751910888671875,-0.09676876788139342,-0.05575367059968411,0.0037859665458090603
1772796382401903000,4.761903076171875,-0.11608195563852787,-0.039688707516156135,0.03588995455401018
1772796382411896300,4.771896240234375,-0.1135445461153984,-0.03740859722234308,0.039262846786901354
1772796382421888000,4.781887939453125,-0.12613514761924743,-0.0210161922827363,0.03475201829895377
1772796382431880200,4.791880126953125,-0.1118324815005064,0.0021380349420011043,0.011368749825004488
1772796382441873200,4.801873046875,-0.06737199300527572,-0.006827142606303095,0.012942922072857618
1772796382451865000,4.811864990234375,0.004724690434336662,-0.024543087767250834,-0.008157751889247446
1772796382461858000,4.821858154296875,0.11046996097564697,-0.044286922026611865,-0.021071593998093156
1772796382471850200,4.831850341796875,0.13002163366377353,-0.07664378881733865,-0.017136501305177805
1772796382481842000,4.841842041015625,0.11217501132786273,-0.04639763057027012,0.009670257077738642
1772796382491835100,4.851835205078125,0.053362756875157354,-0.006729344787634909,0.007037442622426897
1772796382501827300,4.861827392578125,0.045967970448732375,0.040528263612836596,-0.03652191404830664
1772796382511820000,4.871820068359375,0.07188800912499427,0.04032397321239114,-0.07360951742166653
1772796382521812200,4.881812255859375,0.11774492041468619,0.0004690422838553786,-0.0892828873717226
1772796382531804200,4.89180419921875,0.1206418108999729,-0.054983051553368564,-0.04210641791606322
1772796382541797000,4.901797119140625,0.07323124042749404,-0.025177220952324567,-0.012083985422272235
1772796382551789000,4.9117890625,0.027273206850886342,-0.01869326576050371,-0.00980789371645078
1772796382561782000,4.921781982421875,-0.02827098571658134,-0.004821465339697897,-0.039298867948353286
1772796382571774200,4.931774169921875,-0.0676432111620903,-0.01926810650639236,-0.07485169950248673
1772796382581766100,4.94176611328125,-0.06527063681185245,-0.01597691947389394,-0.08419139118529856
1772796382591759000,4.951759033203125,-0.08566635910868645,-0.034458369114622474,-0.07030410093441605
1772796382601751000,4.9617509765625,-0.10803601182699203,-0.03004862638097256,-0.039487193594686686
1772796382611744300,4.971744140625,-0.08778758904635905,-0.008339045006595552,-0.04145489520477131
1772796382621736000,4.98173583984375,-0.058439329487085336,-0.029961715282499787,-0.07673996093450114
1772796382631728000,4.99172802734375,-0.0671896221756935,-0.08968410685006528,-0.1048311148384586
1772796382641721300,5.001721435546875,-0.02511047585904598,-0.15207849410586058,-0.13961498958040028
1772796382651713000,5.011713134765625,0.010994272223114967,-0.15011767889428884,-0.06600532602826133
1772796382661706200,5.021706298828125,0.05341594836711883,-0.09549246433526277,-0.05616175821023062
1772796382671698200,5.0316982421875,0.030966216149926184,-0.040406135070510205,0.020687069926224648
1772796382681690000,5.041690185546875,0.027744916015863416,0.006224281342327594,0.05809908294836059
1772796382691683000,5.05168310546875,0.02759352484643459,-0.02352576395086944,-0.002503945644944906
1772796382701675300,5.06167529296875,0.015627192720770833,-0.05195840650256723,-0.05842975794114172
1772796382711668200,5.071668212890625,0.029355273821949957,-0.06505301200579852,-0.10508600291498005
1772796382721660200,5.08166015625,0.006056815820932388,-0.09533972145896405,-0.08340774826062843
1772796382731652000,5.091652099609375,-0.04301613490581512,-0.06531706976946443,-0.05264710115278139
1772796382741645000,5.10164501953125,-0.044349429336190224,-0.009871040346845984,-0.032080534067377445
1772796382751637200,5.11163720703125,-0.024383915150165556,0.027405345330573618,-0.028261194974929092
1772796382761630000,5.1216298828125,0.024206220495700835,0.03015223288591951,-0.015461590362899005
1772796382771622100,5.1316220703125,0.09139292006194591,0.006074862934276461,-0.007311163263581693
1772796382781614000,5.141614013671875,0.15112287388145923,-0.017741919852420688,-0.013949030375480651
1772796382791607000,5.15160693359375,0.11689151845574378,-0.03868369519207626,0.013835998455062507
1772796382801599000,5.161598876953125,0.08429331718981266,-0.023797457031719385,-0.0037938393250107763
1772796382811592200,5.17159228515625,0.02142564986646175,0.002724018136411905,-0.025938414583168923
1772796382821584100,5.181584228515625,-0.05224807363152504,-0.015806421745195982,-0.03640747562209144
1772796382831576000,5.191576171875,-0.05951426524221897,0.005424399668909609,-0.010411028975062072
1772796382841569300,5.2015693359375,-0.027590017715096473,0.015241737067140639,0.003247420956008136
1772796382851561000,5.21156103515625,0.008689502412080764,0.021829006502963603,0.034928105518221855
1772796382861553200,5.22155322265625,-0.002592354580760002,0.01730429562013596,0.030642975544929504
1772796382871546000,5.231546142578125,-0.014281623330712317,-0.01390939248483628,0.01463991698278114
1772796382881538000,5.2415380859375,-0.027736732709407803,-0.037109650808386505,-0.022657931607775388
1772796382891531300,5.25153125,-0.019020926812291145,-0.04703315199483186,-0.05706632410082966
1772796382901523200,5.261523193359375,-0.02916998038291931,-0.06796553845163435,-0.0632750608141534
1772796382911515100,5.27151513671875,-0.008213117071986197,-0.05887834195885807,-0.07510508974166587
1772796382921508000,5.281508056640625,0.023925649988651276,-0.06256751533299684,-0.07363428653674199
1772796382931500300,5.291500244140625,0.016979191851615904,-0.04539199719168246,-0.05310905610872432
1772796382941493000,5.301492919921875,0.009880173501372337,-0.034273550599627195,-0.029262974162306634
1772796382951485200,5.311485107421875,0.04395429253876209,-0.027308168566413223,-0.001766735677886754
1772796382961477000,5.32147705078125,0.0844786106288433,-0.025043548102676866,-0.012811276783514767
1772796382971470000,5.331469970703125,0.09633154550790786,-0.02007719439957291,-0.03623906025262549
1772796382981462300,5.341462158203125,0.09638999769687652,-0.05239208521209657,-0.05755684756413102
1772796382991455000,5.351455078125,0.05589315213561058,-0.04127433273978531,-0.02209470823444426
1772796383001447200,5.361447265625,0.010913023680448532,-0.009329700011759996,0.027352245170157403
1772796383011439000,5.371439208984375,-0.019392682734131812,0.01348543145172298,0.01585873645432293
1772796383021432000,5.38143212890625,-0.027097850283980367,0.04160955604352057,0.000418919531814754
1772796383031424000,5.391424072265625,-0.006401683735847472,0.02053114871215075,0.007596884869784116
1772796383041417200,5.401417236328125,0.007990998753905297,-0.012333229209296404,0.007707396039552986
1772796383051409200,5.4114091796875,0.03134147920310497,-0.027979784217663107,0.016235588676389304
1772796383061401000,5.421401123046875,0.019385083949565885,-0.028113712795637548,0.05374359115259721
1772796383071394300,5.431394287109375,-0.0010696750581264496,-0.03298161109294742,0.0758998933811672
1772796383081386000,5.441385986328125,-0.05575052879452705,-0.013050401035323738,0.07222913244655356
1772796383091379200,5.451379150390625,-0.09514145894050598,-0.000178169578500092,0.06964402959048747
1772796383101371100,5.46137109375,-0.10701076043248176,0.007955635179579257,0.08298532159747556
1772796383111363000,5.471363037109375,-0.06639058075249195,0.030856070306338367,0.07306814055396244
1772796383121356300,5.481356201171875,0.017740239351987836,0.004691920675896108,0.06888658055299893
1772796383131348200,5.49134814453125,0.08058920197486877,-0.02593509011492133,0.06864900893745944
1772796383141341200,5.501341064453125,0.15200316384732723,-0.0451829940835014,0.03437162241293117
1772796383151332600,5.51133251953125,0.20102643021345137,-0.08085230989046395,0.014399897681828587
1772796383161324500,5.521324462890625,0.2107633958518505,-0.08278937890026718,0.021712266521807758
1772796383171317500,5.5313173828125,0.18287176484167575,-0.06517360617816448,-0.010257427582237869
1772796383181309700,5.541309814453125,0.13182313012778757,-0.010017390014976263,0.02467292469199747
1772796383191302700,5.551302734375,0.03604337328374386,0.029472178199887275,0.028935897632408884
1772796383201294600,5.561294677734375,-0.06469429822862148,0.048090588625892994,0.034420064664538945
1772796383211286500,5.57128662109375,-0.06519757157564163,0.08035155729409307,-0.0068885356710292394
1772796383221279700,5.58127978515625,-0.08953355593085288,0.04516407018732279,-0.04441272209705785
1772796383231271400,5.591271484375,-0.10479366890490055,-0.0010268953623250125,-0.04681154513340443
1772796383241264600,5.6012646484375,-0.1224848084181547,-0.007277808983251452,-0.0394998156142421
1772796383251256800,5.6112568359375,-0.10009469743371009,-0.017857764784432947,-0.03148364588646218
1772796383261248500,5.62124853515625,-0.06821721165776252,-0.019381430687755344,-0.038674105379823596
1772796383271241700,5.63124169921875,-0.010986088916659354,-0.002599624571762979,-0.02655172417592257
1772796383281233700,5.641233642578125,0.023564415460824967,-0.010330511084757745,-0.021717161892633882
1772796383291226600,5.6512265625,0.019504910936951635,-0.043224370829015965,-0.023424276337772606
1772796383301218600,5.661218505859375,-0.031920740395784374,-0.09178791072890162,-0.03141779584232718
1772796383311210800,5.671210693359375,-0.08522738316953182,-0.09088398415911943,-0.048864239879511294
1772796383321203700,5.68120361328125,-0.04866144731640815,-0.05949190727993846,-0.055089763330854476
1772796383331195600,5.691195556640625,-0.04612111518383026,-0.06894315131213516,-0.07783798530427738
1772796383341187800,5.701187744140625,-0.0037923780202865597,-0.10550978128500282,-0.08259056839253753
1772796383351180500,5.7111806640625,0.05367781417369842,-0.12207060159407555,-0.06482344103362411
1772796383361172700,5.7211728515625,0.08262859884798526,-0.13168492723349481,-0.07405815623831004
1772796383371165400,5.73116552734375,0.08456453534662724,-0.11269150948263704,-0.08627236217781901
1772796383381157600,5.74115771484375,0.028774259063601492,-0.09345737831108271,-0.08618831888986751
1772796383391149600,5.751149658203125,-0.013420038065314293,-0.07765387917533516,-0.09839244182677939
1772796383401142500,5.761142578125,-0.051883331972360607,-0.046543505314365026,-0.07457836245382204
1772796383411134500,5.771134521484375,-0.07436813550293445,-0.03162921010330319,-0.07402598926806822
1772796383421127700,5.781127685546875,-0.06248129835426807,0.004942570968717337,-0.06659240520121529
1772796383431119600,5.79111962890625,-0.01741466065943241,0.0147527114411816,-0.033411727872211486
1772796383441111600,5.801111572265625,0.01714753415584564,0.021044979985803364,-0.0039355128180235625
1772796383451104800,5.811104736328125,0.038238837501406664,0.037264549109153444,0.01606266152858734
1772796383461096400,5.821096435546875,0.06683189477920531,0.022595387765578925,0.006371343396510929
1772796383471089700,5.831089599609375,0.06927461175620556,0.005699892142042517,0.008224076857417821
1772796383481081600,5.84108154296875,0.07595102078020573,-0.017680545054003596,-0.021372074782010166
1772796383491073500,5.851073486328125,0.07666530652940273,-0.04517747765816748,-0.07132960805725305
1772796383501066800,5.861066650390625,0.038031916752457616,-0.031322811035253105,-0.07931288016242906
1772796383511058700,5.87105859375,-0.02987374473810196,-0.014871223254315554,-0.07981483833519741
1772796383521051600,5.8810517578125,-0.08454992229938507,0.029710882326588032,-0.06890431713908911
1772796383531043600,5.891043701171875,-0.042433951103687285,-0.019030717553943394,-0.0618756423450075
1772796383541035800,5.901035888671875,-0.024637597650289535,-0.051868755457736546,-0.0643484256667085
1772796383551028500,5.911028564453125,0.02450608022511005,-0.05159589333310723,-0.04688526795674115
1772796383561020700,5.921020751953125,0.019388591080904006,-0.0708161786423996,-0.0004367474494501948
1772796383571013600,5.931013671875,0.01599777959883213,-0.06786715611107647,0.0007918810300529003
1772796383581005600,5.941005615234375,-0.024389175847172737,-0.05533109780605882,0.03425648986697197
1772796383590997800,5.950997802734375,-0.06923486426770686,-0.046190271429903805,0.042152485547494144
1772796383600990500,5.960990478515625,-0.09455401444137096,-0.038347668170742685,-0.006171016785129904
1772796383610982700,5.970982666015625,-0.0901689312249422,-0.04697115614190697,-0.01820822218991816
1772796383620975600,5.9809755859375,-0.09413900389969349,-0.06121551620215177,-0.042409876108355817
1772796383630967600,5.990967529296875,-0.10276830055713652,-0.08387626082152128,-0.055685701663698996
1772796383640959500,6.00095947265625,-0.059364043116569516,-0.11774068263098597,-0.08490346671110019
1772796383650952700,6.01095263671875,-0.03923427827954292,-0.1278287267293781,-0.07475276917265727
1772796383660944600,6.020944580078125,-0.08469663729369639,-0.13331347828339785,-0.06311232626680284
1772796383670937600,6.0309375,-0.0324076471298933,-0.13719207328241317,-0.06494299402637407
1772796383680929500,6.040929443359375,0.04619008876681328,-0.07355305626038461,0.010357563488464802
1772796383690921500,6.05092138671875,0.12497487166821956,0.020767733947001397,0.007919102561473846
1772796383700914700,6.060914794921875,0.08218611577749252,0.03689662911221385,0.10802444925336166
1772796383710906600,6.07090673828125,0.07172025134265422,0.026214272382482886,0.14177974813254549
1772796383720899600,6.080899658203125,0.026534955704212188,0.034490042894519866,0.06667524291276931
1772796383730891800,6.090891845703125,-0.02366787583529949,0.01148812015466392,-0.027821999840065836
1772796383740883700,6.1008837890625,-0.05999591127932071,-0.030367884930595754,-0.06090360070876777
1772796383750876700,6.110876708984375,-0.07857260145545006,-0.06246653917655348,-0.04252842445410788
1772796383760868600,6.12086865234375,-0.06713526163995266,-0.05875245055686682,-0.04832768531739712
1772796383770861600,6.130861572265625,-0.0347866512209177,-0.017526340872980654,-0.023063041809946297
1772796383780853500,6.140853515625,0.01924596773982048,-0.0041712578026577825,-0.018467804707866162
1772796383790845700,6.150845703125,0.07822948710620403,-0.015976152288913727,-0.006458930348418652
1772796383800838700,6.160838623046875,0.08426292205154895,-0.015125746004655957,0.01197804082976654
1772796383810830600,6.17083056640625,0.07892273006737231,-0.022097521246038376,0.028245230220817027
1772796383820822800,6.18082275390625,0.10138181463479995,-0.01823401421830058,0.028381259424332526
1772796383830815500,6.1908154296875,0.0982125369489193,-0.03244571411795914,-0.009366762352827936
1772796383840807700,6.2008076171875,0.07634148140251636,-0.06169716223925352,-0.06780614663884044
1772796383850800600,6.210800537109375,0.06185469088852405,-0.057011159847490486,-0.06913054537670686
1772796383860792600,6.22079248046875,0.07093523844480513,-0.0670471449650824,-0.07728594091208651
1772796383870784500,6.230784423828125,0.08115618820786476,-0.05630213479530066,-0.09179295223020016
1772796383880777500,6.240777587890625,0.06901216142773628,-0.04524506300166249,-0.09641396309435367
1772796383890769400,6.250769287109375,0.025503274568915366,-0.054033605341427024,-0.09523606015508994
1772796383900762600,6.2607626953125,-0.0491343255251646,-0.027674700323864817,-0.08116066345358267
1772796383910754600,6.270754638671875,-0.10467033478617667,-0.015395247128419578,-0.05788701110025867
1772796383920746500,6.28074658203125,-0.140101129129529,0.0038269744096323844,-0.053955973527953026
1772796383930739700,6.29073974609375,-0.15063772071301937,0.034212687257863576,-0.04880697500063106
1772796383940731600,6.300731689453125,-0.1289198099017143,0.016208061348646878,-0.031098665156867353
1772796383950724600,6.310724609375,-0.06770166335105895,0.026427513274364173,-0.0402072697638534
1772796383960716500,6.320716552734375,-0.026818448820710182,0.02293587176632136,-0.015432674795668571
1772796383970708700,6.330708740234375,0.014393267011642456,0.01850519584249705,0.00011933379704132676
1772796383980701700,6.34070166015625,0.042344519254565234,0.008329363862797617,0.03246757888989523
1772796383990693600,6.350693603515625,0.06463759960532188,0.008092888225801289,0.05224284946713596
1772796384000686600,6.3606865234375,0.0833323632031679,-0.012950995781458913,0.02886296026036143
1772796384010678500,6.370678466796875,0.08031272312104702,-0.060829987483285365,-0.042294305170979346
1772796384020670700,6.380670654296875,0.02382686578929424,-0.059071745639108116,-0.07709487531939521
1772796384030663400,6.390663330078125,-0.01933306150138378,-0.029057131125591693,-0.04124547197148204
1772796384040655600,6.400655517578125,-0.03525952942967415,0.016141754646785557,0.0023165698466822504
1772796384050648600,6.410648681640625,-0.004349427381157875,0.03944850555211305,-0.00447597637027502
1772796384060640500,6.420640625,0.08377309270799159,0.03519395338017493,-0.028203564769867805
1772796384070632700,6.4306328125,0.14920271947383879,-0.01946530957892537,-0.0545930658550933
1772796384080625400,6.44062548828125,0.16423369986712932,-0.0859259964255616,-0.04088029192090034
1772796384090617600,6.45061767578125,0.09294248759150504,-0.11370678747240454,-0.03968534651529044
1772796384100610600,6.460610595703125,-0.009154781836271286,-0.10581471904832869,-0.04822687355773523
1772796384110602500,6.4706025390625,-0.12831775235533713,-0.08512841630708426,-0.044797374033089726
1772796384120594400,6.480594482421875,-0.1830395226240158,-0.03934336467720568,-0.04202575389528647
1772796384130587600,6.490587646484375,-0.15133154819607733,-0.014055705620348453,-0.01642188676241785
1772796384140579600,6.50057958984375,-0.08556874395310879,-0.008882723429240286,0.02185883538564667
1772796384150571800,6.51057177734375,-0.013543956705927849,-0.042309959397837514,0.002573211488872766
1772796384160565000,6.52056494140625,0.014191606959700584,-0.08956121112275868,-0.012588336481526493
1772796384170556700,6.530556640625,0.037434535381197925,-0.11629530612826347,-0.07411611523693427
1772796384180550000,6.5405498046875,0.0479494996547699,-0.12969430140554905,-0.0767697532845661
1772796384190541800,6.550541748046875,0.05440671297013759,-0.08212755399066954,-0.013697302370425313
1772796384200533800,6.56053369140625,0.008502455407381057,-0.038812180409953,0.03782914245566353
1772796384210527000,6.57052685546875,-0.04752864389419555,0.010848434011638163,0.07782918094331398
1772796384220519000,6.580518798828125,-0.12100538351535796,0.02747596288137138,0.07963261363608762
1772796384230511900,6.590511962890625,-0.15540157411396502,0.041310828825272615,0.0449626110647805
1772796384240503800,6.60050390625,-0.14490940619409085,0.05606368639692664,0.0018800598592497407
1772796384250496000,6.61049609375,-0.15905775853395462,0.10635912812333553,-0.02396552534131333
1772796384260488700,6.62048876953125,-0.21787527368366716,0.17668916721660644,-0.01621306631732732
1772796384270481000,6.63048095703125,-0.14647300224900245,-0.023752558444067835,0.013568013434950262
1772796384280473900,6.640473876953125,-0.04458440713584423,-0.10525248205568641,0.021666271955613044
1772796384290465800,6.6504658203125,0.026156770041584967,-0.09871376446932553,0.07547905588690192
1772796384300458000,6.6604580078125,0.12390695017576217,-0.06880896700583398,0.0671709722741507
1772796384310450700,6.67045068359375,0.14525427410900593,-0.06036459846124052,-0.022820739220362155
1772796384320443000,6.68044287109375,0.130925304505229,-0.07930792999267577,-0.07315110612967983
1772796384330435800,6.690435791015625,0.07005845561027527,-0.14115319546572863,-0.12734940051352606
1772796384340427800,6.700427734375,-0.002502338209748268,-0.1677595724383369,-0.16091873010024427
1772796384350419700,6.710419677734375,-0.10942132870554923,-0.13998835293743758,-0.1737601097610779
1772796384360413000,6.720412841796875,-0.1697375579804182,-0.11070943228732794,-0.16818344213990494
