time,seconds_elapsed,z,y,x
1772796377705474800,0.065474853515625,0.08528286963701248,0.1616356521844864,-0.004748979117721319
1772796377715466800,0.075466796875,0.09042531251907349,0.17928889393806458,-0.0037118825130164623
1772796377725459000,0.085458984375,0.10246386379003525,0.1973845362663269,0.009970639832317829
1772796377735452000,0.095451904296875,0.1124333068728447,0.2067754715681076,0.023754017427563667
1772796377745443800,0.10544384765625,0.12508384883403778,0.2159138321876526,0.030469443649053574
1772796377755436800,0.115436767578125,0.14000976085662842,0.21882598102092743,0.04095033183693886
1772796377765428700,0.1254287109375,0.1503840982913971,0.21010705828666687,0.05918553099036217
1772796377775421000,0.1354208984375,0.15791206061840057,0.1870584636926651,0.09069231897592545
1772796377785413600,0.14541357421875,0.1605967879295349,0.1605490893125534,0.13076996803283691
1772796377795405800,0.15540576171875,0.17360128462314606,0.13406255841255188,0.1690758913755417
1772796377805399000,0.16539892578125,0.18530480563640594,0.10549402236938477,0.1974838376045227
1772796377815390700,0.175390625,0.19817429780960083,0.0619329959154129,0.21828415989875793
1772796377825384000,0.185384033203125,0.20925943553447723,0.024209853261709213,0.23333580791950226
1772796377835375900,0.1953759765625,0.21223782002925873,-0.005769087467342615,0.24274875223636627
1772796377845367800,0.205367919921875,0.20908676087856293,-0.023458069190382957,0.23691882193088531
1772796377855360800,0.21536083984375,0.20138739049434662,-0.01779015175998211,0.21026118099689484
1772796377865353000,0.22535302734375,0.18996456265449524,-0.005118032917380333,0.1736493855714798
1772796377875346000,0.235345947265625,0.17827676236629486,0.0034340573474764824,0.1315542459487915
1772796377885337900,0.245337890625,0.1634831726551056,0.01650219038128853,0.09172215312719345
1772796377895330000,0.255330078125,0.14891670644283295,0.030027825385332108,0.059653446078300476
1772796377905322800,0.26532275390625,0.12760421633720398,0.03954915702342987,0.028576219454407692
1772796377915315000,0.27531494140625,0.10044986009597778,0.04797155037522316,-0.0013426721561700106
1772796377925307600,0.2853076171875,0.07887958735227585,0.04732014238834381,-0.020072683691978455
1772796377935299800,0.2952998046875,0.06444334238767624,0.054029352962970734,-0.029993664473295212
1772796377945291800,0.305291748046875,0.055519621819257736,0.06541569530963898,-0.03419746458530426
1772796377955284700,0.31528466796875,0.051121681928634644,0.07044407725334167,-0.04042081534862518
1772796377965277000,0.32527685546875,0.04207492247223854,0.08019044995307922,-0.04051961749792099
1772796377975270000,0.335269775390625,0.034574802964925766,0.08283563703298569,-0.04155784472823143
1772796377985261800,0.34526171875,0.025121379643678665,0.08908661454916,-0.040257956832647324
1772796377995253800,0.355253662109375,0.014831651002168655,0.10276463627815247,-0.03453192859888077
1772796378005247000,0.3652470703125,0.00619901530444622,0.10608693212270737,-0.032339878380298615
1772796378015238700,0.37523876953125,-0.004677456803619862,0.09325842559337616,-0.02843668684363365
1772796378025232000,0.38523193359375,-0.011895688250660896,0.05687032267451286,-0.02319931425154209
1772796378035224000,0.39522412109375,-0.017200995236635208,0.015095033682882786,-0.01881933957338333
1772796378045215700,0.4052158203125,-0.025305792689323425,-0.028443921357393265,-0.015083189122378826
1772796378055209000,0.415208984375,-0.03213633969426155,-0.053042978048324585,-0.008324651047587395
1772796378065201000,0.425200927734375,-0.034938253462314606,-0.055744752287864685,-0.0042662592604756355
1772796378075193900,0.43519384765625,-0.031268633902072906,-0.04051191359758377,-0.0022418175358325243
1772796378085185800,0.445185791015625,-0.029198290780186653,-0.019135521724820137,-0.002495883032679558
1772796378095178000,0.455177978515625,-0.02129652537405491,0.008632281795144081,-0.0011574577074497938
1772796378105171000,0.4651708984375,-0.01101033203303814,0.035080667585134506,-0.00415324792265892
1772796378115163000,0.475162841796875,0.003256971249356866,0.05088777095079422,-0.006357186008244753
1772796378125155800,0.48515576171875,0.015018820762634277,0.05348328873515129,-0.00021540396846830845
1772796378135147800,0.495147705078125,0.022540293633937836,0.06525034457445145,0.01516446191817522
1772796378145139700,0.5051396484375,0.023508884012699127,0.06994976103305817,0.020919552072882652
1772796378155132400,0.51513232421875,0.022900501266121864,0.06452437490224838,0.021541653200984
1772796378165124600,0.52512451171875,0.02027888409793377,0.046125128865242004,0.017106425017118454
1772796378175117600,0.53511767578125,0.01884356141090393,0.02012474648654461,0.01289271004498005
1772796378185109500,0.545109619140625,0.015526062808930874,-0.01386970654129982,0.005305363796651363
1772796378195102700,0.555102783203125,0.0182986818253994,-0.0340450145304203,0.0006722627440467477
1772796378205094700,0.5650947265625,0.02552996203303337,-0.029533887282013893,-0.004667108878493309
1772796378215086600,0.575086669921875,0.030052928254008293,-0.020350981503725052,-0.0057737138122320175
1772796378225079600,0.58507958984375,0.03564050793647766,-0.008718559518456459,-0.012929894030094147
1772796378235071700,0.59507177734375,0.03587699308991432,0.0016109766438603401,-0.02106444537639618
1772796378245064400,0.605064453125,0.04344596341252327,0.004394512623548508,-0.028912514448165894
1772796378255056600,0.615056640625,0.05606566369533539,-0.004382172599434853,-0.03369423747062683
1772796378265048600,0.625048583984375,0.06482160091400146,-0.00782510731369257,-0.035210639238357544
1772796378275041500,0.63504150390625,0.06774885952472687,-0.0041548567824065685,-0.01795324683189392
1772796378285033700,0.64503369140625,0.06339912116527557,-0.003317558905109763,0.0006052573444321752
1772796378295026400,0.6550263671875,0.06871754676103592,-0.009623744525015354,0.020607274025678635
1772796378305018600,0.6650185546875,0.07721036672592163,-0.021441254764795303,0.026461968198418617
1772796378315010600,0.675010498046875,0.07895796000957489,-0.02311324141919613,0.02750730700790882
1772796378325003500,0.68500341796875,0.0794016420841217,-0.022919097915291786,0.02322494424879551
1772796378334995500,0.694995361328125,0.07984142750501633,-0.013758508488535881,0.021251166239380836
1772796378344988700,0.70498876953125,0.0780792161822319,0.0004430650733411312,0.021109485998749733
1772796378354980600,0.714980712890625,0.08177129179239273,0.006273995153605938,0.02370692789554596
1772796378364972500,0.72497265625,0.07594456523656845,-0.0009711342863738537,0.018849322572350502
1772796378374965800,0.7349658203125,0.07801899313926697,-0.01441577821969986,0.013581023551523685
1772796378384957400,0.74495751953125,0.07812684774398804,-0.026322240009903908,0.011807357892394066
1772796378394950700,0.75495068359375,0.07392237335443497,-0.03520781919360161,0.0063438210636377335
1772796378404942600,0.764942626953125,0.06949833035469055,-0.04681653901934624,0.0037112862337380648
1772796378414934500,0.7749345703125,0.05606941878795624,-0.0470426082611084,0.0029911210294812918
1772796378424927700,0.784927734375,0.04942456632852554,-0.039385221898555756,0.010977674275636673
1772796378434919700,0.794919677734375,0.046008385717868805,-0.03166306018829346,0.02718214876949787
1772796378444912600,0.80491259765625,0.05036585032939911,-0.03481677547097206,0.02879442647099495
1772796378454904600,0.814904541015625,0.043067581951618195,-0.03426350653171539,0.025352153927087784
1772796378464896800,0.824896728515625,0.03407967835664749,-0.03224163502454758,0.016699543222784996
1772796378474889500,0.834889404296875,0.02441401593387127,-0.03275027871131897,0.008793162181973457
1772796378484881700,0.844881591796875,0.018010444939136505,-0.025863613933324814,-0.0012139326427131891
1772796378494874600,0.85487451171875,0.01728902757167816,-0.01452040858566761,-0.0011758781038224697
1772796378504866600,0.864866455078125,0.013973124325275421,-0.0023287232033908367,0.0037259359378367662
1772796378514858500,0.8748583984375,0.00350305181927979,-0.0017375615425407887,0.008565227501094341
1772796378524851500,0.8848515625,-0.006812436506152153,-0.014839248731732368,0.005362244322896004
1772796378534843600,0.89484375,-0.017314855009317398,-0.022559072822332382,0.0046776700764894485
1772796378544836600,0.904836669921875,-0.0295462217181921,-0.02717965841293335,-0.0007099051144905388
1772796378554828500,0.91482861328125,-0.03340492025017738,-0.02904815785586834,-0.003003933932632208
1772796378564821500,0.924821533203125,-0.030223775655031204,-0.016397876664996147,-0.005942465737462044
1772796378574813700,0.934813720703125,-0.0250374898314476,-0.008494654670357704,-0.007755030877888203
1772796378584805400,0.944805419921875,-0.01919185183942318,-0.006425644736737013,-0.010013657622039318
1772796378594798600,0.954798583984375,-0.01648544892668724,-0.009516062214970589,-0.008964559063315392
1772796378604790800,0.964790771484375,-0.016824468970298767,-0.0034746816381812096,-0.010479098185896873
1772796378614783500,0.974783447265625,-0.016866307705640793,-0.0025739441625773907,-0.008640501648187637
1772796378624775700,0.984775634765625,-0.019416283816099167,-0.008574845269322395,-0.004242823459208012
1772796378634767600,0.994767578125,-0.024887043982744217,-0.0019466197118163109,0.005718042608350515
1772796378644760600,1.004760498046875,-0.022752519696950912,0.008054349571466446,0.013980499468743801
1772796378654752500,1.01475244140625,-0.025980016216635704,0.00635913060978055,0.013682913966476917
1772796378664745500,1.024745361328125,-0.03015798330307007,-0.012839331291615963,0.011331608518958092
1772796378674737700,1.034737548828125,-0.02953573688864708,-0.019182538613677025,0.0068045505322515965
1772796378684729600,1.0447294921875,-0.03332195430994034,-0.018464017659425735,0.00583329563960433
1772796378694722600,1.05472265625,-0.016582824289798737,-0.030557582154870033,-0.005143832881003618
1772796378704714500,1.064714599609375,-0.0066130151972174644,-0.0267399400472641,-0.012526381760835648
1772796378714707700,1.074707763671875,-0.010441016405820847,-0.010906703770160675,-0.012612086720764637
1772796378724699400,1.084699462890625,-0.0188885647803545,0.004471453372389078,-0.003167718416079879
1772796378734691600,1.094691650390625,-0.019227754324674606,0.011052772402763367,-0.00034061784390360117
1772796378744684800,1.104684814453125,-0.015973638743162155,0.01654021441936493,-0.0010253165382891893
1772796378754676500,1.114676513671875,-0.014685471542179585,0.02643273025751114,-0.004061509855091572
1772796378764669700,1.124669677734375,-0.013762153685092926,0.024888895452022552,-0.014402830973267555
1772796378774661600,1.13466162109375,-0.018976911902427673,0.016522962599992752,-0.022779395803809166
1772796378784653600,1.144653564453125,-0.026572247967123985,-0.0022107791155576706,-0.029040487483143806
1772796378794646500,1.154646484375,-0.03405361995100975,-0.024276811629533768,-0.02312599867582321
1772796378804638700,1.164638671875,-0.041126176714897156,-0.02947823330760002,-0.011718614026904106
1772796378814631700,1.174631591796875,-0.04331248626112938,-0.02945159561932087,0.00379641680046916
1772796378824623600,1.18462353515625,-0.02129959687590599,-0.031943514943122864,0.007444414775818586
1772796378834615800,1.19461572265625,-0.00008882582187652588,-0.03807369992136955,0.0021240755449980497
1772796378844608500,1.2046083984375,0.005529644899070263,-0.02764369547367096,-0.004713590256869793
1772796378854600700,1.2146005859375,-0.0007449797121807933,-0.022897321730852127,-0.011931116692721844
1772796378864593400,1.224593505859375,-0.005079806782305241,-0.025001751258969307,-0.013034463860094547
1772796378874585600,1.234585693359375,-0.007499482482671738,-0.02811208739876747,-0.011408040300011635
1772796378884577500,1.24457763671875,-0.002720706397667527,-0.030728109180927277,0.0008001563837751746
1772796378894570500,1.254570556640625,0.0008256826549768448,-0.031946636736392975,0.009995651431381702
1772796378904562700,1.264562744140625,0.0030219918116927147,-0.028873350471258163,0.01758832298219204
1772796378914555600,1.2745556640625,0.008421909995377064,-0.013537496328353882,0.020462101325392723
1772796378924547600,1.284547607421875,0.01351653691381216,0.0011261352337896824,0.014692628756165504
1772796378934539500,1.29453955078125,0.022100290283560753,0.0042449599131941795,0.007579605560749769
1772796378944532700,1.30453271484375,0.030288446694612503,-0.005127502605319023,0.0015821673441678286
1772796378954524400,1.3145244140625,0.029220499098300934,-0.015851866453886032,0.005490689072757959
1772796378964517600,1.324517578125,0.026440158486366272,-0.01927456259727478,0.013414924964308739
1772796378974509800,1.334509765625,0.026798034086823463,-0.013950791209936142,0.019898559898138046
1772796378984502500,1.34450244140625,0.029103266075253487,-0.001502644270658493,0.023326313123106956
1772796378994494700,1.35449462890625,0.036179281771183014,0.008612574078142643,0.02384270168840885
1772796379004486700,1.364486572265625,0.03639606386423111,0.0030257944017648697,0.018321702256798744
1772796379014479600,1.374479736328125,0.029719278216362,-0.018600787967443466,0.020199887454509735
1772796379024471600,1.384471435546875,0.02177906222641468,-0.037440791726112366,0.02228434383869171
1772796379034464500,1.394464599609375,0.020253604277968407,-0.04018864035606384,0.024275057017803192
1772796379044456400,1.40445654296875,0.014542188495397568,-0.035395748913288116,0.02234559692442417
1772796379054448600,1.41444873046875,0.015001610852777958,-0.03519660234451294,0.012713522650301456
1772796379064441600,1.424441650390625,0.017608046531677246,-0.031018901616334915,-0.00012158165918663144
1772796379074433500,1.43443359375,0.02202022820711136,-0.024970270693302155,-0.007515644188970327
1772796379084426800,1.4444267578125,0.02895296737551689,-0.013944783248007298,-0.013829466886818409
1772796379094418400,1.45441845703125,0.028541410341858864,-0.0019151978194713593,-0.005593720357865095
1772796379104410600,1.46441064453125,0.027937140315771103,0.008948101662099361,0.008504788391292095
1772796379114403600,1.474403564453125,0.029695358127355576,0.017298977822065353,0.027981018647551537
1772796379124395500,1.4843955078125,0.02701089344918728,0.01589362695813179,0.03198135271668434
1772796379134388700,1.494388671875,0.023440442979335785,-0.0003086896613240242,0.025281010195612907
1772796379144381200,1.504381103515625,0.018040616065263748,-0.017392601817846298,0.01416790671646595
1772796379154373400,1.514373291015625,0.01822841912508011,-0.026962580159306526,0.00015053115203045309
1772796379164366300,1.524366455078125,0.01697753183543682,-0.025260021910071373,-0.01747560128569603
1772796379174358300,1.534358154296875,0.014021134003996849,-0.026437286287546158,-0.027972040697932243
1772796379184351500,1.5443515625,0.009567263536155224,-0.02398371323943138,-0.03735888749361038
1772796379194343400,1.554343505859375,0.011930553242564201,-0.0250559039413929,-0.035496003925800323
1772796379204335400,1.56433544921875,0.010436785407364368,-0.023940570652484894,-0.026458831503987312
1772796379214328300,1.574328369140625,0.012385373935103416,-0.02102896012365818,-0.009722177870571613
1772796379224320500,1.584320556640625,0.019709866493940353,-0.011808563955128193,-0.00088394561316818
1772796379234313200,1.594313232421875,0.024932876229286194,0.00832075159996748,0.005773089826107025
1772796379244305400,1.604305419921875,0.025131549686193466,0.02220167964696884,0.0082682054489851
1772796379254297300,1.61429736328125,0.021084586158394814,0.03577087074518204,0.003940977156162262
1772796379264290300,1.624290283203125,0.013757698237895966,0.04501337185502052,0.005074152257293463
1772796379274282500,1.634282470703125,0.00900170300155878,0.04874387010931969,0.0014861375093460083
1772796379284275200,1.644275146484375,0.006849869154393673,0.041378628462553024,0.005048382095992565
1772796379294267400,1.654267333984375,0.006856144871562719,0.04227166622877121,0.007408656179904938
1772796379304259300,1.66425927734375,0.011774471029639244,0.048679765313863754,0.011403931304812431
1772796379314252300,1.674252197265625,0.011682779528200626,0.045823149383068085,0.002292573917657137
1772796379324244200,1.684244140625,0.009564501233398914,0.027910463511943817,-0.011719915084540844
1772796379334237400,1.694237548828125,0.007639545947313309,0.009463131427764893,-0.01744024269282818
1772796379344229400,1.7042294921875,0.009775401093065739,0.004078751429915428,-0.014088920317590237
1772796379354221300,1.71422119140625,0.00899962242692709,0.004313110373914242,-0.006645651999861002
1772796379364214500,1.724214599609375,0.009069130755960941,0.0062665389850735664,-0.012158661149442196
1772796379374206200,1.734206298828125,0.004911764990538359,0.011354091577231884,-0.009770715609192848
1772796379384199400,1.744199462890625,0.0031357030384242535,0.01599891111254692,-0.005866255611181259
1772796379394191400,1.75419140625,0.0019699193071573973,0.009982036426663399,-0.003099244087934494
1772796379404183300,1.764183349609375,-0.0006005639443174005,-0.008424934931099415,-0.003055035602301359
1772796379414176500,1.774176513671875,0.0028746630996465683,-0.00986153818666935,-0.0010136158671230078
1772796379424168400,1.78416845703125,0.007094708736985922,0.0025301510468125343,0.00398939847946167
1772796379434161400,1.794161376953125,0.016536077484488487,0.011545844376087189,0.008389633148908615
1772796379444153300,1.8041533203125,0.017805341631174088,0.0038045672699809074,0.004846829455345869
1772796379454145500,1.8141455078125,0.01371924951672554,-0.012322802096605301,-0.003826477797701955
1772796379464138200,1.82413818359375,0.007787590846419334,-0.023037496954202652,-0.01209532655775547
1772796379474130400,1.83413037109375,0.003700947156175971,-0.022167056798934937,-0.012627017684280872
1772796379484123100,1.844123046875,0.005792061798274517,-0.016319021582603455,-0.011642447672784328
1772796379494115300,1.854115234375,0.007117302156984806,-0.0072430758737027645,-0.005869680549949408
1772796379504107300,1.864107177734375,0.008113324642181396,-0.0012927749194204807,-0.003004917874932289
1772796379514100200,1.874100341796875,0.005763447843492031,-0.005535343661904335,-0.008395534940063953
1772796379524092400,1.884092529296875,0.005268631968647242,-0.013802329078316689,-0.0155024453997612
1772796379534085400,1.89408544921875,0.008627312257885933,0.0006171748973429203,-0.018682340160012245
1772796379544077300,1.904077392578125,0.009730127640068531,0.02261808142066002,-0.01750841923058033
1772796379554069200,1.9140693359375,0.016571518033742905,0.04060740768909454,-0.017123250290751457
1772796379564062500,1.9240625,0.019584085792303085,0.04589111730456352,-0.01821194961667061
1772796379574054100,1.93405419921875,0.022907227277755737,0.042826708406209946,-0.01574329286813736
1772796379584047400,1.94404736328125,0.028735555708408356,0.04013611748814583,-0.014508119784295559
1772796379594039600,1.95403955078125,0.02769562043249607,0.03402151167392731,-0.010508077219128609
1772796379604031200,1.96403125,0.03022322617471218,0.029309844598174095,-0.0011888776207342744
1772796379614024400,1.9740244140625,0.035644613206386566,0.0255219005048275,0.010835978202521801
1772796379624016400,1.984016357421875,0.033837392926216125,0.02450297400355339,0.0168848168104887
1772796379634009300,1.99400927734375,0.027638770639896393,0.015232245437800884,0.020060354843735695
1772796379644001300,2.004001220703125,0.024117272347211838,-0.00496543338522315,0.011499091051518917
1772796379653993500,2.013993408203125,0.013604060746729374,-0.0220610573887825,0.0009007619810290635
1772796379663986400,2.023986328125,0.008367752656340599,-0.02795782871544361,-0.0069358558394014835
1772796379673978400,2.033978271484375,0.004212707746773958,-0.01661640964448452,-0.011484866961836815
1772796379683971300,2.043971435546875,0.0035162908025085926,0.0009037288837134838,-0.01585138775408268
1772796379693963300,2.05396337890625,0.0022672684863209724,0.019111761823296547,-0.014066535979509354
1772796379703955500,2.06395556640625,0.00008667213842272758,0.02298266626894474,-0.015406637452542782
1772796379713948200,2.0739482421875,-0.0017586774192750454,0.020522410050034523,-0.01579863950610161
1772796379723940400,2.0839404296875,-0.0026750711258500814,0.008985063061118126,-0.011013471521437168
1772796379733933600,2.09393359375,-0.005622243508696556,0.01704033464193344,0.004147626459598541
1772796379743925200,2.10392529296875,-0.0046611083671450615,0.02582477033138275,0.019989972934126854
1772796379753917400,2.11391748046875,-0.007757736835628748,0.026863250881433487,0.02559261955320835
1772796379763910400,2.123910400390625,-0.005886067636311054,0.021500442177057266,0.026262670755386353
1772796379773902300,2.13390234375,-0.0029459374491125345,0.014611111022531986,0.022230643779039383
1772796379783895300,2.143895263671875,-0.008214469067752361,0.0020609647035598755,0.014860612340271473
1772796379793887500,2.153887451171875,-0.010811679065227509,-0.005580023862421513,0.008962888270616531
1772796379803879200,2.163879150390625,-0.013627706095576286,-0.0005216160789132118,0.006902399938553572
1772796379813872400,2.173872314453125,-0.0181084256619215,0.014414548873901367,0.011412104591727257
1772796379823864600,2.183864501953125,-0.020482366904616356,0.024271173402667046,0.00899555254727602
1772796379833857300,2.193857177734375,-0.025372585281729698,0.028889568522572517,0.0046546608209609985
1772796379843849500,2.203849365234375,-0.029151875525712967,0.026843992993235588,-0.00700812041759491
1772796379853841400,2.21384130859375,-0.03249608352780342,0.01743181236088276,-0.01481353584676981
1772796379863834400,2.22383447265625,-0.034028202295303345,-0.003111547091975808,-0.0239308662712574
1772796379873826300,2.233826416015625,-0.03789150342345238,-0.017394937574863434,-0.027542850002646446
1772796379883819300,2.2438193359375,-0.04060313478112221,-0.0211662407964468,-0.021814124658703804
1772796379893811500,2.2538115234375,-0.0486370213329792,-0.02346510998904705,-0.012460273690521717
1772796379903803400,2.263803466796875,-0.047152575105428696,-0.021581990644335747,-0.0019405207131057978
1772796379913796400,2.27379638671875,-0.045322615653276443,-0.011626044288277626,0.002124534919857979
1772796379923788300,2.283788330078125,-0.040826667100191116,0.003453838638961315,-0.0011455605272203684
1772796379933781500,2.293781494140625,-0.03270896524190903,0.00884859450161457,-0.005134964361786842
1772796379943773200,2.303773193359375,-0.03273692727088928,-0.0023489329032599926,-0.013551617972552776
1772796379953765400,2.313765380859375,-0.04316608980298042,-0.010858772322535515,-0.020419396460056305
1772796379963758300,2.32375830078125,-0.0455930270254612,-0.00938817486166954,-0.01725289784371853
1772796379973750300,2.333750244140625,-0.04536053538322449,-0.005492768716067076,-0.010652253404259682
1772796379983743500,2.343743408203125,-0.040658723562955856,-0.0010591382160782814,-0.002000441774725914
1772796379993735400,2.3537353515625,-0.03404483199119568,0.011448760516941547,0.006683754734694958
1772796380003727400,2.363727294921875,-0.03638521581888199,0.013865047134459019,0.005169747397303581
1772796380013720300,2.37372021484375,-0.03845575079321861,0.003155379556119442,-0.0008090183255262673
1772796380023712500,2.38371240234375,-0.039077065885066986,-0.007893809117376804,-0.015110726468265057
1772796380033705200,2.393705322265625,-0.03905385360121727,-0.02685362659394741,-0.02531704306602478
1772796380043697400,2.403697509765625,-0.03622956946492195,-0.036219168454408646,-0.022823523730039597
1772796380053689300,2.413689453125,-0.037206634879112244,-0.029533475637435913,-0.011575757525861263
1772796380063682300,2.423682373046875,-0.04036940261721611,-0.009960574097931385,-0.0011335029266774654
1772796380073674500,2.433674560546875,-0.041541289538145065,0.007002316415309906,0.006769805680960417
1772796380083667200,2.443667236328125,-0.043316550552845,0.015482086688280106,0.010819408111274242
1772796380093659400,2.453659423828125,-0.036007143557071686,0.02294784039258957,0.0060389223508536816
1772796380103651300,2.4636513671875,-0.029740992933511734,0.01567048579454422,0.0025549752172082663
1772796380113644300,2.473644287109375,-0.02425200305879116,0.007285167928785086,0.00313164247199893
1772796380123636200,2.48363623046875,-0.021432513371109962,-0.006179508753120899,0.0069711217656731606
1772796380133629400,2.49362939453125,-0.024883026257157326,-0.005531088914722204,0.01522005908191204
1772796380143621000,2.50362109375,-0.030284715816378593,-0.0024886936880648136,0.017465902492403984
1772796380153614300,2.5136142578125,-0.03476408123970032,-0.003826961386948824,0.017087765038013458
1772796380163606300,2.523606201171875,-0.03731778636574745,-0.0002588583156466484,0.01231751125305891
1772796380173598200,2.53359814453125,-0.03062446042895317,0.008576776832342148,0.010286243632435799
1772796380183591200,2.543591064453125,-0.028401784598827362,0.020535701885819435,0.0036557712592184544
1772796380193583400,2.553583251953125,-0.02574855461716652,0.018401939421892166,-0.000668359745759517
1772796380203575000,2.563574951171875,-0.025524849072098732,0.01237707119435072,0.0014483206905424595
1772796380213568300,2.573568359375,-0.02754342555999756,0.004593897610902786,0.004440728574991226
1772796380223560400,2.583560546875,-0.025664832442998886,-0.0026059583760797977,0.014323453418910503
1772796380233553200,2.59355322265625,-0.02266528829932213,-0.0037554313894361258,0.01740664429962635
1772796380243545300,2.60354541015625,-0.019279344007372856,0.010172633454203606,0.012934398837387562
1772796380253537300,2.613537353515625,-0.0151546411216259,0.019675325602293015,0.007755082566291094
1772796380263530200,2.6235302734375,-0.017549332231283188,0.018760142847895622,-0.010746839456260204
1772796380273522200,2.633522216796875,-0.018326563760638237,0.009428897872567177,-0.02143564075231552
1772796380283515100,2.64351513671875,-0.023897631093859673,-0.015356077812612057,-0.028808603063225746
1772796380293507300,2.65350732421875,-0.030569257214665413,-0.0333876758813858,-0.026229199022054672
1772796380303499300,2.663499267578125,-0.028890134766697884,-0.03340498358011246,-0.017048217356204987
1772796380313492200,2.6734921875,-0.02658371813595295,0.003876594826579094,0.00014436247874982655
1772796380323484200,2.683484130859375,-0.02340097352862358,0.036285400390625,0.019829383119940758
1772796380333477400,2.693477294921875,-0.01888817548751831,0.03757220879197121,0.021823588758707047
1772796380343469000,2.703468994140625,-0.01079589407891035,0.022203905507922173,0.01750127784907818
1772796380353461200,2.713461181640625,-0.0064512393437325954,0.017738904803991318,-0.000980309210717678
1772796380363454500,2.723454345703125,-0.00459688063710928,0.012244801968336105,-0.009361542761325836
1772796380373446100,2.733446044921875,-0.002584326546639204,0.012590816244482994,-0.011067903600633144
1772796380383439400,2.743439453125,-0.010105893015861511,0.014807099476456642,-0.008407938294112682
1772796380393431300,2.753431396484375,-0.012221023440361023,0.018133826553821564,0.000777928507886827
1772796380403423200,2.76342333984375,-0.008824428543448448,0.012260758318006992,0.006319434382021427
1772796380413416200,2.773416259765625,0.0002264692448079586,0.0016482663340866566,0.018144996836781502
1772796380423408400,2.783408447265625,0.006050270050764084,-0.0034697961527854204,0.03163417428731918
1772796380433401000,2.793401123046875,0.012869483791291714,0.005652294028550386,0.04064502194523811
1772796380443393300,2.803393310546875,0.0043929084204137325,0.01962004229426384,0.04515295475721359
1772796380453385200,2.81338525390625,-0.006934070494025946,0.030648045241832733,0.037404097616672516
1772796380463378200,2.823378173828125,-0.004154795780777931,0.03419457748532295,0.024267522618174553
1772796380473370400,2.833370361328125,0.013984670862555504,0.0441209152340889,0.009039097465574741
1772796380483363000,2.843363037109375,0.013493850827217102,0.04731511324644089,0.0023822602815926075
1772796380493355300,2.853355224609375,0.018223697319626808,0.02439272403717041,0.0014800123171880841
1772796380503347200,2.86334716796875,0.014695009216666222,-0.02002454549074173,0.01684938184916973
1772796380513340200,2.873340087890625,-0.0017282909248024225,-0.025048324838280678,0.023088889196515083
1772796380523332000,2.88333203125,-0.012340721674263477,-0.0378328301012516,0.019252339377999306
1772796380533325300,2.8933251953125,-0.015863889828324318,-0.058596935123205185,0.003163618966937065
1772796380543317200,2.903317138671875,-0.014581045135855675,-0.0680205300450325,-0.01031916681677103
1772796380553309200,2.91330908203125,-0.016399504616856575,-0.05395519733428955,-0.014154748991131783
1772796380563302400,2.923302490234375,-0.019030174240469933,-0.01786217652261257,-0.016021357849240303
1772796380573294000,2.933294189453125,-0.03235791251063347,0.026066552847623825,-0.014940283261239529
1772796380583287300,2.943287353515625,-0.04308192804455757,0.06343656033277512,-0.017195716500282288
1772796380593279200,2.953279296875,-0.043955978006124496,0.09150761365890503,-0.02297956869006157
1772796380603271200,2.963271240234375,-0.033956073224544525,0.09274811297655106,-0.03020392544567585
1772796380613264400,2.973264404296875,-0.020175425335764885,0.0741896703839302,-0.030872706323862076
1772796380623256300,2.98325634765625,-0.013086623512208462,0.0473247691988945,-0.018996605649590492
1772796380633249300,2.993249267578125,-0.009618681855499744,0.03281645104289055,-0.00861006136983633
1772796380643241200,3.0032412109375,-0.007131555117666721,0.028532754629850388,0.007269302848726511
1772796380653233400,3.0132333984375,-0.00514571275562048,0.028547637164592743,0.025672856718301773
1772796380663226000,3.02322607421875,-0.0022857438307255507,0.0299210287630558,0.03974979370832443
1772796380673218300,3.03321826171875,0.0076398844830691814,0.030512195080518723,0.04910578951239586
1772796380683211300,3.043211181640625,0.022410839796066284,0.037376489490270615,0.049804605543613434
1772796380693203200,3.053203125,0.031078536063432693,0.03919265419244766,0.04577935114502907
1772796380703195400,3.0631953125,0.027407635003328323,0.032697468996047974,0.035173311829566956
1772796380713188000,3.07318798828125,0.022529639303684235,0.01580769568681717,0.029653122648596764
1772796380723180300,3.08318017578125,0.02503887191414833,0.011561018414795399,0.022073499858379364
1772796380733173200,3.09317333984375,0.022980639711022377,0.008644718676805496,0.02098919078707695
1772796380743165200,3.103165283203125,0.025733016431331635,0.002469380386173725,0.0176067091524601
1772796380753157000,3.1131572265625,0.03014669567346573,-0.005609901621937752,0.011745676398277283
1772796380763150300,3.123150390625,0.038548704236745834,-0.015007664449512959,0.00518391327932477
1772796380773142300,3.133142333984375,0.04124178737401962,-0.0171035286039114,0.0026549366302788258
1772796380783135200,3.14313525390625,0.038544002920389175,-0.011019537225365639,0.0013119045179337263
1772796380793127400,3.15312744140625,0.037768635898828506,-0.0002455129288136959,0.0011218171566724777
1772796380803119000,3.163119140625,0.032952841371297836,0.006633165292441845,0.0032571395859122276
1772796380813112300,3.1731123046875,0.03228114917874336,0.008543159812688828,0.0024488884955644608
1772796380823104300,3.183104248046875,0.03192188963294029,0.0030232262797653675,-0.008344370871782303
1772796380833097200,3.19309716796875,0.03455858305096626,-0.0028034192509949207,-0.01635657250881195
1772796380843089400,3.20308935546875,0.03063281625509262,-0.01614532433450222,-0.022802218794822693
1772796380853081300,3.213081298828125,0.02932194247841835,-0.03021630272269249,-0.028149154037237167
1772796380863074300,3.22307421875,0.02509630285203457,-0.035905078053474426,-0.026405582204461098
1772796380873066200,3.233066162109375,0.028074322268366814,-0.034481119364500046,-0.01809888519346714
1772796380883059200,3.24305908203125,0.025493452325463295,-0.01897379942238331,-0.010793301276862621
1772796380893051100,3.253051025390625,0.02870967611670494,-0.005134720355272293,-0.001920138718560338
1772796380903043300,3.263043212890625,0.027856402099132538,0.004609253257513046,0.0052331117913126945
1772796380913036000,3.2730361328125,0.024477720260620117,0.01165514811873436,0.0033449616748839617
1772796380923028200,3.2830283203125,0.02238527499139309,0.013266893103718758,0.004943923559039831
1772796380933021200,3.293021240234375,0.018511660397052765,0.012235693633556366,0.005270712077617645
1772796380943013000,3.30301318359375,0.005144190043210983,0.009980529546737671,0.002448826562613249
1772796380953005300,3.31300537109375,-0.0022750124335289,-0.0032195106614381075,-0.00008295918814837933
1772796380962998300,3.322998291015625,-0.0017871211748570204,-0.014847137965261936,-0.001884587574750185
1772796380972990200,3.332990234375,0.003999293316155672,-0.00744646368548274,-0.004040156491100788
1772796380982983200,3.342983154296875,0.014198933728039265,0.0016492963768541813,-0.0055898502469062805
1772796380992975400,3.352975341796875,0.01830376498401165,0.010922940447926521,-0.0035605146549642086
1772796381002967000,3.362967041015625,0.01722838170826435,0.012070229277014732,-0.006518487818539143
1772796381012960300,3.372960205078125,0.013295711949467659,0.007982086390256882,-0.013784726150333881
1772796381022952200,3.3829521484375,0.005805837921798229,-0.0027320762164890766,-0.02246450074017048
1772796381032945200,3.392945068359375,0.0008107402827590704,-0.017133889719843864,-0.030037228018045425
1772796381042937300,3.402937255859375,-0.0000939355231821537,-0.02341601997613907,-0.033835962414741516
1772796381052929300,3.41292919921875,0.009883646853268147,-0.02163480594754219,-0.0318104550242424
1772796381062922200,3.422922119140625,0.013862676918506622,-0.0183282271027565,-0.035750068724155426
1772796381072914200,3.4329140625,0.02053266391158104,-0.014536426402628422,-0.031212033703923225
1772796381082907100,3.4429072265625,0.02932748757302761,0.0003200178034603596,-0.019891735166311264
1772796381092899300,3.4528994140625,0.03643388673663139,0.012000711634755135,-0.009187496267259121
1772796381102891300,3.462891357421875,0.03941662609577179,0.018445294350385666,-0.0007639180985279381
1772796381112884200,3.47288427734375,0.038300540298223495,0.01667591743171215,-0.0007386360084638
1772796381122876200,3.482876220703125,0.03790159896016121,0.011560516431927681,0.0011958840768784285
1772796381132869000,3.492869140625,0.037173591554164886,0.005059122107923031,-0.006800709757953882
1772796381142861000,3.502861083984375,0.0358784943819046,0.00015304656699299812,-0.01089185755699873
1772796381152853000,3.51285302734375,0.03916897624731064,-0.0020150933414697647,-0.015740878880023956
1772796381162846200,3.52284619140625,0.04440821334719658,-0.00618400564417243,-0.011746670119464397
1772796381172838000,3.532837890625,0.04766581952571869,-0.009356949478387833,-0.005605104845017195
1772796381182831000,3.5428310546875,0.04772280901670456,-0.005832522176206112,0.006697367411106825
1772796381192823000,3.552822998046875,0.04883414879441261,-0.007440539076924324,0.018076786771416664
1772796381202815000,3.56281494140625,0.041074760258197784,-0.0056924400851130486,0.020977769047021866
1772796381212808000,3.572807861328125,0.03568309545516968,-0.0023912983015179634,0.01598924957215786
1772796381222800100,3.582800048828125,0.03140845522284508,-0.001940158661454916,0.016216948628425598
1772796381232792800,3.592792724609375,0.029108455404639244,0.009403465315699577,0.01187184825539589
1772796381242785000,3.602784912109375,0.0281132310628891,0.027364090085029602,0.010306175798177719
1772796381252777000,3.61277685546875,0.029282091185450554,0.03682177513837814,0.009775142185389996
1772796381262770000,3.62277001953125,0.025243675336241722,0.03154152259230614,0.012609011493623257
1772796381272762000,3.63276220703125,0.02096092328429222,0.024495001882314682,0.010862305760383606
1772796381282754800,3.6427548828125,0.011557834222912788,0.015578473918139935,0.006465159822255373
1772796381292747000,3.6527470703125,0.01207303162664175,0.0012851562350988388,0.0015885140746831894
1772796381302739000,3.662739013671875,0.010303894057869911,0.0002728886902332306,0.0017552278004586697
1772796381312732000,3.67273193359375,0.009446118026971817,0.006206434220075607,-0.000023785221856087446
1772796381322723800,3.682723876953125,0.006058043334633112,0.01842581480741501,0.003961635287851095
1772796381332717000,3.692717041015625,0.0029508103616535664,0.018133264034986496,-0.000030842667911201715
1772796381342709000,3.702708984375,-0.0011648386716842651,0.009337374940514565,0.00426004221662879
1772796381352701000,3.712700927734375,-0.004242604598402977,-0.005701136775314808,-0.0034538963809609413
1772796381362694100,3.722694091796875,-0.004826369695365429,-0.007073996588587761,-0.006356475409120321
1772796381372685800,3.732685791015625,-0.005762615706771612,-0.003420077497139573,-0.009640481323003769
1772796381382679000,3.742678955078125,-0.0072105759754776955,0.004143832251429558,-0.012096980586647987
1772796381392671000,3.7526708984375,-0.00619627395644784,0.009504931047558784,-0.012981569394469261
1772796381402663000,3.762662841796875,-0.0013788819778710604,0.0074295299127697945,-0.008112246170639992
1772796381412656000,3.77265625,0.001363276969641447,0.008112444542348385,0.0013759820722043514
1772796381422648000,3.78264794921875,0.0076243681833148,0.014625471085309982,0.010455763898789883
1772796381432641000,3.79264111328125,0.01228407584130764,0.015276933088898659,0.018148519098758698
1772796381442633000,3.802633056640625,0.011275003664195538,0.007597973570227623,0.01768060214817524
1772796381452625200,3.812625244140625,0.005441858898848295,-0.007637582253664732,0.015312396921217442
1772796381462617900,3.822617919921875,-0.0016573292668908834,-0.016104038804769516,0.010287810117006302
1772796381472610000,3.832610107421875,0.00331999734044075,-0.0003837249241769314,0.0026842807419598103
1772796381482603000,3.84260302734375,0.010645554400980473,0.02162490412592888,0.0020736181177198887
1772796381492595000,3.852594970703125,0.020265642553567886,0.038338277488946915,-0.00031514454167336226
1772796381502587100,3.862587158203125,0.020745810121297836,0.04022539407014847,-0.002207054290920496
1772796381512579800,3.872579833984375,0.013787505216896534,0.019089821726083755,-0.0055712321773171425
1772796381522572000,3.882572021484375,0.004298129118978977,-0.008756457827985287,-0.009033607318997383
1772796381532565000,3.89256494140625,-0.005888826213777065,-0.03705299645662308,-0.013899018056690693
1772796381542557000,3.902556884765625,-0.006061664782464504,-0.04686567932367325,-0.0110499681904912
1772796381552548900,3.912548828125,0.0019526344258338213,-0.03706488758325577,-0.009813555516302586
1772796381562542000,3.9225419921875,0.004657873883843422,-0.016660545021295547,-0.00815360713750124
1772796381572534000,3.932533935546875,0.007982829585671425,-0.001502365805208683,-0.004212395288050175
1772796381582527000,3.94252685546875,0.010639066807925701,0.007134531624615192,0.0040332842618227005
1772796381592519200,3.952519287109375,0.010129338130354881,0.011736741289496422,0.0133857736364007
1772796381602510800,3.9625107421875,0.005330587737262249,0.01165950857102871,0.015605252236127853
1772796381612504000,3.972504150390625,0.006358689162880182,0.009056862443685532,0.01748618111014366
1772796381622496000,3.98249609375,0.008231690153479576,-0.002704987768083811,0.011870372109115124
1772796381632489000,3.992489013671875,0.0072794631123542786,-0.011623923666775227,0.0005029476014897227
1772796381642481200,4.002481201171875,0.005965725518763065,-0.02208029292523861,-0.0031628936994820833
1772796381652473000,4.01247314453125,0.0029475188348442316,-0.01835135743021965,-0.0059152510948479176
1772796381662466000,4.022466064453125,-0.0030744208488613367,-0.008501921780407429,-0.007789051625877619
1772796381672458000,4.0324580078125,-0.005118567496538162,0.0011801132932305336,-0.008173457346856594
1772796381682451000,4.042450927734375,-0.003240506397560239,0.010243915021419525,-0.0014484431594610214
1772796381692443000,4.05244287109375,-0.0007982660317793489,0.009853292256593704,0.00481338519603014
1772796381702435000,4.06243505859375,0.000032107578590512276,0.012704204767942429,0.010027855634689331
1772796381712427800,4.072427734375,0.0017068893648684025,0.009668901562690735,0.01779188960790634
1772796381722420000,4.082419921875,-0.002952044364064932,0.012962698936462402,0.014570263214409351
1772796381732413000,4.092412841796875,-0.008514752611517906,0.013152291998267174,0.005058786366134882
1772796381742404900,4.10240478515625,-0.00662497291341424,0.00796046108007431,-0.004335514269769192
1772796381752397000,4.11239697265625,-0.00770912691950798,-0.0023032790049910545,-0.019470591098070145
1772796381762390000,4.12239013671875,-0.009008483961224556,-0.015930674970149994,-0.02305573970079422
1772796381772382000,4.1323818359375,-0.006181678269058466,-0.025673195719718933,-0.02598641999065876
1772796381782375000,4.142375,-0.0059944577515125275,-0.028445012867450714,-0.016812361776828766
1772796381792367000,4.1523671875,-0.005103581584990025,-0.023108478635549545,-0.0066437069326639175
1772796381802358800,4.16235888671875,-0.004187187645584345,-0.01426198985427618,-0.0019373687682673335
1772796381812352000,4.17235205078125,-0.010453412309288979,-0.007429886609315872,0.0009063236648216844
1772796381822344200,4.18234423828125,-0.01828736811876297,-0.0037163745146244764,0.0027508290950208902
1772796381832337000,4.1923369140625,-0.025483129546046257,-0.007664326578378677,-0.006844192277640104
1772796381842329000,4.2023291015625,-0.03179987892508507,-0.019863467663526535,-0.013132449239492416
1772796381852321000,4.212321044921875,-0.0336790606379509,-0.03239407017827034,-0.02115851640701294
1772796381862314000,4.22231396484375,-0.022116413339972496,-0.03737844154238701,-0.024814505130052567
1772796381872306000,4.232305908203125,-0.025229597464203835,-0.026894213631749153,-0.028954287990927696
1772796381882299000,4.242298828125,-0.031246211379766464,-0.020768143236637115,-0.034603387117385864
1772796381892291000,4.252291015625,-0.03752608969807625,-0.013472352176904678,-0.02629651501774788
1772796381902283000,4.262282958984375,-0.036366816610097885,-0.005760636646300554,-0.01866655983030796
1772796381912276000,4.27227587890625,-0.03650053218007088,0.0020472025498747826,-0.007097496651113033
1772796381922268000,4.282267822265625,-0.034447770565748215,0.013456716202199459,0.00949932262301445
1772796381932260900,4.2922607421875,-0.029804062098264694,0.01889646425843239,0.01984279230237007
1772796381942252800,4.302252685546875,-0.02779417484998703,0.002802716102451086,0.0228447075933218
1772796381952245000,4.312244873046875,-0.030651647597551346,-0.021814294159412384,0.010400636121630669
1772796381962238000,4.322238037109375,-0.029938986524939537,-0.04141036793589592,-0.00012710609007626772
1772796381972230000,4.33222998046875,-0.028060318902134895,-0.034052617847919464,-0.007912560366094112
1772796381982223000,4.34222314453125,-0.01923407055437565,-0.014041358605027199,-0.01339920423924923
1772796381992215000,4.352215087890625,-0.008366944268345833,0.014187268912792206,-0.013246523216366768
1772796382002207000,4.36220703125,-0.009664436802268028,0.02492806501686573,-0.018447410315275192
1772796382012200000,4.372199951171875,-0.021626196801662445,0.00862876232713461,-0.024519456550478935
1772796382022192000,4.382192138671875,-0.029641248285770416,-0.024883657693862915,-0.02935549058020115
1772796382032183800,4.392183837890625,-0.036071959882974625,-0.06435316056013107,-0.03303772211074829
1772796382042177000,4.402177001953125,-0.02936931699514389,-0.08722731471061707,-0.04020721837878227
1772796382052169000,4.4121689453125,-0.019770456477999687,-0.07461003959178925,-0.03470275178551674
1772796382062162000,4.422161865234375,-0.011908536776900291,-0.04483616352081299,-0.02930452488362789
1772796382072154000,4.432154052734375,-0.013677654787898064,-0.020866574719548225,-0.022628847509622574
1772796382082146000,4.44214599609375,-0.017781052738428116,-0.00492036622017622,-0.0135799590498209
1772796382092139000,4.452138916015625,-0.025655945762991905,0.004800476133823395,-0.007782301399856806
1772796382102131000,4.462130859375,-0.031681615859270096,0.011763310059905052,-0.005854971706867218
1772796382112124000,4.4721240234375,-0.034077804535627365,0.012455793097615242,-0.004058464430272579
1772796382122116000,4.4821162109375,-0.034133199602365494,0.005637835711240768,-0.008816201239824295
1772796382132108000,4.49210791015625,-0.031118210405111313,-0.009409946389496326,-0.018446601927280426
1772796382142101000,4.50210107421875,-0.029545079916715622,-0.02606242708861828,-0.020438114181160927
1772796382152093200,4.51209326171875,-0.02640468254685402,-0.030855849385261536,-0.01479567401111126
1772796382162086100,4.522086181640625,-0.028657183051109314,-0.0216668788343668,-0.013642258942127228
1772796382172078000,4.532078125,-0.032640181481838226,-0.006993178743869066,-0.009286342188715935
1772796382182070300,4.5420703125,-0.03085879236459732,0.0022895359434187412,-0.011777728796005249
1772796382192063000,4.55206298828125,-0.028655776754021645,0.010344093665480614,-0.010553033091127872
1772796382202055200,4.56205517578125,-0.02513161487877369,0.0031200023368000984,-0.011834812350571156
1772796382212048100,4.572048095703125,-0.026328489184379578,-0.005226970184594393,-0.009521499276161194
1772796382222040000,4.5820400390625,-0.03048781491816044,-0.007702644914388657,-0.004531533923000097
1772796382232032000,4.592031982421875,-0.028785957023501396,0.006206966936588287,0.0013450796250253916
1772796382242025200,4.602025146484375,-0.027632275596261024,0.021545175462961197,0.006629856303334236
1772796382252017000,4.612016845703125,-0.026623014360666275,0.027568068355321884,0.008629471994936466
1772796382262010000,4.622010009765625,-0.02346290834248066,0.024784531444311142,0.009749331511557102
1772796382272002300,4.632002197265625,-0.02303849160671234,0.01098265778273344,0.007273961789906025
1772796382281994000,4.641993896484375,-0.017148379236459732,0.007529868744313717,0.0035572543274611235
1772796382291987200,4.6519873046875,-0.01912829466164112,0.010841181501746178,0.0004347593057900667
1772796382301979100,4.661979248046875,-0.025783002376556396,0.016491876915097237,-0.0038262982852756977
1772796382311972000,4.67197216796875,-0.028537029400467873,0.01286129467189312,-0.011709354817867279
1772796382321964000,4.681964111328125,-0.02551726996898651,-0.0076636881567537785,-0.017144333571195602
1772796382331956200,4.691956298828125,-0.018019208684563637,-0.027604540809988976,-0.018987080082297325
1772796382341949200,4.70194921875,-0.015741141512989998,-0.03781802952289581,-0.01362587045878172
1772796382351941000,4.711941162109375,-0.011737515218555927,-0.03337522968649864,-0.005664196331053972
1772796382361934000,4.72193408203125,-0.008142247796058655,-0.01681622862815857,0.001191046554595232
1772796382371926000,4.731926025390625,-0.008711342699825764,0.0038654934614896774,0.01115805096924305
1772796382381918200,4.741918212890625,-0.011058386415243149,0.006445563398301601,0.007234681863337755
1772796382391911000,4.751910888671875,-0.008679889142513275,0.001997574232518673,0.0018473517848178744
1772796382401903000,4.761903076171875,-0.0016677866224199533,-0.0018863799050450325,-0.00033697293838486075
1772796382411896300,4.771896240234375,0.005547756794840097,0.005205665715038776,0.0013836435973644257
1772796382421888000,4.781887939453125,0.010616552084684372,0.0145802590996027,0.011288471519947052
1772796382431880200,4.791880126953125,0.01358856726437807,0.024736255407333374,0.028490066528320312
1772796382441873200,4.801873046875,0.018150027841329575,0.030153922736644745,0.03677649050951004
1772796382451865000,4.811864990234375,0.016485238447785378,0.01695307344198227,0.03761947527527809
1772796382461858000,4.821858154296875,0.013003687374293804,-0.015455732122063637,0.030649181455373764
1772796382471850200,4.831850341796875,0.007881291210651398,-0.04422902688384056,0.020041780546307564
1772796382481842000,4.841842041015625,0.012475243769586086,-0.04500667005777359,0.015365537256002426
1772796382491835100,4.851835205078125,0.019286498427391052,-0.015534547157585621,0.01675519533455372
1772796382501827300,4.861827392578125,0.01969715766608715,0.021065540611743927,0.006749964784830809
1772796382511820000,4.871820068359375,0.016225459054112434,0.0366193950176239,0.0016487513203173876
1772796382521812200,4.881812255859375,0.012295166030526161,0.014508763328194618,-0.0075878906063735485
1772796382531804200,4.89180419921875,0.007506558205932379,-0.017572596669197083,-0.016100294888019562
1772796382541797000,4.901797119140625,0.010362798348069191,-0.036293819546699524,-0.010058381594717503
1772796382551789000,4.9117890625,0.012928027659654617,-0.03406904637813568,-0.009198947809636593
1772796382561782000,4.921781982421875,0.010020921006798744,-0.022534094750881195,-0.0028334606904536486
1772796382571774200,4.931774169921875,0.00985009502619505,-0.008759872987866402,0.0014554786030203104
1772796382581766100,4.94176611328125,0.0062574902549386024,-0.0038633847143501043,0.0047556678764522076
1772796382591759000,4.951759033203125,0.006931173149496317,-0.005087029654532671,0.00740622915327549
1772796382601751000,4.9617509765625,0.009951997548341751,0.0020217462442815304,0.015248705632984638
1772796382611744300,4.971744140625,0.012863701209425926,0.013582158833742142,0.02488066256046295
1772796382621736000,4.98173583984375,0.012408300302922726,-0.007997702807188034,0.027051672339439392
1772796382631728000,4.99172802734375,0.0010957757476717234,-0.030392855405807495,0.032078757882118225
1772796382641721300,5.001721435546875,-0.007293980568647385,-0.014669818803668022,0.043817974627017975
1772796382651713000,5.011713134765625,-0.011929623782634735,-0.008685367181897163,0.038840729743242264
1772796382661706200,5.021706298828125,-0.01060603279620409,-0.016537431627511978,0.029509278014302254
1772796382671698200,5.0316982421875,0.002742284908890724,-0.014887535944581032,0.013044479303061962
1772796382681690000,5.041690185546875,0.014219976030290127,-0.006853312253952026,0.00437988480553031
1772796382691683000,5.05168310546875,0.014487745240330696,-0.00024408381432294846,-0.0014373196754604578
1772796382701675300,5.06167529296875,0.002867309143766761,-0.0018507689237594604,0.0014961522538214922
1772796382711668200,5.071668212890625,-0.01105729304254055,-0.019973505288362503,0.000763178919441998
1772796382721660200,5.08166015625,-0.017414791509509087,-0.03445098176598549,0.006096691358834505
1772796382731652000,5.091652099609375,-0.016325414180755615,-0.030307697132229805,0.010999100282788277
1772796382741645000,5.10164501953125,-0.012489130720496178,-0.0023327884264290333,0.018201086670160294
1772796382751637200,5.11163720703125,-0.011251584626734257,0.02093236893415451,0.017495563253760338
1772796382761630000,5.1216298828125,-0.008898681960999966,0.021762477234005928,0.011478950269520283
1772796382771622100,5.1316220703125,-0.00799218937754631,0.009916718117892742,0.0017784065566956997
1772796382781614000,5.141614013671875,-0.004890138749033213,-0.0036968281492590904,-0.010450828820466995
1772796382791607000,5.15160693359375,-0.006350253708660603,-0.018110278993844986,-0.014619056135416031
1772796382801599000,5.161598876953125,-0.0050381142646074295,-0.023166822269558907,-0.00770708778873086
1772796382811592200,5.17159228515625,-0.008838202804327011,-0.016452867537736893,0.0010849499376490712
1772796382821584100,5.181584228515625,-0.007466940674930811,-0.005418593063950539,0.010923465713858604
1772796382831576000,5.191576171875,-0.009214362129569054,0.0019279401749372482,0.01701151393353939
1772796382841569300,5.2015693359375,-0.0030502097215503454,0.00048530567437410355,0.016418693587183952
1772796382851561000,5.21156103515625,0.004632017575204372,-0.006057312712073326,0.010087591595947742
1772796382861553200,5.22155322265625,0.014055878855288029,-0.011227041482925415,0.00032870416180230677
1772796382871546000,5.231546142578125,0.01390938088297844,-0.00884692370891571,-0.004248521756380796
1772796382881538000,5.2415380859375,0.009692797437310219,-0.0010912660509347916,-0.008302917703986168
1772796382891531300,5.25153125,0.006263346411287785,0.007417883723974228,-0.0035388702526688576
1772796382901523200,5.261523193359375,0.002746109152212739,0.009650145657360554,0.00030300611979328096
1772796382911515100,5.27151513671875,-0.0012646566610783339,0.008332466706633568,0.004647102206945419
1772796382921508000,5.281508056640625,-0.005561134312301874,-0.003922068513929844,0.010781959630548954
1772796382931500300,5.291500244140625,-0.006594295613467693,-0.0071272458881139755,0.00886347983032465
1772796382941493000,5.301492919921875,-0.005788423120975494,-0.000008882954716682434,0.008012600243091583
1772796382951485200,5.311485107421875,-0.000912614050321281,0.013745051808655262,0.010400882922112942
1772796382961477000,5.32147705078125,-0.003063649171963334,0.015724580734968185,0.001298198476433754
1772796382971470000,5.331469970703125,-0.00738917663693428,0.00046353088691830635,-0.011627915315330029
1772796382981462300,5.341462158203125,-0.012968499213457108,-0.018393781036138535,-0.018968386575579643
1772796382991455000,5.351455078125,-0.00814282987266779,-0.024473175406455994,-0.021877961233258247
1772796383001447200,5.361447265625,-0.0026487286668270826,-0.010411683470010757,-0.016671480610966682
1772796383011439000,5.371439208984375,-0.0013775019906461239,0.005991782993078232,-0.012926002033054829
1772796383021432000,5.38143212890625,0.0023280205205082893,0.012852086685597897,-0.007733636535704136
1772796383031424000,5.391424072265625,0.0036996444687247276,0.0060781799256801605,-0.007400588598102331
1772796383041417200,5.401417236328125,0.0015720452647656202,-0.011000139638781548,-0.00870553683489561
1772796383051409200,5.4114091796875,0.0028175576590001583,-0.024842116981744766,-0.012521361000835896
1772796383061401000,5.421401123046875,0.002907572314143181,-0.031015858054161072,-0.017849812284111977
1772796383071394300,5.431394287109375,0.008308293297886848,-0.028192082419991493,-0.02322757989168167
1772796383081386000,5.441385986328125,0.016487926244735718,-0.014416082762181759,-0.022394277155399323
1772796383091379200,5.451379150390625,0.023432990536093712,0.005249733105301857,-0.014029789716005325
1772796383101371100,5.46137109375,0.029340414330363274,0.017165513709187508,-0.00915007945150137
1772796383111363000,5.471363037109375,0.030539270490407944,0.022480465471744537,0.0023879832588136196
1772796383121356300,5.481356201171875,0.035301800817251205,0.01804576814174652,0.0023451063316315413
1772796383131348200,5.49134814453125,0.03936285898089409,0.006876547820866108,-0.0005223900079727173
1772796383141341200,5.501341064453125,0.038493070751428604,-0.0028160270303487778,-0.011020038276910782
1772796383151332600,5.51133251953125,0.03485158458352089,-0.015524113550782204,-0.0256706103682518
1772796383161324500,5.521324462890625,0.030431266874074936,-0.025468356907367706,-0.04147940129041672
1772796383171317500,5.5313173828125,0.02871169149875641,-0.03150578960776329,-0.058777645230293274
1772796383181309700,5.541309814453125,0.03427103906869888,-0.039840418845415115,-0.06776288151741028
1772796383191302700,5.551302734375,0.044325392693281174,-0.03747014328837395,-0.06562895327806473
1772796383201294600,5.561294677734375,0.05183257907629013,-0.01570519432425499,-0.05411291494965553
1772796383211286500,5.57128662109375,0.0486939437687397,-0.0037065097130835056,-0.041936494410037994
1772796383221279700,5.58127978515625,0.04646061733365059,-0.005701483692973852,-0.034655943512916565
1772796383231271400,5.591271484375,0.04459913820028305,-0.011971394531428814,-0.027795875445008278
1772796383241264600,5.6012646484375,0.04672114551067352,-0.01589875854551792,-0.021803496405482292
1772796383251256800,5.6112568359375,0.047260433435440063,-0.005663236603140831,-0.022982139140367508
1772796383261248500,5.62124853515625,0.04466784745454788,0.012469427660107613,-0.029337240383028984
1772796383271241700,5.63124169921875,0.05006597936153412,0.025691376999020576,-0.03518569469451904
1772796383281233700,5.641233642578125,0.049268897622823715,0.02318773977458477,-0.04382339119911194
1772796383291226600,5.6512265625,0.05360209941864014,0.00101438257843256,-0.04623501002788544
1772796383301218600,5.661218505859375,0.04778975248336792,-0.004206478130072355,-0.032450754195451736
1772796383311210800,5.671210693359375,0.04495523124933243,0.003622964024543762,-0.012280512601137161
1772796383321203700,5.68120361328125,0.04214932397007942,0.00851199496537447,0.0018361053662374616
1772796383331195600,5.691195556640625,0.03944219648838043,0.005155394785106182,0.008924323134124279
1772796383341187800,5.701187744140625,0.03673402592539787,0.004858451895415783,0.00608725706115365
1772796383351180500,5.7111806640625,0.027501258999109268,0.007833672687411308,-0.00043822493171319366
1772796383361172700,5.7211728515625,0.0243171826004982,0.00645841658115387,-0.018049975857138634
1772796383371165400,5.73116552734375,0.022253744304180145,0.0045546479523181915,-0.02729419618844986
1772796383381157600,5.74115771484375,0.01926993764936924,0.0015652496367692947,-0.032453540712594986
1772796383391149600,5.751149658203125,0.015648741275072098,0.002575010061264038,-0.027836302295327187
1772796383401142500,5.761142578125,0.010760242119431496,0.007407582364976406,-0.022421829402446747
1772796383411134500,5.771134521484375,0.00838332250714302,0.015310152433812618,-0.011158164590597153
1772796383421127700,5.781127685546875,0.011463534086942673,0.015106420032680035,-0.006061140913516283
1772796383431119600,5.79111962890625,0.01270935870707035,0.0061312271282076836,-0.00040424877079203725
1772796383441111600,5.801111572265625,0.018032751977443695,-0.0042676180601119995,-0.0041726212948560715
1772796383451104800,5.811104736328125,0.02319400943815708,-0.00729546369984746,-0.004134435206651688
1772796383461096400,5.821096435546875,0.02443610690534115,-0.0019907131791114807,-0.007587756495922804
1772796383471089700,5.831089599609375,0.026943545788526535,0.0025576683692634106,-0.013224040158092976
1772796383481081600,5.84108154296875,0.020622000098228455,0.004082328174263239,-0.019858771935105324
1772796383491073500,5.851073486328125,0.016815252602100372,0.0018205526284873486,-0.024557173252105713
1772796383501066800,5.861066650390625,0.009500082582235336,0.002979293931275606,-0.024740397930145264
1772796383511058700,5.87105859375,0.021590033546090126,0.05666995048522949,-0.018897689878940582
1772796383521051600,5.8810517578125,0.020675504580140114,0.07885568588972092,-0.012829944491386414
1772796383531043600,5.891043701171875,0.00807100534439087,0.06086188927292824,-0.01028275303542614
1772796383541035800,5.901035888671875,0.010257728397846222,0.026855723932385445,-0.009485135786235332
1772796383551028500,5.911028564453125,0.009366392157971859,-0.003064671065658331,-0.004162223543971777
1772796383561020700,5.921020751953125,0.004653928801417351,-0.03094184212386608,-0.0027635316364467144
1772796383571013600,5.931013671875,0.000029661692678928375,-0.048186931759119034,0.0024653691798448563
1772796383581005600,5.941005615234375,0.0060846246778965,-0.04898854345083237,0.004353816621005535
1772796383590997800,5.950997802734375,0.013439308851957321,-0.029321450740098953,0.0020723678171634674
1772796383600990500,5.960990478515625,0.020138755440711975,-0.0020962199196219444,-0.0025418249424546957
1772796383610982700,5.970982666015625,0.019732162356376648,0.026494313031435013,-0.002694053342565894
1772796383620975600,5.9809755859375,0.019879966974258423,0.03735548257827759,0.0016162728425115347
1772796383630967600,5.990967529296875,0.016171228140592575,0.04637926071882248,0.014626150950789452
1772796383640959500,6.00095947265625,0.007398775778710842,0.04812150076031685,0.023327495902776718
1772796383650952700,6.01095263671875,0.00105919293127954,0.008659817278385162,0.0341828390955925
1772796383660944600,6.020944580078125,-0.009183591231703758,-0.022624336183071136,0.05736272782087326
1772796383670937600,6.0309375,-0.020480962470173836,-0.004893399775028229,0.07885508984327316
1772796383680929500,6.040929443359375,-0.02881665714085102,-0.008282538503408432,0.07346086204051971
1772796383690921500,6.05092138671875,-0.022949518635869026,-0.03160959109663963,0.05455790460109711
1772796383700914700,6.060914794921875,-0.003402448259294033,-0.034381940960884094,0.025368329137563705
1772796383710906600,6.07090673828125,0.020798882469534874,-0.016615398228168488,0.0008469463791698217
1772796383720899600,6.080899658203125,0.028814997524023056,0.0002671782858669758,-0.010785740800201893
1772796383730891800,6.090891845703125,0.02371344529092312,0.005292750895023346,-0.012422982603311539
1772796383740883700,6.1008837890625,0.013585709035396576,0.005093546584248543,0.00014926845324225724
1772796383750876700,6.110876708984375,0.005537153221666813,0.008352283388376236,0.012500118464231491
1772796383760868600,6.12086865234375,0.004277744330465794,0.014969440177083015,0.02634269744157791
1772796383770861600,6.130861572265625,-0.0025048430543392897,0.018940119072794914,0.03527849167585373
1772796383780853500,6.140853515625,-0.0019865920767188072,0.016899872571229935,0.035679031163454056
1772796383790845700,6.150845703125,0.0005130521021783352,0.005775127559900284,0.02403721958398819
1772796383800838700,6.160838623046875,0.00994756631553173,-0.008408335037529469,0.015634682029485703
1772796383810830600,6.17083056640625,0.015746550634503365,-0.015837127342820168,0.013473422266542912
1772796383820822800,6.18082275390625,0.014790741726756096,-0.020339202135801315,0.01789160631597042
1772796383830815500,6.1908154296875,0.012757346965372562,-0.028773857280611992,0.02028249017894268
1772796383840807700,6.2008076171875,0.008882447145879269,-0.03646346926689148,0.014003822579979897
1772796383850800600,6.210800537109375,0.005873389542102814,-0.029414065182209015,0.003967944532632828
1772796383860792600,6.22079248046875,0.00452662818133831,-0.011158628389239311,-0.003836182877421379
1772796383870784500,6.230784423828125,-0.0011038989759981632,-0.0033028051257133484,-0.017117397859692574
1772796383880777500,6.240777587890625,-0.006442471407353878,-0.004699899815022945,-0.03238796070218086
1772796383890769400,6.250769287109375,-0.005090287420898676,-0.008326671086251736,-0.04070866107940674
1772796383900762600,6.2607626953125,-0.0073752799071371555,-0.004657899960875511,-0.034490715712308884
1772796383910754600,6.270754638671875,-0.010898159816861153,-0.004752078093588352,-0.02057207189500332
1772796383920746500,6.28074658203125,-0.012407107278704643,-0.005564342252910137,-0.001950182719156146
1772796383930739700,6.29073974609375,-0.013513407669961452,-0.002957517048344016,0.01368990633636713
1772796383940731600,6.300731689453125,-0.011739742010831833,0.007022678852081299,0.02642061375081539
1772796383950724600,6.310724609375,-0.010155354626476765,0.014556197449564934,0.024947119876742363
1772796383960716500,6.320716552734375,-0.005170449614524841,0.006549670826643705,0.023043490946292877
1772796383970708700,6.330708740234375,-0.00017978204414248466,0.011363754980266094,0.013712420128285885
1772796383980701700,6.34070166015625,0.003951047081500292,0.020250190049409866,0.009798106737434864
1772796383990693600,6.350693603515625,0.010082878172397614,0.01691572740674019,0.0071314009837806225
1772796384000686600,6.3606865234375,0.004520333372056484,0.0016382383182644844,0.002390708075836301
1772796384010678500,6.370678466796875,-0.006093814969062805,-0.02122384123504162,0.0015083234757184982
1772796384020670700,6.380670654296875,-0.01340179517865181,-0.02430831454694271,0.003531527006998658
1772796384030663400,6.390663330078125,-0.010433532297611237,-0.005366770550608635,0.011208005249500275
1772796384040655600,6.400655517578125,-0.0018490991787984967,0.010536296293139458,0.0172528475522995
1772796384050648600,6.410648681640625,0.0030127663630992174,0.016896113753318787,0.017825499176979065
1772796384060640500,6.420640625,-0.00020965863950550556,0.017299048602581024,0.0031765145249664783
1772796384070632700,6.4306328125,-0.002201193943619728,-0.003945928066968918,-0.010140478610992432
1772796384080625400,6.44062548828125,-0.009963775984942913,-0.025427252054214478,-0.02745502069592476
1772796384090617600,6.45061767578125,-0.013555122539401054,-0.03735212981700897,-0.03534672409296036
1772796384100610600,6.460610595703125,-0.014448081143200397,-0.026592159643769264,-0.033827126026153564
1772796384110602500,6.4706025390625,-0.011697979643940926,-0.005250058136880398,-0.01800987310707569
1772796384120594400,6.480594482421875,-0.010675059631466866,0.013679423369467258,0.0040126037783920765
1772796384130587600,6.490587646484375,-0.011786030605435371,0.025998404249548912,0.022371647879481316
1772796384140579600,6.50057958984375,-0.005739856511354446,0.022235359996557236,0.02806255780160427
1772796384150571800,6.51057177734375,0.002618886297568679,0.018697552382946014,0.02471262961626053
1772796384160565000,6.52056494140625,0.005151019431650639,0.011200487613677979,0.01911333203315735
1772796384170556700,6.530556640625,-0.009138412773609161,0.0022116610780358315,0.01773100718855858
1772796384180550000,6.5405498046875,-0.02272266522049904,-0.006763458251953125,0.01677972637116909
1772796384190541800,6.550541748046875,-0.026775948703289032,-0.016530051827430725,0.015088332816958427
1772796384200533800,6.56053369140625,-0.017838912084698677,-0.01625734381377697,0.008489551953971386
1772796384210527000,6.57052685546875,-0.0029001543298363686,-0.010115152224898338,0.0026203342713415623
1772796384220519000,6.580518798828125,0.006737292744219303,0.008375974372029305,-0.0031339579727500677
1772796384230511900,6.590511962890625,0.0137325469404459,0.018019311130046844,0.0013766071060672402
1772796384240503800,6.60050390625,0.01626308262348175,0.064827561378479,0.02977762185037136
1772796384250496000,6.61049609375,0.016760729253292084,0.15047577023506165,0.08607376366853714
1772796384260488700,6.62048876953125,0.005640434566885233,0.13568909466266632,0.12633277475833893
1772796384270481000,6.63048095703125,0.001585603691637516,0.05753590166568756,0.13846807181835175
1772796384280473900,6.640473876953125,0.010514916852116585,-0.02412540465593338,0.13443231582641602
1772796384290465800,6.6504658203125,0.02355220355093479,-0.038786545395851135,0.10672204196453094
1772796384300458000,6.6604580078125,0.023995354771614075,-0.0244936253875494,0.057311613112688065
1772796384310450700,6.67045068359375,0.026622585952281952,-0.009921466000378132,-0.0018895347602665424
1772796384320443000,6.68044287109375,0.027441509068012238,0.02279147319495678,-0.05023150146007538
1772796384330435800,6.690435791015625,0.015009771101176739,0.04292551428079605,-0.08061924576759338
1772796384340427800,6.700427734375,-0.001754294615238905,0.052448712289333344,-0.08102351427078247
1772796384350419700,6.710419677734375,-0.010131893679499626,0.0753507912158966,-0.043934959918260574
1772796384360413000,6.720412841796875,-0.011245094239711761,0.09414657950401306,0.006797727197408676
