time,seconds_elapsed,z,y,x
1772556214418706200,0.0767060546875,0.39529987903535363,-0.020213935989141462,0.040361090352386234
1772556214428698400,0.086698486328125,0.4982143100649118,-0.038110242685675616,0.049415918945521116
1772556214438691000,0.096691162109375,0.5855956563979386,-0.031605390836298465,-0.013810790948569773
1772556214448683300,0.106683349609375,0.6198018773823977,-0.030244916138052937,-0.05190042923763394
1772556214458675200,0.11667529296875,0.6068798519670963,-0.07867372374236584,-0.054720016703009605
1772556214468668200,0.126668212890625,0.5025578922271728,-0.16411504192352294,0.004176555032283067
1772556214478660000,0.13666015625,0.404583255687356,-0.2852916903525591,0.05346899372860789
1772556214488653000,0.146653076171875,0.3298421952188015,-0.35241409251093864,0.018641864366829394
1772556214498645200,0.156645263671875,0.27341128294467926,-0.3826803436979651,-0.10155351793989538
1772556214508637200,0.16663720703125,0.2619230897247791,-0.3728922323942184,-0.21166969704180955
1772556214518630100,0.176630126953125,0.24437048189938068,-0.3688227909982204,-0.2752931511685252
1772556214528622000,0.1866220703125,0.15757424197793005,-0.4092781355053186,-0.2893612778790295
1772556214538615300,0.196615234375,0.06393675785958766,-0.44402854636907574,-0.2576004042200744
1772556214548607200,0.206607177734375,-0.04537994142770767,-0.4244149143606424,-0.23377397682219742
1772556214558599200,0.21659912109375,-0.10318097301125526,-0.34649639289975165,-0.23914383329227565
1772556214568592100,0.226592041015625,-0.14143033190667628,-0.26156214745789763,-0.2256653430379927
1772556214578584300,0.236584228515625,-0.13234686174094676,-0.16195347997546194,-0.1954611242365092
1772556214588576000,0.246575927734375,-0.13721885169148446,-0.04720642620250583,-0.1494653889980167
1772556214598569200,0.2565693359375,-0.15414426752924917,0.10745601998195052,-0.07698277498073876
1772556214608561200,0.26656103515625,-0.17946867839992045,0.25609248387515543,-0.06672536566480994
1772556214618554000,0.27655419921875,-0.23731705625653265,0.16427037861570715,-0.19960867237001656
1772556214628545500,0.286545654296875,-0.19114625671207905,0.042483927725255485,-0.35333690644428134
1772556214638538500,0.29653857421875,-0.1127688855677843,0.05057049580812454,-0.43029308567903934
1772556214648530400,0.306530517578125,0.003582534661889076,-0.01689078291580081,-0.39999183624386786
1772556214658522600,0.316522705078125,0.04869651862978935,-0.09538827330842614,-0.37338060043305155
1772556214668515300,0.326515380859375,0.12272680048048495,-0.12602642654776572,-0.44880409020781514
1772556214678507500,0.336507568359375,0.2382300794482231,-0.09960253000259399,-0.4456047827098518
1772556214688499500,0.34649951171875,0.3062117287844419,-0.1393862588584423,-0.45419550092257555
1772556214698492400,0.356492431640625,0.35856384731233115,-0.20261516070961952,-0.46095761546865105
1772556214708484400,0.366484375,0.37207916244566436,-0.23216946423500776,-0.4651145159523934
1772556214718477600,0.3764775390625,0.3909457754790783,-0.21352000108361244,-0.45772550167962905
1772556214728469500,0.386469482421875,0.37881694626808166,-0.20317045650482177,-0.46233168030083177
1772556214738461400,0.39646142578125,0.33966976175010205,-0.164430099222064,-0.4610732777375728
1772556214748454700,0.40645458984375,0.26824294039607044,-0.0900359524950385,-0.46235381906740364
1772556214758446300,0.4164462890625,0.22768705812394618,-0.009199936152249575,-0.3960354998335242
1772556214768439600,0.426439453125,0.16735621580183505,0.10909078157693147,-0.3135742203764617
1772556214778431500,0.436431396484375,0.14086568376123904,0.18976196274682877,-0.24045170102044938
1772556214788423400,0.44642333984375,0.10198504122495651,0.22102964606136083,-0.16968115161806344
1772556214798416600,0.456416748046875,0.03779167825579643,0.19449337518289683,-0.06610379970036447
1772556214808408600,0.46640869140625,-0.010846972706913947,0.110803722974658,0.0007494301278144121
1772556214818401500,0.476401611328125,-0.09875380421876907,-0.021799305484443903,0.038311756607145066
1772556214828393500,0.4863935546875,-0.18683540777564048,-0.16952376909926534,0.03916990780644119
1772556214838385700,0.4963857421875,-0.23492519268393516,-0.3098569534189999,0.03167429135404527
1772556214848378400,0.50637841796875,-0.21857669995129106,-0.39710634393543004,-0.011040814778581261
1772556214858370600,0.51637060546875,-0.17140870606303213,-0.4625824401915073,-0.027106325851380824
1772556214868363500,0.526363525390625,-0.13482581907510757,-0.5302680291905999,-0.00014094284065067767
1772556214878355500,0.53635546875,-0.135787357583642,-0.5903916585028172,0.003112579062581062
1772556214888347600,0.54634765625,-0.1416734930127859,-0.5898401620998979,0.046292964619398115
1772556214898340400,0.55634033203125,-0.18637772713601589,-0.5112164149791002,0.10298924983143806
1772556214908332500,0.56633251953125,-0.22196751143336294,-0.3962101257480681,0.19269399761073291
1772556214918325500,0.576325439453125,-0.2883306196570396,-0.3702694826751947,0.30091128428876396
1772556214928317400,0.5863173828125,-0.3152741561621427,-0.4018338108487427,0.42765564984753723
1772556214938309400,0.596309326171875,-0.33771628959476946,-0.4306687140583992,0.545031663884595
1772556214948302600,0.606302490234375,-0.25823534112274643,-0.4102525334954262,0.6203764623999596
1772556214958294500,0.61629443359375,-0.1919447136133909,-0.40120340399071575,0.6464101905837655
1772556214968287500,0.62628759765625,-0.1249029754757881,-0.3994998149432242,0.6216844031933695
1772556214978279700,0.63627978515625,-0.018083353701233863,-0.46206031601354475,0.6309313202925027
1772556214988271400,0.646271240234375,0.02543371646404266,-0.5724633492328226,0.5510323656041175
1772556214998264600,0.6562646484375,0.0812199010938406,-0.720907943815738,0.466331198265776
1772556215008256500,0.666256591796875,0.09663549689054489,-0.8440962243281305,0.38843839576803146
1772556215018249500,0.67624951171875,0.1026607485294342,-0.9430999116547405,0.29636048911660906
1772556215028241700,0.68624169921875,0.021104747349023817,-1.0431560306437313,0.26692425901293754
1772556215038233600,0.696233642578125,-0.06394494116604328,-1.151002072856575,0.20145481169335544
1772556215048226600,0.7062265625,-0.025516718572378156,-1.1744304408475756,0.17597835206612944
1772556215058218500,0.716218505859375,0.08388707447648049,-1.1800875898264347,0.20207053243890402
1772556215068211500,0.72621142578125,0.16664660622775554,-1.1545303931131958,0.2038687409672886
1772556215078203400,0.736203369140625,0.30332594421505926,-1.0976976220399142,0.12783785988390445
1772556215088195600,0.746195556640625,0.5414157384097575,-1.0200476883873344,0.026156477780640123
1772556215098188500,0.7561884765625,0.9167483496934175,-0.9824370657868683,0.05826251161545515
1772556215108180500,0.766180419921875,1.113080484610796,-1.1540014008030295,0.21371128587201235
1772556215118173700,0.776173583984375,0.9659253453165292,-1.2149750710733234,0.09600450551062822
1772556215128165400,0.786165283203125,0.9171575150161981,-1.20914388070181,-0.21477219310179352
1772556215138157600,0.796157470703125,0.8002554751664399,-1.1927248069509864,-0.4275801734585315
1772556215148150500,0.806150634765625,0.6399754813611507,-1.2405140014775096,-0.47244332447052
1772556215158142500,0.816142578125,0.45376492748558517,-1.2460660826466976,-0.52051140900366
1772556215168135400,0.826135498046875,0.28549861110150815,-1.1942394492976367,-0.520025525182858
1772556215178127600,0.836127685546875,0.2034258925706148,-1.0616453347973525,-0.5111805399481207
1772556215188119300,0.846119384765625,0.18785013777613638,-0.9226629805646837,-0.5157544237349182
1772556215198112500,0.856112548828125,0.1636643755465746,-0.8231406761914491,-0.45361755490414796
1772556215208104700,0.866104736328125,0.11182663628160953,-0.8017614958152175,-0.38290743045210834
1772556215218097400,0.876097412109375,0.04217968408167362,-0.789731158542633,-0.3350095148541033
1772556215228089600,0.886089599609375,-0.023603578427433967,-0.8030338538385927,-0.3459560754779726
1772556215238081500,0.89608154296875,-0.08446692019104957,-0.8086740516826509,-0.3849273919723928
1772556215248074500,0.906074462890625,-0.1213309622079134,-0.795782275275141,-0.42285555608943104
1772556215258066400,0.91606640625,-0.17744097196459768,-0.7900386170566082,-0.4819451661787927
1772556215268059400,0.926059326171875,-0.20231705454587937,-0.7994048496864735,-0.5330049798738211
1772556215278051600,0.936051513671875,-0.20761399191021918,-0.8912748857408761,-0.45883528955243524
1772556215288043500,0.94604345703125,-0.16914777539372444,-1.1004635796219109,-0.32025757059790194
1772556215298036500,0.956036376953125,-0.13305354870557784,-1.2497431637242435,-0.27832915786355733
1772556215308028400,0.9660283203125,-0.09884089798033237,-1.2394425728537142,-0.4095825252793729
1772556215318021600,0.976021728515625,-0.08518588211536407,-1.1114807943291962,-0.574912715146318
1772556215328013300,0.986013427734375,-0.09658756609559059,-1.0196436376310885,-0.5932333116695284
1772556215338005500,0.996005615234375,-0.14758768549263476,-0.9276564049378037,-0.494935799850896
1772556215347998700,1.005998779296875,-0.2435591655164957,-0.8117142961613834,-0.3204227710969746
1772556215357990400,1.015990478515625,-0.3317027283936739,-0.6463116986453533,-0.1468737650696188
1772556215367983600,1.025983642578125,-0.4487579129785299,-0.418244409032166,-0.03928388957493007
1772556215377975600,1.0359755859375,-0.5371960748881102,-0.24271774625629186,0.03292034589238465
1772556215387967500,1.045967529296875,-0.6404483595699072,-0.13121858836337924,0.11885558507032691
1772556215397960400,1.05596044921875,-0.7534522229373455,-0.054917146710306404,0.22365656049884855
1772556215407952600,1.06595263671875,-0.8543915545016527,-0.049310558874905104,0.28623620466105637
1772556215417945600,1.075945556640625,-0.922664880260825,-0.026931553806364535,0.2968844399254769
1772556215427937500,1.0859375,-0.9059504768252372,-0.009754062903672455,0.3028913521900773
1772556215437929700,1.0959296875,-0.8802116399347781,-0.01844078883677721,0.27035532944016155
1772556215447922400,1.10592236328125,-0.8436807753950357,-0.016161737988889216,0.21738442142680287
1772556215457914600,1.11591455078125,-0.7835428252965212,-0.017155717462301254,0.17667027985304593
1772556215467907300,1.1259072265625,-0.6300491306304932,0.0008713760070502757,0.15336298095844686
1772556215477899500,1.1358994140625,-0.49041737257838247,0.00515679824128747,0.1812999854803085
1772556215487892700,1.145892822265625,-0.3879834185421467,-0.026938568069040773,0.2498576811388135
1772556215497884400,1.155884521484375,-0.3697831604629755,-0.09188011905699968,0.3465452735427767
1772556215507876600,1.165876708984375,-0.34595454110801216,-0.11739113854095339,0.41742381336428225
1772556215517869600,1.17586962890625,-0.284644624620676,-0.12326412222757935,0.4666855646613985
1772556215527861500,1.185861572265625,-0.24682488931417465,-0.0747613726042211,0.48176082258783276
1772556215537854500,1.1958544921875,-0.2358423075288534,-0.0516166438601911,0.4886185795281082
1772556215547846700,1.2058466796875,-0.24710662886500356,-0.02596197812184691,0.5033844061791897
1772556215557838300,1.21583837890625,-0.20593290695548055,-0.005872545295208692,0.5249034334175289
1772556215567831600,1.22583154296875,-0.13359481597542763,0.022940438343584536,0.5374971036612988
1772556215577823700,1.23582373046875,-0.04612169970571994,0.05937251868396997,0.5488069811722264
1772556215587816400,1.24581640625,0.017598200532793998,0.1016461646594107,0.5610931563694029
1772556215597808600,1.25580859375,0.07170972994863986,0.09674640991911292,0.6025315205644816
1772556215607800600,1.265800537109375,0.2059662247031927,0.058274786575138564,0.6999019806660711
1772556215617793500,1.27579345703125,0.3792120830655098,0.01675488157644868,0.774451171824336
1772556215627786200,1.2857861328125,0.5656038387268781,0.0051841246396303175,0.7892353378497063
1772556215637779200,1.295779296875,0.7524772404253482,0.011985621348023414,0.7697902673412114
1772556215647771100,1.305771240234375,0.8515285662859677,0.018303572323173284,0.7412734171047807
1772556215657763300,1.315763427734375,0.8910802399516106,-0.042208471784740687,0.7763978489127009
1772556215667756000,1.325756103515625,0.859174697124958,-0.12784955032169817,0.7988629978947341
1772556215677748200,1.335748291015625,0.749945091599226,-0.14748247155249117,0.7879130762699991
1772556215687741000,1.345740966796875,0.5714361981421708,-0.08694763109087944,0.6966423943482339
1772556215697733000,1.355733154296875,0.35085751071870325,0.016603782667964695,0.5595441733617336
1772556215707725000,1.36572509765625,0.1621826125562191,0.17178762237802148,0.4505170681381598
1772556215717718000,1.375718017578125,-0.014888357052206992,0.35135829984769223,0.32884445288572456
1772556215727710200,1.385710205078125,-0.22347966956198215,0.5027995920285582,0.27009609398208556
1772556215737703200,1.395703125,-0.4108966766178608,0.6339078518852591,0.25110391834024337
1772556215747695000,1.405695068359375,-0.5640794056385755,0.7177775368355214,0.25145094167962667
1772556215757688000,1.41568798828125,-0.6571931581437588,0.7678679940417409,0.24964657740509136
1772556215767680300,1.42568017578125,-0.6979565456867217,0.8167777170307934,0.2333086243327707
1772556215777672000,1.435671875,-0.6934732627928256,0.874695214600861,0.19526519980560986
1772556215787665200,1.4456650390625,-0.5810276178300381,0.8768018314912914,0.18001131564294917
1772556215797657300,1.4556572265625,-0.37621699290275573,0.8857742424979805,0.1501245652928017
1772556215807650000,1.465650146484375,-0.08608546130359172,0.8726569867715239,0.14920049098413438
1772556215817642200,1.475642333984375,0.24993162315785883,0.8186782899551093,0.12972862380025907
1772556215827634200,1.48563427734375,0.530088873231411,0.7361917299263179,0.1120600066460669
1772556215837627100,1.495627197265625,0.793084560623765,0.6468770774431526,0.06641545946542174
1772556215847619000,1.505619140625,1.0531120458602905,0.5421322161160409,0.037115569092519576
1772556215857612000,1.515612060546875,1.146678218308091,0.44433848910108203,0.1150351865319535
1772556215867604200,1.525604248046875,1.1190396852761506,0.31806247170642016,0.2054510782552883
1772556215877596200,1.53559619140625,1.0970809514462947,0.26737594830319283,0.24379162256550044
1772556215887589000,1.545589111328125,1.0650374614536762,0.24615298140197991,0.2134941359899938
1772556215897581000,1.5555810546875,0.9646651161223649,0.27018150724321605,0.1506710384607315
1772556215907574300,1.56557421875,0.8216016300559044,0.2909701743803918,0.06899334712941199
1772556215917566000,1.57556591796875,0.7073702707201242,0.3002981208264828,0.0066665086844936005
1772556215927559200,1.58555908203125,0.6159031163781881,0.3048188131213188,-0.06290350582171231
1772556215937551400,1.59555126953125,0.6055880585908889,0.29718875663429495,-0.09853639860842377
1772556215947543000,1.60554296875,0.5559399383246898,0.26566753695011136,-0.11079627032056451
1772556215957536300,1.615536376953125,0.49695817252397534,0.21812515679150818,-0.06831811474896966
1772556215967528200,1.625528076171875,0.46925066590905185,0.14788184613361954,-0.04750424010530114
1772556215977521200,1.635521240234375,0.4720668923735618,0.14513707747012375,-0.023008973535150287
1772556215987513000,1.64551318359375,0.40616146478950976,0.12033289108127355,0.03184471601750701
1772556215997505300,1.65550537109375,0.3557008590966463,0.1261599897995591,0.07538348655793815
1772556216007498000,1.665498046875,0.30964579488635063,0.0973795932561159,0.1007698567489162
1772556216017490200,1.675490234375,0.17604864082336424,0.0644230800718069,0.16048797400016337
1772556216027483100,1.685483154296875,0.006928922480344772,0.019387714298069476,0.18655061775119974
1772556216037475000,1.69547509765625,-0.18022095807194707,-0.044708471906930204,0.2047038035519421
1772556216047467300,1.70546728515625,-0.3917623525589704,-0.0904936331346631,0.17746488256314769
1772556216057460000,1.7154599609375,-0.5889297692567109,-0.12889116832911968,0.10066428661574608
1772556216067452200,1.7254521484375,-0.7600789476007223,-0.17961188626289368,0.07173624349622987
1772556216077445000,1.735445068359375,-0.8695219036161899,-0.23858196162581444,0.04523173772920854
1772556216087437000,1.74543701171875,-0.8656663972318172,-0.2862456300765276,0.024499983844463714
1772556216097430300,1.75543017578125,-0.8082780381023883,-0.3371982570700347,0.04262352342561353
1772556216107422200,1.765422119140625,-0.6630155806869268,-0.3609599486686289,0.0892910980776418
1772556216117414100,1.7754140625,-0.5115484234124422,-0.4059060287237167,0.1501511793050915
1772556216127407000,1.785406982421875,-0.302791106685996,-0.49517771884799,0.27913859281660985
1772556216137399300,1.7953994140625,-0.1324497375935316,-0.6911445275843143,0.43311840876545754
1772556216147392000,1.80539208984375,0.01023205567896366,-0.9642157649196684,0.5747846317872405
1772556216157384200,1.81538427734375,0.0156985043913126,-1.1395255700744689,0.5432233358209952
1772556216167376100,1.825376220703125,-0.042236967226862904,-1.1992089082732795,0.3819700765367597
1772556216177369000,1.835369140625,-0.07099252158999443,-1.1509499042779208,0.20499569917060434
1772556216187361300,1.845361328125,-0.10934709442555904,-1.0708365031212568,0.07540764375166036
1772556216197354000,1.85535400390625,-0.12135375856161117,-1.001869934400916,-0.023618990625697188
1772556216207346200,1.86534619140625,-0.08432721945941447,-0.9334899333968758,-0.028370948092872276
1772556216217339100,1.875339111328125,-0.044316111588478084,-0.8273308213576674,-0.01175716233741259
1772556216227331000,1.8853310546875,-0.025252514678239822,-0.7139435116305947,0.02675133840125054
1772556216237323000,1.895322998046875,-0.016924831315875053,-0.6308610315352678,0.12265169855081476
1772556216247316200,1.905316162109375,-0.04215162703096866,-0.611407704655081,0.2788472269209102
1772556216257308200,1.91530810546875,-0.16021102022230624,-0.6399886331036686,0.4608385921988636
1772556216267301000,1.925301025390625,-0.3335679377436638,-0.6356003350168467,0.5760741966737434
1772556216277293300,1.935293212890625,-0.5115718042880296,-0.5995661679528653,0.5975798895064741
1772556216287285000,1.945284912109375,-0.7472866860449313,-0.5525485423207283,0.557417426998727
1772556216297278200,1.9552783203125,-0.9532844749301671,-0.5054730490215122,0.5176899949073791
1772556216307270100,1.965270263671875,-1.1167559582531452,-0.4443969412900507,0.44708523052595556
1772556216317263000,1.97526318359375,-1.2030810735315083,-0.3721216864131391,0.351047005408816
1772556216327255300,1.98525537109375,-1.2900515009760856,-0.2991952741511166,0.23061388708977026
1772556216337248000,1.995248046875,-1.2992828551799058,-0.2040165519401431,0.09967653595372103
1772556216347240200,2.005240234375,-1.276393562501669,-0.08045549259260297,-0.017930323130567558
1772556216357232000,2.015232177734375,-1.2684995943814514,0.05331891773343086,-0.11935592667474411
1772556216367225000,2.02522509765625,-1.2639911770462988,0.14546879364252088,-0.22086196134425698
1772556216377217000,2.035217041015625,-1.262109016561508,0.2784270652800798,-0.34070732463691383
1772556216387210200,2.045210205078125,-1.2099807699173688,0.42379415211379523,-0.46186979841012504
1772556216397202200,2.0552021484375,-1.1440168901443482,0.5960625437460839,-0.5569162725435569
1772556216407194000,2.065194091796875,-1.043273373413086,0.7981897748082876,-0.5961440114844591
1772556216417187300,2.075187255859375,-0.9541589196771383,0.9449304880827665,-0.5764116484671831
1772556216427179000,2.085178955078125,-0.8166922307044268,1.06686730722934,-0.5262799824677408
1772556216437172200,2.095172119140625,-0.6448433796584606,1.1618598592184484,-0.41687158630900084
1772556216447164200,2.1051640625,-0.44610710620880123,1.1993971243217587,-0.333519495492056
1772556216457157000,2.1151572265625,-0.24948972460925578,1.209141834875196,-0.3092930724585429
1772556216467149300,2.1251494140625,-0.05216740961074829,1.1992781741172074,-0.3039699412070215
1772556216477141200,2.135141357421875,0.15472937394082545,1.143806462264061,-0.347757681539841
1772556216487134200,2.14513427734375,0.38947862553596496,1.0892981886155904,-0.38014826793707907
1772556216497126100,2.155126220703125,0.6002303309500218,1.0106395163118838,-0.4513778862185776
1772556216507119000,2.165119140625,0.7878595194518566,0.9550446164704859,-0.5305930233612657
1772556216517111000,2.175111083984375,0.9632967503786086,0.9186419083550572,-0.5752510437225923
1772556216527103200,2.185103271484375,1.120035126054287,0.8894989621095358,-0.5668658945519477
1772556216537096200,2.19509619140625,1.270098846271634,0.8845943850636482,-0.479689094347693
1772556216547088100,2.205088134765625,1.41494278601408,0.8936085893854498,-0.35990309655945746
1772556216557081300,2.215081298828125,1.4886445665627717,0.8800058882296085,-0.25162587812142445
1772556216567073000,2.225072998046875,1.5135592275887726,0.8766261826634406,-0.11176954493266529
1772556216577066200,2.235066162109375,1.4600000713586807,0.8394502982184291,-0.003943454095884226
1772556216587058200,2.24505810546875,1.3617857808440923,0.7993642254151403,0.09410914761754684
1772556216597050000,2.255050048828125,1.2573778963863849,0.7674222961008549,0.16388390004877
1772556216607043000,2.26504296875,1.1236094774097203,0.7322140584670007,0.25537549471221865
1772556216617035300,2.27503515625,0.9436427863597869,0.7068383558005095,0.3489285154175013
1772556216627028000,2.285028076171875,0.733355775848031,0.6807425221659242,0.4466419072052464
1772556216637020000,2.29502001953125,0.5617646989554167,0.6614817952483892,0.5126040699452161
1772556216647012900,2.305012939453125,0.4230816199302673,0.6524250669591128,0.5497829865975306
1772556216657004800,2.3150048828125,0.31746026802957056,0.635283670283109,0.5892483336865901
1772556216666997000,2.3249970703125,0.18509353254437447,0.5816324518553913,0.6223937205065041
1772556216676989700,2.33498974609375,0.10310440064370631,0.5444628510206937,0.6923771381191909
1772556216686982000,2.34498193359375,0.01448328338265419,0.5096373290941119,0.7517911578573286
1772556216696975000,2.35497509765625,-0.0654296267658472,0.48790465910509223,0.7893827834963798
1772556216706966800,2.364966796875,-0.16922960845828056,0.46247591107711195,0.8627482447627931
1772556216716959000,2.374958984375,-0.29318390490710733,0.40191505939140915,0.8925889640141278
1772556216726952000,2.384951904296875,-0.3987959044575691,0.3638016018353402,0.8575329212673007
1772556216736943900,2.39494384765625,-0.48197804553508755,0.3498011335335672,0.7928893303126097
1772556216746936800,2.404936767578125,-0.5766694226205349,0.3337719358831644,0.7314688661228865
1772556216756929000,2.414928955078125,-0.6704997989624738,0.3271665462687611,0.697206969428435
1772556216766922000,2.424921875,-0.7612900769561529,0.29460853088274597,0.6599339812844991
1772556216776914000,2.434913818359375,-0.7941635880321264,0.27960736110582946,0.6769574506692588
1772556216786906000,2.444906005859375,-0.8535551036775112,0.2747021995380521,0.7027460449855775
1772556216796898800,2.45489892578125,-0.8736965589523314,0.2675328924305737,0.7539689402878283
1772556216806891000,2.46489111328125,-0.8240887706965208,0.260623405303061,0.7603514078665524
1772556216816883700,2.4748837890625,-0.7676555203348397,0.2587013511992991,0.7604431778032332
1772556216826876000,2.4848759765625,-0.6483148551613092,0.2560604813016951,0.7615983391877263
1772556216836869000,2.494869140625,-0.5401122545957565,0.20893398846760391,0.7475757321193813
1772556216846860800,2.50486083984375,-0.4201449819564819,0.18742329066619276,0.7077996751133352
1772556216856853000,2.51485302734375,-0.31107670447230334,0.13891747230291365,0.6774399004239589
1772556216866846000,2.524845947265625,-0.21743162156939505,0.06842369401529431,0.6847763807918876
1772556216876838000,2.534837890625,-0.1341273154169321,0.02724178879931569,0.6812368815541266
1772556216886830800,2.544830810546875,-0.030661095723509786,0.018084668875485658,0.6478701070684939
1772556216896823000,2.554822998046875,0.06222644681036472,0.014182108478993177,0.6052429714802652
1772556216906816000,2.56481591796875,0.10296820704340934,0.017465514063835143,0.5614276490207761
1772556216916808000,2.574807861328125,0.14617314251959324,0.012412760718911885,0.5444495531477034
1772556216926800100,2.584800048828125,0.19130349310040473,-0.007317483406513929,0.5082896408122033
1772556216936792800,2.594792724609375,0.22096213378310203,-0.03342413069605827,0.4908226654436439
1772556216946785000,2.604784912109375,0.2654875042080879,-0.06306801220104098,0.47087212963104247
1772556216956777700,2.61477783203125,0.3422369818896055,-0.09153072109743952,0.44864831512421366
1772556216966770000,2.62477001953125,0.39268122096955776,-0.12170315652117132,0.44215603049546476
1772556216976763100,2.63476318359375,0.4494236834108829,-0.16533771558627486,0.4332331211863085
1772556216986754800,2.6447548828125,0.48204000485539433,-0.2176803356334567,0.42730329274591056
1772556216996746800,2.654746826171875,0.49430444314479827,-0.27792569162920117,0.46087541707791385
1772556217006740000,2.664739990234375,0.49652971797883505,-0.327250717420876,0.4508586846500635
1772556217016732000,2.67473193359375,0.503540473523736,-0.3725169693410396,0.461012706656754
1772556217026724900,2.684724853515625,0.4865776482850313,-0.40824090141206976,0.4598306937979534
1772556217036717000,2.694717041015625,0.43819267982244486,-0.4215234307028353,0.4555349328327924
1772556217046709800,2.704709716796875,0.3764145613014698,-0.4092961095534265,0.4374984504805878
1772556217056702000,2.714701904296875,0.3074041534394026,-0.4106989620886743,0.42910314524210985
1772556217066694000,2.72469384765625,0.22930443019270896,-0.3976943729564547,0.45269276820942755
1772556217076686800,2.734686767578125,0.12622457946836949,-0.37132761342599985,0.45097602741941806
1772556217086679000,2.744678955078125,0.0416840095192194,-0.36925095328241586,0.43859954359028486
1772556217096671700,2.754671630859375,-0.005443652358651161,-0.32681773283109067,0.41565406374540176
1772556217106664000,2.764663818359375,-0.06639876405894755,-0.278652398468554,0.3601639394527301
1772556217116657000,2.774656982421875,-0.11652268514335155,-0.2744087695494294,0.356396330547519
1772556217126648800,2.78464892578125,-0.15382278048992157,-0.25899390440508724,0.35436193864308296
1772556217136640800,2.794640869140625,-0.18187690858542918,-0.2334256017759442,0.3625094066003337
1772556217146634000,2.804634033203125,-0.21737843007743357,-0.17794906761720775,0.371019570390135
1772556217156626000,2.8146259765625,-0.24598376231491564,-0.11019523568749427,0.3514526636002585
1772556217166619000,2.824618896484375,-0.2935381251722574,-0.058536213990300894,0.3381384605295956
1772556217176611000,2.834611083984375,-0.3013508447498083,-0.007261077044159173,0.31704021598659454
1772556217186603800,2.844603759765625,-0.31183015318810936,0.026570465409010646,0.3230619239615276
1772556217196596000,2.854595947265625,-0.31865152364075183,0.06564794569164514,0.33194351487960666
1772556217206588000,2.864587890625,-0.30614158615767956,0.0598655628979206,0.3550143746698275
1772556217216580900,2.874580810546875,-0.299601955255866,0.09756824769601226,0.3710145654214546
1772556217226573000,2.884572998046875,-0.309667422196269,0.17786504259556532,0.3217360456526279
1772556217236565800,2.894565673828125,-0.32260522970259187,0.276598973070085,0.24666582629494369
1772556217246558000,2.904557861328125,-0.2860872246444225,0.3566244036823511,0.22366485340315848
1772556217256551000,2.914551025390625,-0.26921032412350177,0.3893208046257496,0.2530616648118943
1772556217266542800,2.92454296875,-0.23163550348877907,0.3582465980567038,0.2810975996635854
1772556217276534800,2.93453466796875,-0.25375673440396784,0.3279454216867685,0.29698059377633035
1772556217286528000,2.944528076171875,-0.3395698085069656,0.3016235242113471,0.2441114291043952
1772556217296520000,2.95452001953125,-0.47789691370129583,0.26029022782593964,0.16772358780950306
1772556217306513000,2.964512939453125,-0.6383043332785368,0.2696837868541479,0.13428455180525778
1772556217316504800,2.9745048828125,-0.8550912272036075,0.2921338113322854,0.16756668021474033
1772556217326497800,2.984497802734375,-1.0779542261719703,0.34907121182382106,0.23541480283178387
1772556217336490000,2.994489990234375,-1.289062489938736,0.4766995206102729,0.3172383689071983
1772556217346482000,3.00448193359375,-1.4196078552156686,0.6477431927531957,0.34909477536249905
1772556217356475000,3.014474853515625,-1.504696122175455,0.894057794457674,0.34721889848802234
1772556217366467000,3.024467041015625,-1.5349714334517717,1.1141805548071861,0.3771938751108944
1772556217376459800,3.034459716796875,-1.51472067258358,1.3061466034695506,0.39395522296074775
1772556217386452000,3.044451904296875,-1.465219851833582,1.471375744114816,0.40295284147392957
1772556217396444700,3.054444580078125,-1.360643040549755,1.6056211329534649,0.3876434825306758
1772556217406436900,3.064436767578125,-1.2124544665545225,1.701142823383212,0.33663412038125096
1772556217416428800,3.0744287109375,-1.0474439370959996,1.7599083160847424,0.25278182495720686
1772556217426421800,3.084421875,-0.8941372894346713,1.7740595910340546,0.1336473498802632
1772556217436414000,3.0944140625,-0.7018921315699815,1.7492299779430032,0.04888477121088654
1772556217446407000,3.104406982421875,-0.48813481459915636,1.7282535331487654,-0.045790714185684915
1772556217456398800,3.11439892578125,-0.2439367666572332,1.7066066417470573,-0.11502786174202337
1772556217466391800,3.124391845703125,-0.036300562915205954,1.6685551435112953,-0.1318141613700427
1772556217476384000,3.134384033203125,0.12631401131749154,1.6206272711664438,-0.09980937768630682
1772556217486377000,3.144376953125,0.26137831532359124,1.568827818085253,-0.039134352435870094
1772556217496369000,3.154368896484375,0.37871757754683494,1.5041460870772598,0.06785159321576356
1772556217506361000,3.164361083984375,0.47506315158009527,1.5073811234757304,0.16213464522864668
1772556217516353800,3.174353759765625,0.5396306085586547,1.503116159507632,0.24358556033307685
1772556217526346000,3.184345947265625,0.6097311497449874,1.50260733320266,0.3228929971354082
1772556217536338700,3.194338623046875,0.6519423980087041,1.5061559655949472,0.38523459475804117
1772556217546331000,3.204330810546875,0.6961819372296333,1.5048182872503995,0.4659138861691579
1772556217556324000,3.214323974609375,0.68910103905797,1.483310512058437,0.5292531165270135
1772556217566315800,3.224315673828125,0.701025870129466,1.4782088050052522,0.6186161016639322
1772556217576308000,3.234307861328125,0.7043032843649387,1.4663918182224034,0.6896057006444781
1772556217586301000,3.244301025390625,0.6676473321408033,1.4729358330383895,0.7838479457229376
1772556217596292900,3.25429296875,0.5872147820323705,1.4833233715400098,0.8658660114571451
1772556217606285800,3.264285888671875,0.4812970775336027,1.4686182621002197,0.969955185354501
1772556217616278000,3.274278076171875,0.34483167455792424,1.4642469151481985,1.063397439161688
1772556217626271200,3.284271240234375,0.19525427655279634,1.454810686022043,1.1543636582441628
1772556217636263400,3.294263427734375,0.07575228333771228,1.4482839146018027,1.2635172759242355
1772556217646256000,3.304256103515625,-0.008447510349750519,1.477711084616184,1.2949880805954337
1772556217656248300,3.314248291015625,-0.08470423607826233,1.4532532274469732,1.2664599052473902
1772556217666240300,3.324240234375,-0.16983517313599586,1.4158517175525427,1.2372281116746364
1772556217676233200,3.334233154296875,-0.2329880871415138,1.3832380264565347,1.1693722806751727
1772556217686225200,3.34422509765625,-0.2626847217470407,1.3274661626130342,1.0664259932026265
1772556217696218400,3.35421826171875,-0.28900457339584823,1.258780164399743,0.9813463479407131
1772556217706210300,3.364210205078125,-0.29389819065630435,1.1847308855876326,0.8509929981045424
1772556217716203300,3.374203369140625,-0.2583539990663528,1.108436750458181,0.7506640535235405
1772556217726195500,3.384195556640625,-0.22493863619863985,1.0285901835441589,0.6821711667295545
1772556217736187100,3.394187255859375,-0.22170623014867305,0.946374841672182,0.6319734497565775
1772556217746180400,3.404180419921875,-0.18446341794729232,0.8588570094779133,0.6471592553853989
1772556217756172300,3.41417236328125,-0.19004326390624046,0.7962117527335881,0.680069372144714
1772556217766165200,3.424165283203125,-0.22031331448554992,0.7542948112413287,0.7026626044858246
1772556217776157400,3.434157470703125,-0.2226315283000469,0.7594932566672563,0.7384443311586976
1772556217786150100,3.444150146484375,-0.21487901447713373,0.8271732927083969,0.7407979816127568
1772556217796142300,3.454142333984375,-0.18864216493666172,0.8663719151526689,0.7677344307899475
1772556217806135300,3.46413525390625,-0.16828326751887798,0.8580290342211723,0.8105038243930787
1772556217816127200,3.474127197265625,-0.056660044854879375,0.8191524833381175,0.8885111201159656
1772556217826119200,3.484119140625,0.09527180732190609,0.748152655224502,0.9538906971950083
1772556217836112400,3.4941123046875,0.23806290618777273,0.6788605078116059,0.9248152632277459
1772556217846104300,3.504104248046875,0.3682680797249078,0.6321425957784056,0.8928631047803908
1772556217856097300,3.51409716796875,0.5144131651937961,0.5922852171644568,0.8439346770908683
1772556217866089500,3.52408935546875,0.6079647245943546,0.5269689876452088,0.8501818278521299
1772556217876082200,3.534082275390625,0.6956143664747476,0.45818829688578844,0.9021458969105035
1772556217886074400,3.544074462890625,0.772367935809493,0.37707594781965015,0.9451179734788835
1772556217896067300,3.5540673828125,0.80538407022655,0.35446985599696634,0.9623165802348405
1772556217906059300,3.564059326171875,0.8334902207702398,0.3511316514849663,0.9775766932088881
1772556217916051500,3.574051513671875,0.8224106083512306,0.3551332883417606,0.9707190093338489
1772556217926044200,3.584044189453125,0.7740355767607688,0.3483805992111563,0.9725592303730547
1772556217936036400,3.594036376953125,0.6527379323005675,0.30573066726922987,0.9583527911704033
1772556217946029300,3.604029296875,0.5445400079101324,0.27022826899439095,0.992853538122028
1772556217956021200,3.614021240234375,0.4225514585763216,0.2507595984145999,1.013653018914163
1772556217966014500,3.624014404296875,0.23685119231045246,0.2503498485699296,1.0027578962165862
1772556217976006100,3.634006103515625,0.04417056563794613,0.2701739084586501,1.0535399889487773
1772556217985999400,3.643999267578125,-0.1431120013833046,0.29672903016805646,1.1656330210816115
1772556217995991300,3.6539912109375,-0.31086101589500903,0.3386091467812657,1.2534626226387917
1772556218005983200,3.663983154296875,-0.43442543624341484,0.4115025335565209,1.3144365851700306
1772556218015976200,3.67397607421875,-0.5602537098705769,0.48176411052346224,1.35645611025393
1772556218025968400,3.683968505859375,-0.6385644455194472,0.5473953973412513,1.3815760845936833
1772556218035961000,3.693961181640625,-0.6928057387948036,0.6003259002789855,1.3955584327168762
1772556218045953300,3.703953369140625,-0.7197767478287219,0.6594524813778698,1.3787069588981569
1772556218055946200,3.7139462890625,-0.7558399948567152,0.7261627956040203,1.3672175966344773
1772556218065938200,3.723938232421875,-0.7863789255052804,0.7457790579609572,1.3262097328111528
1772556218075931400,3.733931396484375,-0.8098428032010794,0.7967746473133563,1.2739024763382971
1772556218085923000,3.743923095703125,-0.7918956431001425,0.8189056689701973,1.2185960380494594
1772556218095915300,3.753915283203125,-0.7673305261641741,0.8210590476118028,1.1937032235290854
1772556218105908200,3.763908203125,-0.7356856801003218,0.7954625418014823,1.1434859981380403
1772556218115900200,3.773900146484375,-0.6722007576614618,0.7377322373665869,1.106242674480006
1772556218125893400,3.783893310546875,-0.6012257717281579,0.6729946845181286,1.0616467961020768
1772556218135885300,3.79388525390625,-0.5178232658982277,0.6126856156364083,0.9763255971692502
1772556218145878300,3.803878173828125,-0.4610843105882406,0.546533373684436,0.8967414075184613
1772556218155870200,3.8138701171875,-0.36231998497545714,0.46064095073491335,0.8118626185908913
1772556218165863200,3.82386328125,-0.28629063826203344,0.399705274387449,0.7347622816450894
1772556218175855000,3.833855224609375,-0.22178338703811168,0.33316140276938677,0.6686867581911384
1772556218185847300,3.843847412109375,-0.16947218504250047,0.2669116917923093,0.6077433369286358
1772556218195840300,3.85384033203125,-0.12749006935954094,0.20134367946907877,0.513866929487884
1772556218205832200,3.863832275390625,-0.09701017542183399,0.15383753966763614,0.43884997468739745
1772556218215825400,3.873825439453125,-0.08092062588632107,0.08724120720997453,0.3968509444022551
1772556218225817000,3.883817138671875,-0.06526128446161747,0.0688084555491805,0.36689427062105384
1772556218235810300,3.893810302734375,-0.060014031457901,0.07619272058159113,0.3496771783603355
1772556218245802200,3.90380224609375,-0.1100374147772789,0.12427563735768198,0.32243962734472004
1772556218255795200,3.913795166015625,-0.19774258623719215,0.21103315270394085,0.31644561109431085
1772556218265787400,3.923787353515625,-0.3056599401205778,0.30240444545596834,0.3171721718031913
1772556218275779300,3.933779296875,-0.39785190160572526,0.378423709166795,0.34121965807322413
1772556218285772300,3.943772216796875,-0.42920974742174145,0.46353813348114487,0.38443109635543077
1772556218295764200,3.95376416015625,-0.4354740685135126,0.5262587935492397,0.4556870181219652
1772556218305757200,3.963757080078125,-0.43634851326048374,0.5465611384741962,0.5041011396137998
1772556218315749000,3.9737490234375,-0.37309447696805,0.5874298860877752,0.5177948435213416
1772556218325742300,3.983742431640625,-0.2837298478633165,0.630828882831335,0.48808458224926143
1772556218335734300,3.993734375,-0.20067220994830132,0.6666521836236119,0.4590853187907487
1772556218345727200,4.003727294921875,-0.1331289520293474,0.6707948363862931,0.4775699833018705
1772556218355719400,4.013719482421875,-0.08003741331100464,0.6504838697634637,0.5349426334055141
1772556218365711000,4.023711181640625,-0.07831541182398796,0.6268988499060273,0.6023931350070982
1772556218375704300,4.033704345703125,-0.07107260108888148,0.5888263088822364,0.6167198395885527
1772556218385696300,4.0436962890625,-0.10854220778346062,0.5994831658445299,0.582485963412188
1772556218395689200,4.053689208984375,-0.13342004393041132,0.6262826177038252,0.5380483078032732
1772556218405681400,4.063681396484375,-0.146949387589097,0.648209056699276,0.533104750453867
1772556218415674000,4.073674072265625,-0.16098258911669253,0.6511977171212434,0.5109877938549965
1772556218425666300,4.083666259765625,-0.1933352911889553,0.6501913165576756,0.47465190389808265
1772556218435659300,4.0936591796875,-0.1866431000739336,0.6574615998215974,0.4542761284107342
1772556218445651200,4.103651123046875,-0.19689678306281566,0.6523633998997509,0.4300672410339117
1772556218455644400,4.11364453125,-0.20133388872742652,0.6425489851109684,0.41268626344837245
1772556218465636400,4.12363623046875,-0.2035872206121683,0.6009205051712692,0.4012342740530148
1772556218475628300,4.133628173828125,-0.20507073716819285,0.5651159090794623,0.39248584452793
1772556218485621200,4.143621337890625,-0.22631518524885177,0.5239565079562366,0.3912760303467512
1772556218495613400,4.153613525390625,-0.23999825816452502,0.5018110193826257,0.3635111675214022
1772556218505606100,4.163606201171875,-0.22462942411899564,0.48400750553607935,0.32224739270824937
1772556218515598300,4.173598388671875,-0.20106150152683258,0.4387058900415897,0.2488607059907168
1772556218525591300,4.18359130859375,-0.15770926653444767,0.4225901831515133,0.16769158523604272
1772556218535583200,4.193583251953125,-0.09498246898651122,0.4105740205347538,0.10087412084098905
1772556218545576400,4.203576416015625,-0.025393968975543975,0.3970893928006291,0.07957534875720738
1772556218555568000,4.213568115234375,0.03299801423847675,0.36527006695270536,0.11407726475261151
1772556218565560300,4.223560302734375,0.10837854165434836,0.3391828550159931,0.20199640775676816
1772556218575553300,4.23355322265625,0.17004852362573145,0.32070056512504813,0.2674419262114912
1772556218585545200,4.243545166015625,0.261518600577116,0.30956279277801513,0.34810846773888915
1772556218595538400,4.253538330078125,0.28775018942058084,0.31535189757347104,0.4131009817291051
1772556218605530400,4.2635302734375,0.2678197465479374,0.29797844570726156,0.4657957031495869
1772556218615523300,4.2735234375,0.2814484589278698,0.24783406635671854,0.48588396693244573
1772556218625515500,4.283515625,0.2653682617425918,0.15830197173058985,0.48170766762848943
1772556218635508500,4.293508544921875,0.24232407076358795,0.06361585534214972,0.4596234442554414
1772556218645500400,4.30350048828125,0.21402327443063257,0.024444705426692963,0.3839342892818153
1772556218655493400,4.313493408203125,0.14161504082381723,0.1124137885197997,0.2629175806548446
1772556218665485300,4.3234853515625,0.0415834717541933,0.3058057783320546,0.13774331395700573
1772556218675477500,4.3334775390625,-0.049857963624596595,0.506244764046371,0.07753036239352076
1772556218685470500,4.343470458984375,-0.09565817629098891,0.6610548020079732,0.15526475945916027
1772556218695462400,4.35346240234375,-0.10145897152423858,0.7609871484868228,0.27336422893255946
1772556218705455600,4.36345556640625,-0.05520984604656696,0.8504020464740694,0.4031341163249686
1772556218715447600,4.373447509765625,0.06797054342031479,0.8905198295898735,0.4827723742505535
1772556218725440500,4.3834404296875,0.20133213516175746,0.8478161216340958,0.5258460480298847
1772556218735432400,4.393432373046875,0.2829758146256208,0.7327484576046467,0.5005602886691689
1772556218745425400,4.40342529296875,0.27974516214132306,0.5273718693576753,0.36429924915917217
1772556218755417300,4.413417236328125,0.18722820648550986,0.34074995820224285,0.13176058628559112
1772556218765410300,4.423410400390625,0.046537879291176795,0.15853504983410238,-0.09194178611636161
1772556218775402500,4.433402587890625,-0.11606500450372695,-0.0034571547165513036,-0.23891302021108565
1772556218785395500,4.4433955078125,-0.24400515571832657,-0.10377148625031113,-0.34666780394390223
1772556218795387400,4.453387451171875,-0.37281682907044883,-0.12432444493547082,-0.4061912754058838
1772556218805379300,4.46337939453125,-0.48593058255314825,-0.054412119797617196,-0.40079701514691113
1772556218815372500,4.47337255859375,-0.6337193435758351,0.07100918046385049,-0.3525216810712591
1772556218825364200,4.4833642578125,-0.7760445784956216,0.2225835975050926,-0.271184839066863
1772556218835357400,4.493357421875,-0.9414689494520425,0.32623554902896285,-0.22324060010910032
1772556218845349600,4.503349609375,-1.1330699641942976,0.40623818328753114,-0.24219266293626276
1772556218855342300,4.51334228515625,-1.2818728706955909,0.48501653644815085,-0.28878647366575894
1772556218865334500,4.52333447265625,-1.4147194986522198,0.5252421638526023,-0.3920834012068808
1772556218875327200,4.5333271484375,-1.4665993234932422,0.530477726418525,-0.548700123264268
1772556218885319400,4.5433193359375,-1.4178542895466089,0.5357710105210542,-0.7223039282187819
1772556218895312600,4.553312744140625,-1.2729279322177172,0.539444584467262,-0.8289052310675382
1772556218905304300,4.56330419921875,-1.0048702852606772,0.5297931051552295,-0.8762089801646769
1772556218915296500,4.573296630859375,-0.7087947505652904,0.46398704629242415,-0.8418684652760624
1772556218925289500,4.58328955078125,-0.354968453168869,0.3772822840467095,-0.755672894661501
1772556218935281400,4.593281494140625,-0.01477729789316654,0.29579817905873057,-0.6897969123676418
1772556218945274400,4.6032744140625,0.3048047845959663,0.24800021670386194,-0.6108117115233093
1772556218955266600,4.6132666015625,0.5534937142163515,0.20764833257123827,-0.5855611330738291
1772556218965259500,4.623259521484375,0.7375590727567672,0.1991492381647229,-0.5464351740069687
1772556218975251500,4.63325146484375,0.8162836499035357,0.17359700988754628,-0.5169615345023573
1772556218985244400,4.643244384765625,0.8478864103913306,0.14558102184534072,-0.4954848485684022
1772556218995236400,4.653236328125,0.8348743686050176,0.14854016391187905,-0.49550464924741533
1772556219005229600,4.6632294921875,0.8230126658976078,0.1256806818500161,-0.48858975529242304
1772556219015221200,4.67322119140625,0.7976753955453634,0.11242752478420734,-0.46387945773210376
1772556219025213400,4.68321337890625,0.7555652695685625,0.07895721685886382,-0.4593170817200094
1772556219035206400,4.693206298828125,0.6853519156575203,0.0527048774883151,-0.4778954523965716
1772556219045198300,4.7031982421875,0.5221709397137165,0.0296735459908843,-0.5360410231014713
1772556219055191600,4.713191650390625,0.3576742049962282,0.00722878220975399,-0.6426265803918242
1772556219065183500,4.72318359375,0.20164602341651916,-0.01904606125354767,-0.7708879994500428
1772556219075176400,4.733176513671875,0.02115209362208843,-0.0364041694201529,-0.8271158634327351
1772556219085168400,4.74316845703125,-0.1562216583251953,-0.006203823076188564,-0.8469139120973647
1772556219095161300,4.753161376953125,-0.32653906202018257,0.01723959635347128,-0.8431105012264102
1772556219105153300,4.7631533203125,-0.42197336642742156,0.0294514276728034,-0.7921480104260146
1772556219115146500,4.773146484375,-0.5016986450493336,0.03657748016044497,-0.7823086073264479
1772556219125138400,4.783138427734375,-0.5302350037038326,0.006171820502728223,-0.7796367577686906
1772556219135131400,4.79313134765625,-0.5120148718804121,-0.04816109657883644,-0.8119749929241835
1772556219145123600,4.80312353515625,-0.5010802208900451,-0.11318769550174473,-0.8852956652007996
1772556219155115300,4.813115234375,-0.4491688318669796,-0.16823226798400281,-0.9050956866268068
1772556219165108500,4.8231083984375,-0.36179274623095986,-0.2269412081927061,-0.9580968436479568
1772556219175100400,4.833100341796875,-0.21174539262652395,-0.25131635551452636,-0.9852427708573639
1772556219185093400,4.84309326171875,-0.04962415486872196,-0.26359292263314127,-0.9579904606640338
1772556219195085600,4.85308544921875,0.11862287229299545,-0.27342297338247296,-0.8836009901121258
1772556219205078300,4.863078369140625,0.24058394909799097,-0.31198651279360057,-0.8337038635209202
1772556219215070500,4.873070556640625,0.32339316520988937,-0.3405101580969989,-0.7849217124342918
1772556219225063400,4.8830634765625,0.39947278080582616,-0.3798571029707789,-0.7386060245264321
1772556219235055400,4.893055419921875,0.415364761942625,-0.4163913285113871,-0.737897218669951
1772556219245048600,4.903048583984375,0.42940263964533804,-0.43269174431860447,-0.7460882700406014
1772556219255040500,4.91304052734375,0.4447136060237884,-0.4726359244331717,-0.7045932072222233
1772556219265032400,4.923032470703125,0.44406770933568473,-0.4484663826860487,-0.6555779049668461
1772556219275025400,4.933025390625,0.47065410296618937,-0.4343364427857101,-0.6318631212498992
1772556219285017600,4.943017578125,0.48869595561325546,-0.42063481130003927,-0.5964021144313737
1772556219295010300,4.95301025390625,0.5312181695222854,-0.38076851872727274,-0.553169487230666
1772556219305002500,4.96300244140625,0.5559183110147714,-0.38262656768411396,-0.4751361072184518
1772556219314995500,4.972995361328125,0.5651596020907164,-0.38082843222096563,-0.3747419153815135
1772556219324987400,4.9829873046875,0.5537748692452907,-0.39466961830779906,-0.3407490448867902
1772556219334980600,4.992980712890625,0.46172728466689583,-0.42128421511948105,-0.2517725383168086
1772556219344972300,5.00297216796875,0.3397060021072626,-0.45649318340569733,-0.18448270716965198
1772556219354965500,5.012965576171875,0.28591479068696496,-0.49039632979035375,-0.14471183779537677
1772556219364957400,5.02295751953125,0.22540508466660975,-0.47431774004027244,-0.1368999950006604
1772556219374950400,5.032950439453125,0.16616554471254347,-0.4987400875046849,-0.18187142869271336
1772556219384942600,5.042942626953125,0.19019874672889708,-0.529792228372395,-0.2579148404641077
1772556219394935300,5.052935302734375,0.1544920580536127,-0.5680179141312838,-0.3288520882029086
1772556219404927500,5.062927490234375,0.08640811738669872,-0.6520077183298766,-0.37094255963116884
1772556219414919400,5.07291943359375,-0.10401040957272052,-0.6984222635023295,-0.3461362908830866
1772556219424912400,5.082912353515625,-0.17006079858541487,-0.647563744533062,-0.2667436052164063
1772556219434904300,5.092904296875,-0.16245909141004083,-0.48694443577080965,-0.18030238927770406
1772556219444897500,5.1028974609375,-0.12656184859871863,-0.35434301474690433,-0.14864767940696327
1772556219454889500,5.112889404296875,-0.09069090927243233,-0.28973361832275984,-0.10461451294571161
1772556219464882400,5.12288232421875,0.0004699555993080139,-0.38388328974694014,-0.0288060424413532
1772556219474874600,5.13287451171875,0.04732230766713619,-0.5776774306192993,0.10557232512719929
1772556219484867300,5.142867431640625,0.0620662878125906,-0.7112905129037796,0.16957633953671902
1772556219494859500,5.152859619140625,0.0038058220237493514,-0.806850051125884,0.17070285934861748
1772556219504852500,5.1628525390625,-0.09222235662341118,-0.8175538159698248,0.1399453540459275
1772556219514844400,5.172844482421875,-0.14090367768406867,-0.8144612567819655,0.15690715637132524
1772556219524837400,5.18283740234375,-0.2115951705008745,-1.000918917286396,0.4167641073465347
1772556219534829300,5.192829345703125,-0.16610533895790575,-1.2555696779206393,0.651406902892515
1772556219544822500,5.202822509765625,-0.047644379228353496,-1.2020841714486479,0.5235353599347173
1772556219554814500,5.212814453125,-0.038943186378479,-0.9284203750476241,0.15806757845282554
1772556219564806400,5.222806396484375,-0.12672083855271338,-0.6552123595900833,-0.1532524332560599
1772556219574799600,5.232799560546875,-0.3522042491525411,-0.5703258988127112,-0.11555384011119603
1772556219584791300,5.242791259765625,-0.6115583651721477,-0.5745443932905793,0.07049933124557137
1772556219594784500,5.252784423828125,-0.8969710515558719,-0.5050684137433767,0.1543576180189848
1772556219604776400,5.2627763671875,-1.131495262223482,-0.29784955863058565,0.16527875194065272
1772556219614769400,5.272769287109375,-1.1602449713677168,-0.04616027815043926,0.2124910964272916
1772556219624761300,5.28276123046875,-1.087973515883088,0.11641118759289383,0.3154272278320044
1772556219634753500,5.29275341796875,-1.0040490320056676,0.2583361711487174,0.3819962338913232
1772556219644745500,5.302745361328125,-0.8367313946485518,0.3536019871212542,0.44354178576543923
1772556219654738400,5.312738525390625,-0.7379951260864734,0.4145551991254091,0.48341249878499654
1772556219664730600,5.322730712890625,-0.7722405100375414,0.4282553693063557,0.47665907900203014
1772556219674723600,5.3327236328125,-0.784497934064269,0.4326581343099475,0.49385425169188524
1772556219684715500,5.342715576171875,-0.7283177816808223,0.4566922131091356,0.5287618989439681
1772556219694708500,5.35270849609375,-0.5710007293343544,0.5167068290889263,0.5267468327945098
1772556219704700400,5.362700439453125,-0.3263508459717035,0.57507002459988,0.4748350419126451
1772556219714693600,5.372693603515625,-0.13245558281242847,0.5720502383872866,0.4509052272055298
1772556219724685300,5.382685302734375,0.04510638518333435,0.5550079181715846,0.4022879478244111
1772556219734677500,5.392677490234375,0.2023153009802103,0.5054238030523062,0.39501718963645394
1772556219744670700,5.402670654296875,0.26878829931914805,0.4603900447137654,0.35087303708139805
1772556219754662400,5.412662353515625,0.3279085968077183,0.41327801879644394,0.31976606075391173
1772556219764655600,5.422655517578125,0.33019700000584123,0.3567597204998135,0.3328969796795398
1772556219774647600,5.4326474609375,0.2782183909654617,0.32090164065510035,0.3259166192729026
1772556219784640500,5.442640625,0.24990473515093325,0.3101148737028241,0.34173878657650203
1772556219794632400,5.452632568359375,0.28146307197511194,0.322258023700118,0.37511758029349146
1772556219804625400,5.46262548828125,0.3019856355220079,0.35501141552776094,0.4135135080527514
1772556219814617600,5.47261767578125,0.3666208970397711,0.3879202901780605,0.4669263146147132
1772556219824610600,5.482610595703125,0.3716244044154882,0.4421837952852249,0.5423495851937681
1772556219834602500,5.4926025390625,0.36692543294429775,0.523195606586337,0.618947014118731
1772556219844595500,5.502595458984375,0.4027642235666513,0.571010666206479,0.709459351953864
1772556219854587600,5.512587646484375,0.40279637227058407,0.5611240629643202,0.756855747770518
1772556219864580600,5.52258056640625,0.4113952737897634,0.5517258277609944,0.7813841128926724
1772556219874572500,5.532572509765625,0.4253688540846109,0.5504971627488732,0.7921327397916466
1772556219884565500,5.5425654296875,0.45564299631714816,0.5214242129996418,0.8198040060494095
1772556219894557400,5.552557373046875,0.48195641822516916,0.5028963304013013,0.8644847131665796
1772556219904549600,5.562549560546875,0.4825637364685535,0.46277094850093126,0.8750575451072304
1772556219914542300,5.572542236328125,0.4477332461059093,0.43019057515263553,0.8282245553269982
1772556219924534500,5.582534423828125,0.3811579564362764,0.4448512609288096,0.7669592816989869
1772556219934527700,5.59252783203125,0.33100305569171906,0.4360360863104462,0.7096435494143516
1772556219944519400,5.60251953125,0.2449140872567892,0.44215836858302354,0.68143832241036
1772556219954512600,5.6125126953125,0.15118191059231756,0.47078445134758945,0.6547387507289648
1772556219964504600,5.622504638671875,0.073973583227396,0.5281757330864667,0.6151718794941902
1772556219974497500,5.63249755859375,0.0008446341305971145,0.5875181488931178,0.5193710067968815
1772556219984489500,5.642489501953125,-0.07857143241167068,0.6411079925224185,0.37834224142841993
1772556219994482400,5.652482421875,-0.12493804678916931,0.6821683171853423,0.2259223682726733
1772556220004474400,5.662474365234375,-0.05705284356474876,0.7566752766370772,0.19854014808936044
1772556220014467600,5.672467529296875,0.030214520999789236,0.7806368747219443,0.30812443053796884
1772556220024459500,5.68245947265625,0.13519231429994105,0.7893971042826772,0.5068057589299977
1772556220034452500,5.692452392578125,0.2169850468456745,0.7670059703849256,0.6621236002832651
1772556220044444700,5.702444580078125,0.30063889708817004,0.7506392113432288,0.752602255044505
1772556220054437600,5.712437744140625,0.3676543317407369,0.7056753033705055,0.7356487821560352
1772556220064429600,5.7224296875,0.45194472632110116,0.6141321611829101,0.6946800082340836
1772556220074422500,5.732422607421875,0.5477098701179027,0.48716070886999363,0.6143639971774071
1772556220084414500,5.74241455078125,0.548410711863637,0.31991423705294725,0.5261855091173201
1772556220094407700,5.75240771484375,0.4994400524675846,0.17699585854560135,0.459370309744589
1772556220104399400,5.7623994140625,0.4141624004155397,0.0684459058471024,0.4429723883796483
1772556220114391600,5.7723916015625,0.29198855764269827,-0.01916603437140584,0.44080914593115444
1772556220124384500,5.782384521484375,0.22113515226244926,-0.0304600201934576,0.4607122624054551
1772556220134376400,5.79237646484375,0.16444938844442367,0.0004487666808068752,0.5252509316809475
1772556220144369700,5.80236962890625,0.1140326218932867,0.02089811886101961,0.5696867606589571
1772556220154361600,5.812361572265625,0.07554302450120448,0.024013474402576684,0.5935718594415113
1772556220164354600,5.8223544921875,0.058792965230345724,0.030319150418043134,0.592076287121512
1772556220174346500,5.832346435546875,0.04522445860505104,-0.005692804814130067,0.5548731858760119
1772556220184339500,5.84233935546875,0.02828501424193382,-0.04772022094354033,0.48960649458691474
1772556220194331400,5.852331298828125,-0.007876432463526725,-0.10115721209868789,0.429257422488369
1772556220204324600,5.86232470703125,-0.02847206124663353,-0.11187179059758781,0.3715451286341995
1772556220214316500,5.872316650390625,0.002433364626765251,-0.12030629533529281,0.35789055116064844
1772556220224309500,5.8823095703125,0.07467442497313022,-0.1404232006907463,0.40352914352454244
1772556220234301400,5.892301513671875,0.18696224902570246,-0.160632022113353,0.4344471366185695
1772556220244294400,5.90229443359375,0.24982056399881838,-0.2170842694364488,0.42803325098827477
1772556220254286600,5.91228662109375,0.2588520117163658,-0.2819444257512688,0.36410401884801685
1772556220264279600,5.922279541015625,0.21916589801609515,-0.3386908337153494,0.33462025980819016
1772556220274271500,5.932271484375,0.16765841361880301,-0.40515564874783155,0.28692630581706763
1772556220284264400,5.942264404296875,0.11118015507161616,-0.453555522518605,0.22783611120581626
1772556220294256400,5.95225634765625,0.0891056859076023,-0.5049181916177272,0.19725509498119354
1772556220304249600,5.96224951171875,0.07472118672430515,-0.5473452745892107,0.18569106004610655
1772556220314241500,5.972241455078125,0.08752338515222072,-0.5595967072665691,0.2231430580187589
1772556220324234500,5.982234375,0.1248597208559513,-0.5868582236796617,0.25606157728023826
1772556220334226700,5.992226806640625,0.1596732600837946,-0.5786104736857116,0.27644718004185703
1772556220344219400,6.002219482421875,0.14644319163262842,-0.5851018815316259,0.29737116399649527
1772556220354211600,6.012211669921875,0.15731471425890922,-0.5736437911890446,0.31497575773745773
1772556220364203500,6.02220361328125,0.0905658215880394,-0.5338043866232037,0.3255892870146781
1772556220374196500,6.032196533203125,0.03083820585608482,-0.49478842726945876,0.3032152138495818
1772556220384188400,6.0421884765625,-0.08110884193480014,-0.42114480664879084,0.2849388948595151
1772556220394181400,6.052181396484375,-0.21454934413135052,-0.352544879283756,0.31621070635989307
1772556220404173600,6.062173583984375,-0.32944822746515273,-0.2959749969303608,0.34167814243044703
1772556220414166500,6.07216650390625,-0.3877063551664352,-0.2366321427322924,0.4115191193651408
1772556220424158500,6.082158447265625,-0.38343174658715723,-0.17484920190572736,0.45810324895083904
1772556220434151400,6.0921513671875,-0.34689971300363537,-0.13237988722771404,0.5247472199425101
1772556220444143600,6.1021435546875,-0.2942483192682266,-0.18883549555167556,0.6423088196795433
1772556220454136600,6.112136474609375,-0.24933307274281977,-0.36074002230763436,0.8736739087291061
1772556220464128500,6.12212841796875,-0.1947732150375843,-0.678292498665303,1.0835300535429269
1772556220474121500,6.13212158203125,-0.1227507658779621,-0.8609531049743294,0.9509637038324028
1772556220484113400,6.142113525390625,-0.19647125112712382,-0.7943443514265119,0.589454816044122
1772556220494106600,6.152106689453125,-0.38155718488693235,-0.6791551068440079,0.2904079921866767
1772556220504098300,6.162098388671875,-0.6597317367106675,-0.6614749271161854,0.3610789354057982
1772556220514091500,6.172091552734375,-0.8499152858704329,-0.654763446778804,0.5349221020741388
1772556220524083700,6.182083740234375,-0.9392220473080873,-0.48748950243294237,0.5504805038750171
1772556220534076400,6.192076416015625,-0.940710824561119,-0.18958835974559188,0.3933944107402116
1772556220544068600,6.202068603515625,-0.8625070564180612,0.11336027558967471,0.24387579371761528
1772556220554061300,6.212061279296875,-0.8022457722008228,0.29995237612873316,0.23260807484798132
1772556220564053500,6.222053466796875,-0.7332593297362328,0.30264483008310195,0.3517929649379104
1772556220574046700,6.232046630859375,-0.6020739129900932,0.2970066780656576,0.4235892041262239
1772556220584038400,6.242038330078125,-0.42152737622559067,0.33342736022919417,0.36903621455319224
1772556220594031600,6.252031494140625,-0.2445785716921091,0.40248905988708134,0.2401848850441165
1772556220604023600,6.2620234375,-0.09967325715124606,0.43169805710613723,0.23300078222630544
1772556220614016500,6.2720166015625,-0.042815643897652626,0.44100276880711314,0.26393689549891275
1772556220624008400,6.282008544921875,-0.04286240564882755,0.4163765693336725,0.2767487385380082
1772556220634001000,6.2920009765625,-0.06911211467087268,0.4735682368472218,0.29489006950417535
1772556220643993900,6.301993896484375,-0.1270166066288948,0.5555201054774225,0.2759728039957583
1772556220653985800,6.31198583984375,-0.16982757435142992,0.6293266615748405,0.23137166492082178
1772556220663978800,6.321978759765625,-0.25359949801564213,0.707961806872487,0.18796550778411328
1772556220673970700,6.331970703125,-0.35864041967988014,0.7553961966119707,0.1312304979968816
1772556220683963600,6.341963623046875,-0.4297901776582002,0.8062297272704542,0.029829576802812514
1772556220693955600,6.35195556640625,-0.4491939663082361,0.829783036815375,-0.1243892172673717
1772556220703948800,6.36194873046875,-0.3907610665619373,0.8278688737571239,-0.2783264909824356
1772556220713940700,6.371940673828125,-0.2654173615813255,0.7812386400073766,-0.3840300778064877
1772556220723933700,6.38193359375,-0.14060966317355633,0.722589905553311,-0.4877578710455447
1772556220733926000,6.39192578125,-0.01293254680931568,0.667491995448619,-0.5903973575912416
1772556220743918600,6.401918701171875,0.14315233339369296,0.628383827766776,-0.6484684382878243
1772556220753910800,6.411910888671875,0.19599954196214675,0.5879392969146371,-0.6801639185603707
1772556220763903700,6.42190380859375,0.18154665371775627,0.5085378434196114,-0.6366688410311937
1772556220773895700,6.431895751953125,0.155067812114954,0.49967824513763187,-0.5966252921953797
1772556220783889000,6.441888916015625,0.12276362535953521,0.5343512068510056,-0.5721602015677839
1772556220793880600,6.451880615234375,0.05534487060308456,0.6230640940487384,-0.5579513512123376
1772556220803873800,6.461873779296875,-0.024780220991373062,0.6524234595239162,-0.5372294657010585
1772556220813865700,6.47186572265625,-0.07575403690338134,0.707566377814114,-0.5059698926277458
1772556220823858700,6.481858642578125,-0.15347849709689615,0.7862988460063934,-0.49328664440438147
1772556220833851000,6.491850830078125,-0.21691139708757398,0.8465157065600156,-0.46619040155559777
1772556220843843600,6.501843505859375,-0.23512159203886984,0.8907993771836161,-0.38190555993318553
1772556220853835800,6.511835693359375,-0.16103285799920558,0.9224866010844707,-0.30661092070247975
1772556220863828700,6.521828857421875,-0.006594575959444046,0.9437409860372543,-0.2369381216752343
1772556220873820700,6.531820556640625,0.1294523093432188,0.8841519019931554,-0.18921706048147752
1772556220883814000,6.54181396484375,0.30112638834416866,0.8205208490818738,-0.17703609922444447
1772556220893805800,6.551805908203125,0.4798357728093862,0.7214920273140072,-0.16892576667349785
1772556220903798800,6.561798828125,0.6259785201907158,0.6298714359760285,-0.1543314241318032
1772556220913790700,6.571790771484375,0.7000444578766822,0.4979541978240013,-0.1686581652458757
1772556220923783700,6.58178369140625,0.7280249362140894,0.3857400235295296,-0.20268048103079198
1772556220933775600,6.591775634765625,0.6920856078267097,0.2551546185031533,-0.25564908748921006
1772556220943768800,6.601768798828125,0.6669470749169588,0.15955489440113305,-0.3053388549400493
1772556220953760800,6.6117607421875,0.6079758305102586,0.10526216319948434,-0.3724266972417012
1772556220963753700,6.621753662109375,0.5616863730221986,0.07124532730728388,-0.45001510996539146
1772556220973746000,6.631745849609375,0.5109715003073215,0.0324859730631113,-0.5323749383419751
1772556220983737600,6.641737548828125,0.44920857935547825,0.01925502782911062,-0.5939768235132098
1772556220993730800,6.651730712890625,0.273618788215518,0.030192601428925988,-0.6311813495308161
1772556221003722800,6.66172265625,0.19507424381077287,0.008262509171664715,-0.5941427181320265
1772556221013715700,6.6717158203125,0.2810942386627197,-0.03895020064115524,-0.5548024952599778
1772556221023708000,6.6817080078125,0.40236908676922317,-0.10954232473671435,-0.5944627073340117
1772556221033700600,6.69170068359375,0.45854105584621424,-0.2419923545911908,-0.646729193405062
1772556221043692800,6.70169287109375,0.5041629893362521,-0.39945319932252166,-0.7610933122750371
1772556221053685800,6.711685791015625,0.5636497820496559,-0.5110857743367553,-0.8509278969790786
1772556221063677700,6.721677734375,0.6072364103198051,-0.5645572522833943,-0.8620261410333215
1772556221073671000,6.7316708984375,0.5817302131414414,-0.5474199472606182,-0.8767516356740146
1772556221083662800,6.741662841796875,0.5473451284587383,-0.5530557611905038,-0.8560766580443829
1772556221093655800,6.75165576171875,0.45473172669112677,-0.58257192466259,-0.7750238571457564
1772556221103647700,6.761647705078125,0.31976562236249445,-0.5927684706367552,-0.6806826086722314
1772556221113640700,6.771640625,0.20567162567079067,-0.5929185466319322,-0.5727535278184339
1772556221123632600,6.781632568359375,0.14716215355694293,-0.6267891059212386,-0.48256530737113207
