time,seconds_elapsed,z,y,x
1772556214418706200,0.0767060546875,0.46622899174690247,0.2849113941192627,-0.19284498691558838
1772556214428698400,0.086698486328125,0.48848769068717957,0.27671629190444946,-0.26502570509910583
1772556214438691000,0.096691162109375,0.5073722004890442,0.2537632882595062,-0.342386931180954
1772556214448683300,0.106683349609375,0.5218613743782043,0.21257057785987854,-0.41259557008743286
1772556214458675200,0.11667529296875,0.5346482992172241,0.15451528131961823,-0.4737631380558014
1772556214468668200,0.126668212890625,0.5425650477409363,0.11015873402357101,-0.5131201148033142
1772556214478660000,0.13666015625,0.5412858724594116,0.1015586405992508,-0.5341421961784363
1772556214488653000,0.146653076171875,0.5252403020858765,0.10051068663597107,-0.5434768795967102
1772556214498645200,0.156645263671875,0.4876764416694641,0.09956492483615875,-0.5396808385848999
1772556214508637200,0.16663720703125,0.4383954405784607,0.09196426719427109,-0.5381820201873779
1772556214518630100,0.176630126953125,0.386039674282074,0.07431735843420029,-0.5315685868263245
1772556214528622000,0.1866220703125,0.3390042781829834,0.04646281898021698,-0.5126361846923828
1772556214538615300,0.196615234375,0.29413703083992004,-0.005043174140155315,-0.4750373661518097
1772556214548607200,0.206607177734375,0.24583715200424194,-0.0827864333987236,-0.4250982999801636
1772556214558599200,0.21659912109375,0.19507546722888947,-0.17437715828418732,-0.36512893438339233
1772556214568592100,0.226592041015625,0.14389777183532715,-0.24348431825637817,-0.2974311113357544
1772556214578584300,0.236584228515625,0.10758116841316223,-0.2895601987838745,-0.22191588580608368
1772556214588576000,0.246575927734375,0.10335792601108551,-0.3106670677661896,-0.1304810494184494
1772556214598569200,0.2565693359375,0.12701061367988586,-0.3109706938266754,-0.03291153535246849
1772556214608561200,0.26656103515625,0.16136965155601501,-0.2929126024246216,0.07370811700820923
1772556214618554000,0.27655419921875,0.16431130468845367,-0.25502461194992065,0.14858295023441315
1772556214628545500,0.286545654296875,0.1271950900554657,-0.22928917407989502,0.199666365981102
1772556214638538500,0.29653857421875,0.09603017568588257,-0.22256970405578613,0.2425422966480255
1772556214648530400,0.306530517578125,0.07202576845884323,-0.20908504724502563,0.2699638307094574
1772556214658522600,0.316522705078125,0.05433041229844093,-0.1748027503490448,0.27822667360305786
1772556214668515300,0.326515380859375,0.0372379794716835,-0.1343029886484146,0.26513803005218506
1772556214678507500,0.336507568359375,0.011396527290344238,-0.07815583795309067,0.2271168828010559
1772556214688499500,0.34649951171875,-0.015297400765120983,-0.022410012781620026,0.17623506486415863
1772556214698492400,0.356492431640625,-0.052263617515563965,0.016835687682032585,0.09729404747486115
1772556214708484400,0.366484375,-0.08178183436393738,0.01885356567800045,0.010760757140815258
1772556214718477600,0.3764775390625,-0.12128064036369324,-0.01530572772026062,-0.08832830935716629
1772556214728469500,0.386469482421875,-0.16095614433288574,-0.08400596678256989,-0.18369904160499573
1772556214738461400,0.39646142578125,-0.19822542369365692,-0.1594541072845459,-0.2676480710506439
1772556214748454700,0.40645458984375,-0.22149160504341125,-0.23100098967552185,-0.32846346497535706
1772556214758446300,0.4164462890625,-0.23144055902957916,-0.26895880699157715,-0.35809382796287537
1772556214768439600,0.426439453125,-0.22009842097759247,-0.27049118280410767,-0.362562358379364
1772556214778431500,0.436431396484375,-0.19452455639839172,-0.24620337784290314,-0.3390049934387207
1772556214788423400,0.44642333984375,-0.16161055862903595,-0.20315790176391602,-0.2886422276496887
1772556214798416600,0.456416748046875,-0.12158115953207016,-0.1481328159570694,-0.22922392189502716
1772556214808408600,0.46640869140625,-0.0847802683711052,-0.07380584627389908,-0.1613476723432541
1772556214818401500,0.476401611328125,-0.05252644047141075,0.004995736293494701,-0.09888096153736115
1772556214828393500,0.4863935546875,-0.03008451499044895,0.09378792345523834,-0.053865015506744385
1772556214838385700,0.4963857421875,-0.0195367019623518,0.18739597499370575,-0.024266770109534264
1772556214848378400,0.50637841796875,-0.013803982175886631,0.28048571944236755,-0.019109558314085007
1772556214858370600,0.51637060546875,-0.013684665784239769,0.3533628582954407,-0.030539242550730705
1772556214868363500,0.526363525390625,-0.023845423012971878,0.40403056144714355,-0.058153025805950165
1772556214878355500,0.53635546875,-0.03402583673596382,0.42463040351867676,-0.10187692195177078
1772556214888347600,0.54634765625,-0.04255727306008339,0.405487060546875,-0.14195510745048523
1772556214898340400,0.55634033203125,-0.04722492769360542,0.3459640443325043,-0.18432465195655823
1772556214908332500,0.56633251953125,-0.04346347972750664,0.24633921682834625,-0.20700518786907196
1772556214918325500,0.576325439453125,-0.035937558859586716,0.11845441162586212,-0.22285078465938568
1772556214928317400,0.5863173828125,-0.013638114556670189,-0.00410531647503376,-0.2103072851896286
1772556214938309400,0.596309326171875,0.03152037039399147,-0.08180968463420868,-0.1768609583377838
1772556214948302600,0.606302490234375,0.0890268012881279,-0.10380606353282928,-0.13120399415493011
1772556214958294500,0.61629443359375,0.16467230021953583,-0.08554262667894363,-0.07760528475046158
1772556214968287500,0.62628759765625,0.24791818857192993,-0.029229551553726196,-0.016770699992775917
1772556214978279700,0.63627978515625,0.3328000009059906,0.050867389887571335,0.0367797315120697
1772556214988271400,0.646271240234375,0.40939196944236755,0.1444881558418274,0.0897606611251831
1772556214998264600,0.6562646484375,0.4680652916431427,0.21909047663211823,0.1339300274848938
1772556215008256500,0.666256591796875,0.5020338892936707,0.24399422109127045,0.1705668717622757
1772556215018249500,0.67624951171875,0.5161510705947876,0.23887968063354492,0.19689811766147614
1772556215028241700,0.68624169921875,0.5000312328338623,0.22752262651920319,0.22274115681648254
1772556215038233600,0.696233642578125,0.4827300012111664,0.23386859893798828,0.23621951043605804
1772556215048226600,0.7062265625,0.46627724170684814,0.24505652487277985,0.23952876031398773
1772556215058218500,0.716218505859375,0.4514877498149872,0.24659587442874908,0.24532121419906616
1772556215068211500,0.72621142578125,0.4327782690525055,0.22972235083580017,0.23743027448654175
1772556215078203400,0.736203369140625,0.4108382761478424,0.24274149537086487,0.21000361442565918
1772556215088195600,0.746195556640625,0.3876916766166687,0.26502230763435364,0.17447678744792938
1772556215098188500,0.7561884765625,0.3665015697479248,0.2659027576446533,0.15483123064041138
1772556215108180500,0.766180419921875,0.3301696479320526,0.15066376328468323,0.11050582677125931
1772556215118173700,0.776173583984375,0.25872600078582764,0.030526477843523026,0.034352321177721024
1772556215128165400,0.786165283203125,0.18483474850654602,-0.09619711339473724,-0.08227336406707764
1772556215138157600,0.796157470703125,0.1256701946258545,-0.20731517672538757,-0.19824063777923584
1772556215148150500,0.806150634765625,0.083512082695961,-0.2722989618778229,-0.29798242449760437
1772556215158142500,0.816142578125,0.05253637954592705,-0.2807382345199585,-0.3727675676345825
1772556215168135400,0.826135498046875,0.02425254136323929,-0.261353075504303,-0.40675562620162964
1772556215178127600,0.836127685546875,0.005798972211778164,-0.21632491052150726,-0.4114472568035126
1772556215188119300,0.846119384765625,-0.0000772927887737751,-0.16611553728580475,-0.3849634528160095
1772556215198112500,0.856112548828125,0.007654034532606602,-0.13675810396671295,-0.33998480439186096
1772556215208104700,0.866104736328125,0.029893027618527412,-0.13975363969802856,-0.28024452924728394
1772556215218097400,0.876097412109375,0.059988364577293396,-0.17368263006210327,-0.21534547209739685
1772556215228089600,0.886089599609375,0.08690520375967026,-0.21709482371807098,-0.1480303406715393
1772556215238081500,0.89608154296875,0.11202160269021988,-0.24754565954208374,-0.0839853584766388
1772556215248074500,0.906074462890625,0.13079075515270233,-0.24474027752876282,-0.03248993679881096
1772556215258066400,0.91606640625,0.15030542016029358,-0.1946241557598114,0.01742904633283615
1772556215268059400,0.926059326171875,0.1708351969718933,-0.09125009179115295,0.06049928441643715
1772556215278051600,0.936051513671875,0.1956370770931244,0.058812130242586136,0.09651044756174088
1772556215288043500,0.94604345703125,0.2134981006383896,0.19396887719631195,0.12278306484222412
1772556215298036500,0.956036376953125,0.20067785680294037,0.2319740206003189,0.12482669949531555
1772556215308028400,0.9660283203125,0.1448148488998413,0.1709897667169571,0.0930248275399208
1772556215318021600,0.976021728515625,0.05251399800181389,0.060227084904909134,0.030018161982297897
1772556215328013300,0.986013427734375,-0.04430016130208969,-0.056322965770959854,-0.043956462293863297
1772556215338005500,0.996005615234375,-0.10493125021457672,-0.14849743247032166,-0.1180870532989502
1772556215347998700,1.005998779296875,-0.13147124648094177,-0.22136977314949036,-0.1748049259185791
1772556215357990400,1.015990478515625,-0.1324097067117691,-0.2899783253669739,-0.2144048810005188
1772556215367983600,1.025983642578125,-0.11377637088298798,-0.3372257351875305,-0.22967810928821564
1772556215377975600,1.0359755859375,-0.09639318287372589,-0.337147980928421,-0.22649291157722473
1772556215387967500,1.045967529296875,-0.06805022060871124,-0.29662612080574036,-0.2054307758808136
1772556215397960400,1.05596044921875,-0.0397266261279583,-0.25806331634521484,-0.18038012087345123
1772556215407952600,1.06595263671875,-0.0035790088586509228,-0.24198448657989502,-0.14451345801353455
1772556215417945600,1.075945556640625,0.029878951609134674,-0.2227356880903244,-0.1189446821808815
1772556215427937500,1.0859375,0.059498898684978485,-0.20445628464221954,-0.09091570973396301
1772556215437929700,1.0959296875,0.08308310061693192,-0.17869816720485687,-0.06544516980648041
1772556215447922400,1.10592236328125,0.10185465961694717,-0.13673633337020874,-0.04494256153702736
1772556215457914600,1.11591455078125,0.11882665008306503,-0.0664837509393692,-0.0330275222659111
1772556215467907300,1.1259072265625,0.13848905265331268,0.01200040616095066,-0.027518508955836296
1772556215477899500,1.1358994140625,0.15792439877986908,0.06371498852968216,-0.023705091327428818
1772556215487892700,1.145892822265625,0.17851436138153076,0.06304094940423965,-0.02558474987745285
1772556215497884400,1.155884521484375,0.1972653865814209,0.013513888232409954,-0.017957795411348343
1772556215507876600,1.165876708984375,0.21469685435295105,-0.042049240320920944,-0.010891630314290524
1772556215517869600,1.17586962890625,0.23209050297737122,-0.08404623717069626,0.004803515039384365
1772556215527861500,1.185861572265625,0.25092968344688416,-0.11105947941541672,0.024617699906229973
1772556215537854500,1.1958544921875,0.26980361342430115,-0.1229606345295906,0.050240401178598404
1772556215547846700,1.2058466796875,0.287264347076416,-0.120045006275177,0.08036075532436371
1772556215557838300,1.21583837890625,0.3045947551727295,-0.1184745505452156,0.1124177947640419
1772556215567831600,1.22583154296875,0.3219414949417114,-0.11943728476762772,0.1463097184896469
1772556215577823700,1.23582373046875,0.3356265127658844,-0.11737225949764252,0.18029984831809998
1772556215587816400,1.24581640625,0.3497665524482727,-0.0863533541560173,0.21431401371955872
1772556215597808600,1.25580859375,0.37028753757476807,-0.016162818297743797,0.25273066759109497
1772556215607800600,1.265800537109375,0.40206676721572876,0.07817354053258896,0.2825135886669159
1772556215617793500,1.27579345703125,0.4269636571407318,0.17139242589473724,0.29930374026298523
1772556215627786200,1.2857861328125,0.44632217288017273,0.22031202912330627,0.29196327924728394
1772556215637779200,1.295779296875,0.4525703489780426,0.2125430703163147,0.263650119304657
1772556215647771100,1.305771240234375,0.4524398446083069,0.15295884013175964,0.2121427208185196
1772556215657763300,1.315763427734375,0.4469771087169647,0.06448700278997421,0.14943845570087433
1772556215667756000,1.325756103515625,0.4388025403022766,-0.04088015854358673,0.07963220775127411
1772556215677748200,1.335748291015625,0.41897955536842346,-0.15174512565135956,0.017555031925439835
1772556215687741000,1.345740966796875,0.3922736644744873,-0.2475653886795044,-0.04023928940296173
1772556215697733000,1.355733154296875,0.35816341638565063,-0.29932206869125366,-0.08860866725444794
1772556215707725000,1.36572509765625,0.32199662923812866,-0.3155295252799988,-0.12373070418834686
1772556215717718000,1.375718017578125,0.2962579131126404,-0.32287830114364624,-0.1470264196395874
1772556215727710200,1.385710205078125,0.27153125405311584,-0.33969029784202576,-0.16020721197128296
1772556215737703200,1.395703125,0.2589576840400696,-0.3532654941082001,-0.1625213772058487
1772556215747695000,1.405695068359375,0.25348034501075745,-0.3420866131782532,-0.14744308590888977
1772556215757688000,1.41568798828125,0.2521757185459137,-0.28787925839424133,-0.11991812288761139
1772556215767680300,1.42568017578125,0.2578940689563751,-0.1898065060377121,-0.09291553497314453
1772556215777672000,1.435671875,0.26704835891723633,-0.06535965204238892,-0.06232614442706108
1772556215787665200,1.4456650390625,0.287245512008667,0.07924813032150269,-0.042183589190244675
1772556215797657300,1.4556572265625,0.3086474537849426,0.23918162286281586,-0.041597504168748856
1772556215807650000,1.465650146484375,0.3355208933353424,0.3836069703102112,-0.05749417841434479
1772556215817642200,1.475642333984375,0.3640122413635254,0.482174277305603,-0.09026481211185455
1772556215827634200,1.48563427734375,0.3855239152908325,0.5340787768363953,-0.13866962492465973
1772556215837627100,1.495627197265625,0.3990670442581177,0.5552482008934021,-0.19732478260993958
1772556215847619000,1.505619140625,0.4068903625011444,0.5168464779853821,-0.26073703169822693
1772556215857612000,1.515612060546875,0.3986491560935974,0.3982071876525879,-0.3106522858142853
1772556215867604200,1.525604248046875,0.39100268483161926,0.24559076130390167,-0.33617255091667175
1772556215877596200,1.53559619140625,0.379728764295578,0.11571026593446732,-0.331877201795578
1772556215887589000,1.545589111328125,0.35611453652381897,0.008314570412039757,-0.2996947765350342
1772556215897581000,1.5555810546875,0.3193340301513672,-0.07817772775888443,-0.25250479578971863
1772556215907574300,1.56557421875,0.28114932775497437,-0.14567527174949646,-0.1928076297044754
1772556215917566000,1.57556591796875,0.24440263211727142,-0.1759689897298813,-0.1269291341304779
1772556215927559200,1.58555908203125,0.20964226126670837,-0.1799573302268982,-0.072455495595932
1772556215937551400,1.59555126953125,0.17392048239707947,-0.1676175892353058,-0.02800673060119152
1772556215947543000,1.60554296875,0.13717712461948395,-0.16149631142616272,-0.007882555015385151
1772556215957536300,1.615536376953125,0.10113616287708282,-0.1536431759595871,0.0035503588151186705
1772556215967528200,1.625528076171875,0.06921283900737762,-0.14208798110485077,-0.009280218742787838
1772556215977521200,1.635521240234375,0.04258376732468605,-0.140776127576828,-0.03487502411007881
1772556215987513000,1.64551318359375,0.019146084785461426,-0.15455186367034912,-0.06569312512874603
1772556215997505300,1.65550537109375,0.010254856199026108,-0.179611936211586,-0.09921406209468842
1772556216007498000,1.665498046875,0.0040201288647949696,-0.20863160490989685,-0.1277114897966385
1772556216017490200,1.675490234375,0.0019550665747374296,-0.2457401007413864,-0.1464654505252838
1772556216027483100,1.685483154296875,0.0024647957179695368,-0.284006804227829,-0.14949986338615417
1772556216037475000,1.69547509765625,-0.005529219750314951,-0.3089886009693146,-0.13833436369895935
1772556216047467300,1.70546728515625,-0.02272205613553524,-0.3075704574584961,-0.11293420195579529
1772556216057460000,1.7154599609375,-0.0446661002933979,-0.28557223081588745,-0.06963542848825455
1772556216067452200,1.7254521484375,-0.07035575062036514,-0.25445955991744995,-0.02486236020922661
1772556216077445000,1.735445068359375,-0.09647158533334732,-0.2045937180519104,0.024602757766842842
1772556216087437000,1.74543701171875,-0.12157081812620163,-0.13797661662101746,0.07343687862157822
1772556216097430300,1.75543017578125,-0.13816626369953156,-0.07284309715032578,0.11590062826871872
1772556216107422200,1.765422119140625,-0.15045595169067383,-0.027541130781173706,0.1476292610168457
1772556216117414100,1.7754140625,-0.15631209313869476,0.017165066674351692,0.16884730756282806
1772556216127407000,1.785406982421875,-0.14847815036773682,0.07590774446725845,0.17441144585609436
1772556216137399300,1.7953994140625,-0.1249849870800972,0.12165389955043793,0.16887390613555908
1772556216147392000,1.80539208984375,-0.1086672693490982,0.07798497378826141,0.13714927434921265
1772556216157384200,1.81538427734375,-0.12002977728843689,-0.05948685109615326,0.08227047324180603
1772556216167376100,1.825376220703125,-0.15926720201969147,-0.22207896411418915,0.009618105366826057
1772556216177369000,1.835369140625,-0.2116011679172516,-0.32421013712882996,-0.06041247770190239
1772556216187361300,1.845361328125,-0.25093206763267517,-0.3268581032752991,-0.11532765626907349
1772556216197354000,1.85535400390625,-0.27077949047088623,-0.23466478288173676,-0.14984457194805145
1772556216207346200,1.86534619140625,-0.28965863585472107,-0.09669839590787888,-0.1830778867006302
1772556216217339100,1.875339111328125,-0.3030393421649933,0.01951020397245884,-0.2220015972852707
1772556216227331000,1.8853310546875,-0.3106676936149597,0.07699320465326309,-0.27089056372642517
1772556216237323000,1.895322998046875,-0.29961133003234863,0.0816180482506752,-0.3258206844329834
1772556216247316200,1.905316162109375,-0.2630043029785156,0.045778561383485794,-0.37785616517066956
1772556216257308200,1.91530810546875,-0.2024402618408203,-0.009305404499173164,-0.4112803339958191
1772556216267301000,1.925301025390625,-0.13402578234672546,-0.0684179961681366,-0.4176657795906067
1772556216277293300,1.935293212890625,-0.07717958092689514,-0.12491753697395325,-0.38948288559913635
1772556216287285000,1.945284912109375,-0.02771349810063839,-0.1785741001367569,-0.33088749647140503
1772556216297278200,1.9552783203125,0.009891933761537075,-0.20203761756420135,-0.23627735674381256
1772556216307270100,1.965270263671875,0.0344603955745697,-0.18529459834098816,-0.12608107924461365
1772556216317263000,1.97526318359375,0.053398266434669495,-0.16093918681144714,0.004013041500002146
1772556216327255300,1.98525537109375,0.061817318201065063,-0.1391579955816269,0.12104751914739609
1772556216337248000,1.995248046875,0.060059238225221634,-0.13254456222057343,0.22445064783096313
1772556216347240200,2.005240234375,0.054763007909059525,-0.1445160061120987,0.299517422914505
1772556216357232000,2.015232177734375,0.04380315914750099,-0.17337612807750702,0.3417587876319885
1772556216367225000,2.02522509765625,0.028049230575561523,-0.21098476648330688,0.36445292830467224
1772556216377217000,2.035217041015625,0.009829537011682987,-0.2261921912431717,0.3643537163734436
1772556216387210200,2.045210205078125,-0.009628850035369396,-0.21865731477737427,0.36592310667037964
1772556216397202200,2.0552021484375,-0.03534025698900223,-0.1895284801721573,0.3645895719528198
1772556216407194000,2.065194091796875,-0.055180542171001434,-0.1480710506439209,0.3626004457473755
1772556216417187300,2.075187255859375,-0.06329892575740814,-0.08300630748271942,0.371633380651474
1772556216427179000,2.085178955078125,-0.05526150017976761,-0.00332026113756001,0.39329180121421814
1772556216437172200,2.095172119140625,-0.031444184482097626,0.07826753705739975,0.42247235774993896
1772556216447164200,2.1051640625,0.0003971019759774208,0.13395290076732635,0.45150771737098694
1772556216457157000,2.1151572265625,0.030892426148056984,0.1548033207654953,0.4817202091217041
1772556216467149300,2.1251494140625,0.04639628529548645,0.15439772605895996,0.5078394412994385
1772556216477141200,2.135141357421875,0.05455921217799187,0.1515081822872162,0.5289450883865356
1772556216487134200,2.14513427734375,0.04582856968045235,0.1582593023777008,0.534437894821167
1772556216497126100,2.155126220703125,0.01966780237853527,0.17290669679641724,0.5222247838973999
1772556216507119000,2.165119140625,-0.026562541723251343,0.18930591642856598,0.4873778820037842
1772556216517111000,2.175111083984375,-0.07431986927986145,0.20125150680541992,0.43220052123069763
1772556216527103200,2.185103271484375,-0.1202884241938591,0.21541206538677216,0.3554157316684723
1772556216537096200,2.19509619140625,-0.15429718792438507,0.2230667918920517,0.2605518400669098
1772556216547088100,2.205088134765625,-0.1690945029258728,0.22560851275920868,0.15682196617126465
1772556216557081300,2.215081298828125,-0.16786052286624908,0.21401256322860718,0.0526442788541317
1772556216567073000,2.225072998046875,-0.16128917038440704,0.1994469314813614,-0.043051619082689285
1772556216577066200,2.235066162109375,-0.14512448012828827,0.18359661102294922,-0.1292617917060852
1772556216587058200,2.24505810546875,-0.12739261984825134,0.17490990459918976,-0.18710139393806458
1772556216597050000,2.255050048828125,-0.10930381715297699,0.17155486345291138,-0.23720280826091766
1772556216607043000,2.26504296875,-0.08760491013526917,0.14888976514339447,-0.26728373765945435
1772556216617035300,2.27503515625,-0.06301168352365494,0.1035209447145462,-0.2819351255893707
1772556216627028000,2.285028076171875,-0.03522638976573944,0.05289851501584053,-0.27266865968704224
1772556216637020000,2.29502001953125,-0.0026082596741616726,0.022352322936058044,-0.25464382767677307
1772556216647012900,2.305012939453125,0.026289701461791992,0.018073953688144684,-0.22225528955459595
1772556216657004800,2.3150048828125,0.06009725481271744,0.02558913826942444,-0.1908130794763565
1772556216666997000,2.3249970703125,0.08917524665594101,0.029222220182418823,-0.165483757853508
1772556216676989700,2.33498974609375,0.1224188357591629,0.009239980950951576,-0.14968222379684448
1772556216686982000,2.34498193359375,0.1522691398859024,-0.02882351540029049,-0.14537429809570312
1772556216696975000,2.35497509765625,0.1876174658536911,-0.07135924696922302,-0.1461728811264038
1772556216706966800,2.364966796875,0.22867701947689056,-0.09677805751562119,-0.1468767523765564
1772556216716959000,2.374958984375,0.27874499559402466,-0.0944611132144928,-0.15040647983551025
1772556216726952000,2.384951904296875,0.32644781470298767,-0.06669473648071289,-0.16104047000408173
1772556216736943900,2.39494384765625,0.36461129784584045,-0.039383746683597565,-0.1680375188589096
1772556216746936800,2.404936767578125,0.39415428042411804,-0.02263273298740387,-0.1812199056148529
1772556216756929000,2.414928955078125,0.4150463938713074,-0.005569058936089277,-0.1839187741279602
1772556216766922000,2.424921875,0.4413917064666748,0.021866293624043465,-0.17645740509033203
1772556216776914000,2.434913818359375,0.4730268716812134,0.06329602748155594,-0.16242985427379608
1772556216786906000,2.444906005859375,0.5046643614768982,0.09997893869876862,-0.13388821482658386
1772556216796898800,2.45489892578125,0.5471517443656921,0.1348402500152588,-0.0968344584107399
1772556216806891000,2.46489111328125,0.5912025570869446,0.17034417390823364,-0.04955882206559181
1772556216816883700,2.4748837890625,0.6360930800437927,0.2096654772758484,-0.004026074428111315
1772556216826876000,2.4848759765625,0.6784088611602783,0.24721020460128784,0.03934403881430626
1772556216836869000,2.494869140625,0.7174472808837891,0.2709065079689026,0.07527856528759003
1772556216846860800,2.50486083984375,0.7520995140075684,0.290683388710022,0.10563540458679199
1772556216856853000,2.51485302734375,0.7896145582199097,0.30932921171188354,0.1282702535390854
1772556216866846000,2.524845947265625,0.8180166482925415,0.31083551049232483,0.14272961020469666
1772556216876838000,2.534837890625,0.8460944294929504,0.3037155568599701,0.15483546257019043
1772556216886830800,2.544830810546875,0.8738866448402405,0.3021714389324188,0.1558264195919037
1772556216896823000,2.554822998046875,0.8976995348930359,0.3082333505153656,0.15988051891326904
1772556216906816000,2.56481591796875,0.9207135438919067,0.3116949498653412,0.1574823409318924
1772556216916808000,2.574807861328125,0.9438151717185974,0.3174161911010742,0.1562982052564621
1772556216926800100,2.584800048828125,0.9713506698608398,0.34073853492736816,0.15253329277038574
1772556216936792800,2.594792724609375,0.9991918206214905,0.37154439091682434,0.15167118608951569
1772556216946785000,2.604784912109375,1.0258668661117554,0.3962787687778473,0.14864769577980042
1772556216956777700,2.61477783203125,1.0470374822616577,0.41982802748680115,0.1373888999223709
1772556216966770000,2.62477001953125,1.0663257837295532,0.43761396408081055,0.13059331476688385
1772556216976763100,2.63476318359375,1.0839122533798218,0.45284751057624817,0.11401918530464172
1772556216986754800,2.6447548828125,1.1034791469573975,0.45137718319892883,0.09285344928503036
1772556216996746800,2.654746826171875,1.1120610237121582,0.4384227693080902,0.06876766681671143
1772556217006740000,2.664739990234375,1.1187381744384766,0.42366936802864075,0.03952935338020325
1772556217016732000,2.67473193359375,1.1236953735351562,0.40589383244514465,0.01676243171095848
1772556217026724900,2.684724853515625,1.1222673654556274,0.38282766938209534,-0.008117086254060268
1772556217036717000,2.694717041015625,1.118300437927246,0.3633732795715332,-0.031046584248542786
1772556217046709800,2.704709716796875,1.114951491355896,0.3386325240135193,-0.052221909165382385
1772556217056702000,2.714701904296875,1.1125681400299072,0.31956666707992554,-0.06002946197986603
1772556217066694000,2.72469384765625,1.117153525352478,0.30771881341934204,-0.06830603629350662
1772556217076686800,2.734686767578125,1.1210914850234985,0.3092040419578552,-0.0615445151925087
1772556217086679000,2.744678955078125,1.1285624504089355,0.3255175054073334,-0.05224235728383064
1772556217096671700,2.754671630859375,1.1332076787948608,0.3394237756729126,-0.04894627630710602
1772556217106664000,2.764663818359375,1.1428916454315186,0.35402774810791016,-0.041594620794057846
1772556217116657000,2.774656982421875,1.15288245677948,0.36176130175590515,-0.04403041675686836
1772556217126648800,2.78464892578125,1.164451003074646,0.3680135905742645,-0.04251587763428688
1772556217136640800,2.794640869140625,1.1776862144470215,0.3635064363479614,-0.04460129514336586
1772556217146634000,2.804634033203125,1.1958776712417603,0.35868504643440247,-0.0436827689409256
1772556217156626000,2.8146259765625,1.217363953590393,0.36835578083992004,-0.036194682121276855
1772556217166619000,2.824618896484375,1.2419848442077637,0.3856532871723175,-0.028209727257490158
1772556217176611000,2.834611083984375,1.2662618160247803,0.4056858420372009,-0.017860587686300278
1772556217186603800,2.844603759765625,1.2934221029281616,0.4250180125236511,-0.0007298049167729914
1772556217196596000,2.854595947265625,1.3202415704727173,0.4428398907184601,0.016483252868056297
1772556217206588000,2.864587890625,1.3522156476974487,0.4522959589958191,0.03719891607761383
1772556217216580900,2.874580810546875,1.378707766532898,0.4573192596435547,0.05918942764401436
1772556217226573000,2.884572998046875,1.411889672279358,0.4670853018760681,0.07917644828557968
1772556217236565800,2.894565673828125,1.4468719959259033,0.487943172454834,0.09985817223787308
1772556217246558000,2.904557861328125,1.483964443206787,0.5173963904380798,0.12070006877183914
1772556217256551000,2.914551025390625,1.5246084928512573,0.5491873621940613,0.13010136783123016
1772556217266542800,2.92454296875,1.5580335855484009,0.5637540221214294,0.12812156975269318
1772556217276534800,2.93453466796875,1.582568645477295,0.542405903339386,0.11122935265302658
1772556217286528000,2.944528076171875,1.5953867435455322,0.49054110050201416,0.07443272322416306
1772556217296520000,2.95452001953125,1.589501142501831,0.43953463435173035,0.02370535023510456
1772556217306513000,2.964512939453125,1.5829668045043945,0.3903180956840515,-0.030721139162778854
1772556217316504800,2.9745048828125,1.5806403160095215,0.3547433018684387,-0.07662077993154526
1772556217326497800,2.984497802734375,1.5980398654937744,0.33227503299713135,-0.10540208965539932
1772556217336490000,2.994489990234375,1.6236727237701416,0.32184234261512756,-0.10878832638263702
1772556217346482000,3.00448193359375,1.6569238901138306,0.3147764503955841,-0.09311641752719879
1772556217356475000,3.014474853515625,1.702121376991272,0.31004828214645386,-0.06321188062429428
1772556217366467000,3.024467041015625,1.7530505657196045,0.3008427917957306,-0.004095297306776047
1772556217376459800,3.034459716796875,1.8153069019317627,0.29611194133758545,0.0677160769701004
1772556217386452000,3.044451904296875,1.883121371269226,0.2827282249927521,0.1512189656496048
1772556217396444700,3.054444580078125,1.9494315385818481,0.26591357588768005,0.2403738796710968
1772556217406436900,3.064436767578125,2.007112979888916,0.25034207105636597,0.3253180682659149
1772556217416428800,3.0744287109375,2.0503270626068115,0.22181002795696259,0.4120582044124603
1772556217426421800,3.084421875,2.0818145275115967,0.1991787552833557,0.4852200448513031
1772556217436414000,3.0944140625,2.093285083770752,0.18801558017730713,0.5552472472190857
1772556217446407000,3.104406982421875,2.0873022079467773,0.18569330871105194,0.6008581519126892
1772556217456398800,3.11439892578125,2.070685863494873,0.19050590693950653,0.6361152529716492
1772556217466391800,3.124391845703125,2.037658214569092,0.19109712541103363,0.643290102481842
1772556217476384000,3.134384033203125,2.0005123615264893,0.18373961746692657,0.6337860226631165
1772556217486377000,3.144376953125,1.963794231414795,0.1680658608675003,0.6052630543708801
1772556217496369000,3.154368896484375,1.9245554208755493,0.15465310215950012,0.566209077835083
1772556217506361000,3.164361083984375,1.885764718055725,0.1411205232143402,0.516668438911438
1772556217516353800,3.174353759765625,1.841723084449768,0.1467301845550537,0.456377238035202
1772556217526346000,3.184345947265625,1.799279808998108,0.16682933270931244,0.3945141136646271
1772556217536338700,3.194338623046875,1.753195881843567,0.20051220059394836,0.32394906878471375
1772556217546331000,3.204330810546875,1.7097944021224976,0.2355221062898636,0.2412634938955307
1772556217556324000,3.214323974609375,1.6603343486785889,0.25449445843696594,0.16282042860984802
1772556217566315800,3.224315673828125,1.6138856410980225,0.2565288543701172,0.08059586584568024
1772556217576308000,3.234307861328125,1.56428062915802,0.24821606278419495,0.0029368374962359667
1772556217586301000,3.244301025390625,1.518545150756836,0.22890734672546387,-0.06454712897539139
1772556217596292900,3.25429296875,1.4731824398040771,0.21385890245437622,-0.11599291115999222
1772556217606285800,3.264285888671875,1.4393969774246216,0.20815706253051758,-0.15112054347991943
1772556217616278000,3.274278076171875,1.4071851968765259,0.2114039957523346,-0.1669127494096756
1772556217626271200,3.284271240234375,1.385722279548645,0.2201351672410965,-0.17210590839385986
1772556217636263400,3.294263427734375,1.3728381395339966,0.2422868013381958,-0.162444606423378
1772556217646256000,3.304256103515625,1.3623226881027222,0.264385461807251,-0.14840549230575562
1772556217656248300,3.314248291015625,1.358034610748291,0.2838699221611023,-0.13540008664131165
1772556217666240300,3.324240234375,1.3533120155334473,0.3101188540458679,-0.12119665741920471
1772556217676233200,3.334233154296875,1.3508154153823853,0.34495964646339417,-0.10853709280490875
1772556217686225200,3.34422509765625,1.341834545135498,0.3922472894191742,-0.09784742444753647
1772556217696218400,3.35421826171875,1.3249213695526123,0.4414933919906616,-0.08801471441984177
1772556217706210300,3.364210205078125,1.3022764921188354,0.4871002733707428,-0.08423781394958496
1772556217716203300,3.374203369140625,1.2661635875701904,0.5281475782394409,-0.08949324488639832
1772556217726195500,3.384195556640625,1.2281183004379272,0.5526276230812073,-0.09575380384922028
1772556217736187100,3.394187255859375,1.1877094507217407,0.5652827024459839,-0.1030183658003807
1772556217746180400,3.404180419921875,1.1534124612808228,0.5601574778556824,-0.11180893331766129
1772556217756172300,3.41417236328125,1.1213271617889404,0.5585100054740906,-0.1072244793176651
1772556217766165200,3.424165283203125,1.0913304090499878,0.5527805089950562,-0.10107870399951935
1772556217776157400,3.434157470703125,1.068419337272644,0.5453438758850098,-0.08594037592411041
1772556217786150100,3.444150146484375,1.0551098585128784,0.5440778136253357,-0.06466065347194672
1772556217796142300,3.454142333984375,1.0509417057037354,0.5580152273178101,-0.043844178318977356
1772556217806135300,3.46413525390625,1.0607067346572876,0.5750144124031067,-0.01734599471092224
1772556217816127200,3.474127197265625,1.0782021284103394,0.6027560234069824,0.0015841281274333596
1772556217826119200,3.484119140625,1.099226474761963,0.6319054365158081,0.02277037315070629
1772556217836112400,3.4941123046875,1.1065396070480347,0.6655192971229553,0.025639338418841362
1772556217846104300,3.504104248046875,1.1122504472732544,0.6947996616363525,0.014128356240689754
1772556217856097300,3.51409716796875,1.1109951734542847,0.7166770100593567,-0.011905569583177567
1772556217866089500,3.52408935546875,1.118390679359436,0.7274766564369202,-0.04333939030766487
1772556217876082200,3.534082275390625,1.1255505084991455,0.723901629447937,-0.08209644258022308
1772556217886074400,3.544074462890625,1.1363946199417114,0.7111919522285461,-0.1238713189959526
1772556217896067300,3.5540673828125,1.1430400609970093,0.683703601360321,-0.15751469135284424
1772556217906059300,3.564059326171875,1.142619252204895,0.658367931842804,-0.19215895235538483
1772556217916051500,3.574051513671875,1.136749505996704,0.6371361017227173,-0.22488205134868622
1772556217926044200,3.584044189453125,1.1314740180969238,0.617200493812561,-0.2582698464393616
1772556217936036400,3.594036376953125,1.1304864883422852,0.6101910471916199,-0.29028940200805664
1772556217946029300,3.604029296875,1.1215505599975586,0.5972499847412109,-0.33063894510269165
1772556217956021200,3.614021240234375,1.1112273931503296,0.565423846244812,-0.37790751457214355
1772556217966014500,3.624014404296875,1.0962132215499878,0.5126178860664368,-0.4282556474208832
1772556217976006100,3.634006103515625,1.0964137315750122,0.45279744267463684,-0.4689165949821472
1772556217985999400,3.643999267578125,1.1081191301345825,0.42587873339653015,-0.4968515634536743
1772556217995991300,3.6539912109375,1.1301745176315308,0.4327220022678375,-0.5043554902076721
1772556218005983200,3.663983154296875,1.1588366031646729,0.46744242310523987,-0.5029242634773254
1772556218015976200,3.67397607421875,1.196272611618042,0.5142168998718262,-0.4981878697872162
1772556218025968400,3.683968505859375,1.2387210130691528,0.5586616396903992,-0.49417874217033386
1772556218035961000,3.693961181640625,1.2891005277633667,0.5900717377662659,-0.49315160512924194
1772556218045953300,3.703953369140625,1.3459442853927612,0.6081077456474304,-0.4958845376968384
1772556218055946200,3.7139462890625,1.4039634466171265,0.6085119247436523,-0.491497665643692
1772556218065938200,3.723938232421875,1.4642555713653564,0.6050700545310974,-0.47404012084007263
1772556218075931400,3.733931396484375,1.5301364660263062,0.6077731847763062,-0.4435480237007141
1772556218085923000,3.743923095703125,1.593595027923584,0.612043023109436,-0.39496666193008423
1772556218095915300,3.753915283203125,1.64754319190979,0.6080032587051392,-0.33757418394088745
1772556218105908200,3.763908203125,1.6996474266052246,0.5882990956306458,-0.2659361958503723
1772556218115900200,3.773900146484375,1.7375768423080444,0.558547854423523,-0.19168303906917572
1772556218125893400,3.783893310546875,1.7705910205841064,0.528519868850708,-0.11502182483673096
1772556218135885300,3.79388525390625,1.7913281917572021,0.4939363896846771,-0.047067075967788696
1772556218145878300,3.803878173828125,1.8025230169296265,0.4547162652015686,0.005320762749761343
1772556218155870200,3.8138701171875,1.8083019256591797,0.4168250858783722,0.04833744838833809
1772556218165863200,3.82386328125,1.8093286752700806,0.38419896364212036,0.0756542906165123
1772556218175855000,3.833855224609375,1.800002098083496,0.3659517765045166,0.08654683083295822
1772556218185847300,3.843847412109375,1.784141182899475,0.3581883907318115,0.0878286063671112
1772556218195840300,3.85384033203125,1.753044843673706,0.3664809465408325,0.0765504315495491
1772556218205832200,3.863832275390625,1.7138737440109253,0.3736669719219208,0.053801439702510834
1772556218215825400,3.873825439453125,1.6706633567810059,0.36685410141944885,0.02825348637998104
1772556218225817000,3.883817138671875,1.6198960542678833,0.3473227322101593,0.0015110888052731752
1772556218235810300,3.893810302734375,1.5649839639663696,0.3130981922149658,-0.02477734349668026
1772556218245802200,3.90380224609375,1.504883885383606,0.26293063163757324,-0.043345432728528976
1772556218255795200,3.913795166015625,1.4541181325912476,0.22174403071403503,-0.05464442819356918
1772556218265787400,3.923787353515625,1.4148578643798828,0.20744816958904266,-0.05516800656914711
1772556218275779300,3.933779296875,1.3849836587905884,0.220841184258461,-0.04207180067896843
1772556218285772300,3.943772216796875,1.3623281717300415,0.2505798935890198,-0.019731072708964348
1772556218295764200,3.95376416015625,1.346314549446106,0.2911100387573242,0.007408148609101772
1772556218305757200,3.963757080078125,1.3349531888961792,0.331438273191452,0.026300080120563507
1772556218315749000,3.9737490234375,1.316878318786621,0.3689233362674713,0.037331901490688324
1772556218325742300,3.983742431640625,1.2980040311813354,0.38220053911209106,0.035446647554636
1772556218335734300,3.993734375,1.279159426689148,0.3787895441055298,0.02427263744175434
1772556218345727200,4.003727294921875,1.2656193971633911,0.36032745242118835,0.009565595537424088
1772556218355719400,4.013719482421875,1.2571192979812622,0.34894484281539917,-0.0015236015897244215
1772556218365711000,4.023711181640625,1.247221827507019,0.33797475695610046,-0.008133834227919579
1772556218375704300,4.033704345703125,1.2341210842132568,0.3271596431732178,-0.012392780743539333
1772556218385696300,4.0436962890625,1.2150115966796875,0.30296191573143005,-0.013483078218996525
1772556218395689200,4.053689208984375,1.1889890432357788,0.29045888781547546,-0.009967892430722713
1772556218405681400,4.063681396484375,1.167014241218567,0.2798722982406616,-0.007763061672449112
1772556218415674000,4.073674072265625,1.1491875648498535,0.2795737683773041,-0.004582141060382128
1772556218425666300,4.083666259765625,1.13285493850708,0.28098976612091064,-0.002661469392478466
1772556218435659300,4.0936591796875,1.113210916519165,0.28403565287590027,-0.0049495757557451725
1772556218445651200,4.103651123046875,1.0912851095199585,0.28128939867019653,-0.01202479563653469
1772556218455644400,4.11364453125,1.0731947422027588,0.281027615070343,-0.012123066931962967
1772556218465636400,4.12363623046875,1.0550588369369507,0.2739153802394867,-0.017048316076397896
1772556218475628300,4.133628173828125,1.037634015083313,0.2613326907157898,-0.01404863316565752
1772556218485621200,4.143621337890625,1.0224100351333618,0.24994155764579773,-0.0012169911060482264
1772556218495613400,4.153613525390625,0.9984857439994812,0.24334277212619781,0.01819223165512085
1772556218505606100,4.163606201171875,0.973379909992218,0.23909582197666168,0.03762505576014519
1772556218515598300,4.173598388671875,0.9366962909698486,0.24961669743061066,0.054426562041044235
1772556218525591300,4.18359130859375,0.8957597613334656,0.26635944843292236,0.06728590279817581
1772556218535583200,4.193583251953125,0.8509733080863953,0.2713658809661865,0.0654972493648529
1772556218545576400,4.203576416015625,0.801466166973114,0.26563236117362976,0.061513688415288925
1772556218555568000,4.213568115234375,0.7528247237205505,0.26236817240715027,0.047939471900463104
1772556218565560300,4.223560302734375,0.7182912826538086,0.2536202073097229,0.04485473036766052
1772556218575553300,4.23355322265625,0.6862396597862244,0.2402830719947815,0.0347292535007
1772556218585545200,4.243545166015625,0.6607087254524231,0.22329503297805786,0.03226582705974579
1772556218595538400,4.253538330078125,0.637175440788269,0.1944175809621811,0.032672759145498276
1772556218605530400,4.2635302734375,0.610515832901001,0.16154885292053223,0.02360815741121769
1772556218615523300,4.2735234375,0.5853127837181091,0.15258732438087463,0.011376687325537205
1772556218625515500,4.283515625,0.5500868558883667,0.16242077946662903,-0.007394603453576565
1772556218635508500,4.293508544921875,0.505100429058075,0.17736856639385223,-0.04724489524960518
1772556218645500400,4.30350048828125,0.4490920305252075,0.17630010843276978,-0.11573154479265213
1772556218655493400,4.313493408203125,0.38323861360549927,0.16478142142295837,-0.20287004113197327
1772556218665485300,4.3234853515625,0.3290185034275055,0.16615428030490875,-0.2995196282863617
1772556218675477500,4.3334775390625,0.3055858910083771,0.213331401348114,-0.3782588243484497
1772556218685470500,4.343470458984375,0.3203592598438263,0.30568021535873413,-0.42773398756980896
1772556218695462400,4.35346240234375,0.3683263063430786,0.41459256410598755,-0.4422031342983246
1772556218705455600,4.36345556640625,0.4424399435520172,0.5089646577835083,-0.43581128120422363
1772556218715447600,4.373447509765625,0.5314069390296936,0.5544077157974243,-0.4082699120044708
1772556218725440500,4.3834404296875,0.6157386302947998,0.5293141007423401,-0.3666955828666687
1772556218735432400,4.393432373046875,0.6834176778793335,0.4495324194431305,-0.31860965490341187
1772556218745425400,4.40342529296875,0.7221333980560303,0.3320111334323883,-0.27178195118904114
1772556218755417300,4.413417236328125,0.7270395159721375,0.20013274252414703,-0.22410640120506287
1772556218765410300,4.423410400390625,0.7090086340904236,0.07853041589260101,-0.18123456835746765
1772556218775402500,4.433402587890625,0.6706617474555969,-0.009957917965948582,-0.13687358796596527
1772556218785395500,4.4433955078125,0.6210073232650757,-0.06997651606798172,-0.10003034770488739
1772556218795387400,4.453387451171875,0.5680638551712036,-0.11697946488857269,-0.06713411211967468
1772556218805379300,4.46337939453125,0.5306227207183838,-0.15423601865768433,-0.0513751246035099
1772556218815372500,4.47337255859375,0.5195790529251099,-0.17709818482398987,-0.043533843010663986
1772556218825364200,4.4833642578125,0.5294458270072937,-0.19029121100902557,-0.03635502606630325
1772556218835357400,4.493357421875,0.5497894287109375,-0.19927909970283508,-0.02619924582540989
1772556218845349600,4.503349609375,0.572384238243103,-0.19400525093078613,-0.014016348868608475
1772556218855342300,4.51334228515625,0.599918782711029,-0.16386757791042328,0.005288680549710989
1772556218865334500,4.52333447265625,0.6232065558433533,-0.09664220362901688,0.03219619393348694
1772556218875327200,4.5333271484375,0.6338901519775391,-0.0015827417373657227,0.06406659632921219
1772556218885319400,4.5433193359375,0.6269209384918213,0.10200995951890945,0.09408414363861084
1772556218895312600,4.553312744140625,0.6128493547439575,0.19966773688793182,0.12146728485822678
1772556218905304300,4.56330419921875,0.5943291783332825,0.2870766818523407,0.14955031871795654
1772556218915296500,4.573296630859375,0.5816484689712524,0.3571639060974121,0.17134059965610504
1772556218925289500,4.58328955078125,0.5722051858901978,0.4042414128780365,0.19755515456199646
1772556218935281400,4.593281494140625,0.5599663853645325,0.4170696437358856,0.21261797845363617
1772556218945274400,4.6032744140625,0.5394089221954346,0.40617385506629944,0.21946710348129272
1772556218955266600,4.6132666015625,0.5194440484046936,0.3642998933792114,0.22075006365776062
1772556218965259500,4.623259521484375,0.4981241226196289,0.2906743884086609,0.2097512036561966
1772556218975251500,4.63325146484375,0.4776529371738434,0.21678867936134338,0.20382417738437653
1772556218985244400,4.643244384765625,0.4608395993709564,0.15797249972820282,0.18892592191696167
1772556218995236400,4.653236328125,0.44833484292030334,0.1291150450706482,0.1731305867433548
1772556219005229600,4.6632294921875,0.44118213653564453,0.12600181996822357,0.15175364911556244
1772556219015221200,4.67322119140625,0.4364987015724182,0.11811938881874084,0.12060078978538513
1772556219025213400,4.68321337890625,0.42972707748413086,0.09922346472740173,0.071989044547081
1772556219035206400,4.693206298828125,0.4295731484889984,0.06661276519298553,0.018268128857016563
1772556219045198300,4.7031982421875,0.42120975255966187,0.021227706223726273,-0.04798998683691025
1772556219055191600,4.713191650390625,0.4037937521934509,-0.01853431575000286,-0.11137697100639343
1772556219065183500,4.72318359375,0.3820096254348755,-0.03524352237582207,-0.16202203929424286
1772556219075176400,4.733176513671875,0.3618389368057251,-0.025049230083823204,-0.2024761289358139
1772556219085168400,4.74316845703125,0.354078471660614,-0.009733390994369984,-0.217728853225708
1772556219095161300,4.753161376953125,0.34771183133125305,0.01597089320421219,-0.2189183235168457
1772556219105153300,4.7631533203125,0.34709665179252625,0.043081339448690414,-0.2014160305261612
1772556219115146500,4.773146484375,0.3499588370323181,0.05872026085853577,-0.16953186690807343
1772556219125138400,4.783138427734375,0.34968292713165283,0.06944215297698975,-0.13047954440116882
1772556219135131400,4.79313134765625,0.3423829972743988,0.08771644532680511,-0.09548643976449966
1772556219145123600,4.80312353515625,0.32342928647994995,0.10828830301761627,-0.06745640188455582
1772556219155115300,4.813115234375,0.3041137158870697,0.13321605324745178,-0.04121476039290428
1772556219165108500,4.8231083984375,0.28153276443481445,0.1505899876356125,-0.02989499643445015
1772556219175100400,4.833100341796875,0.2660072147846222,0.1494072675704956,-0.029711462557315826
1772556219185093400,4.84309326171875,0.2615160644054413,0.12415358424186707,-0.03160017356276512
1772556219195085600,4.85308544921875,0.26631060242652893,0.08256040513515472,-0.03775571286678314
1772556219205078300,4.863078369140625,0.2776532769203186,0.04942801967263222,-0.04784137010574341
1772556219215070500,4.873070556640625,0.28395330905914307,0.027598287910223007,-0.056619200855493546
1772556219225063400,4.8830634765625,0.2821181118488312,0.01059240847826004,-0.062452059239149094
1772556219235055400,4.893055419921875,0.2790132164955139,-0.002616549376398325,-0.07378832995891571
1772556219245048600,4.903048583984375,0.2670779824256897,-0.011921633966267109,-0.0793900191783905
1772556219255040500,4.91304052734375,0.25847604870796204,-0.010089144110679626,-0.09240024536848068
1772556219265032400,4.923032470703125,0.24370375275611877,-0.0002775266766548157,-0.09996548295021057
1772556219275025400,4.933025390625,0.2296438068151474,0.003650615457445383,-0.11019159853458405
1772556219285017600,4.943017578125,0.22280481457710266,0.00501628452911973,-0.12543898820877075
1772556219295010300,4.95301025390625,0.22576570510864258,-0.003441130043938756,-0.14409583806991577
1772556219305002500,4.96300244140625,0.23080973327159882,-0.017690906301140785,-0.15965935587882996
1772556219314995500,4.972995361328125,0.23320958018302917,-0.037656575441360474,-0.1736161857843399
1772556219324987400,4.9829873046875,0.2382378876209259,-0.07305984199047089,-0.18130633234977722
1772556219334980600,4.992980712890625,0.24001169204711914,-0.10703432559967041,-0.1857256144285202
1772556219344972300,5.00297216796875,0.2417062520980835,-0.1084684357047081,-0.18158067762851715
1772556219354965500,5.012965576171875,0.2311655879020691,-0.05582255870103836,-0.17707553505897522
1772556219364957400,5.02295751953125,0.21952837705612183,0.029047321528196335,-0.1751018762588501
1772556219374950400,5.032950439453125,0.1924273818731308,0.12017696350812912,-0.18463921546936035
1772556219384942600,5.042942626953125,0.16243672370910645,0.17774492502212524,-0.20100300014019012
1772556219394935300,5.052935302734375,0.12951606512069702,0.20382343232631683,-0.23269809782505035
1772556219404927500,5.062927490234375,0.10953650623559952,0.14581073820590973,-0.24953113496303558
1772556219414919400,5.07291943359375,0.11461196094751358,0.09524397552013397,-0.22130689024925232
1772556219424912400,5.082912353515625,0.14172880351543427,0.05413889139890671,-0.1610794961452484
1772556219434904300,5.092904296875,0.16987593472003937,0.03427305445075035,-0.0807076245546341
1772556219444897500,5.1028974609375,0.19849826395511627,0.0546070896089077,-0.0004796310677193105
1772556219454889500,5.112889404296875,0.22108952701091766,0.13223981857299805,0.05493824928998947
1772556219464882400,5.12288232421875,0.24615387618541718,0.21665829420089722,0.07835409045219421
1772556219474874600,5.13287451171875,0.27104687690734863,0.26723992824554443,0.06488408148288727
1772556219484867300,5.142867431640625,0.292123407125473,0.2681523263454437,0.027858952060341835
1772556219494859500,5.152859619140625,0.3033802807331085,0.26452139019966125,-0.02374017983675003
1772556219504852500,5.1628525390625,0.3291833698749542,0.32908254861831665,-0.06002947688102722
1772556219514844400,5.172844482421875,0.38306283950805664,0.48309844732284546,-0.08006274700164795
1772556219524837400,5.18283740234375,0.463388055562973,0.6157179474830627,-0.08404603600502014
1772556219534829300,5.192829345703125,0.5303950905799866,0.6181753277778625,-0.09315438568592072
1772556219544822500,5.202822509765625,0.5352838635444641,0.49773651361465454,-0.11883711069822311
1772556219554814500,5.212814453125,0.4766457974910736,0.3226531445980072,-0.14535556733608246
1772556219564806400,5.222806396484375,0.395136296749115,0.15211255848407745,-0.16778762638568878
1772556219574799600,5.232799560546875,0.32762354612350464,0.013350391760468483,-0.15569111704826355
1772556219584791300,5.242791259765625,0.2826448976993561,-0.11997810006141663,-0.11517776548862457
1772556219594784500,5.252784423828125,0.25323835015296936,-0.2422192394733429,-0.05083650350570679
1772556219604776400,5.2627763671875,0.2370292842388153,-0.30082929134368896,0.03972109407186508
1772556219614769400,5.272769287109375,0.23963451385498047,-0.29750916361808777,0.13615642488002777
1772556219624761300,5.28276123046875,0.26344984769821167,-0.2730613350868225,0.22295764088630676
1772556219634753500,5.29275341796875,0.2996232807636261,-0.2558954656124115,0.29381051659584045
1772556219644745500,5.302745361328125,0.33768197894096375,-0.27571019530296326,0.33222129940986633
1772556219654738400,5.312738525390625,0.37014040350914,-0.3239780366420746,0.3471100330352783
1772556219664730600,5.322730712890625,0.4053684175014496,-0.37280920147895813,0.3583131730556488
1772556219674723600,5.3327236328125,0.44543394446372986,-0.3640948534011841,0.3807215094566345
1772556219684715500,5.342715576171875,0.496080607175827,-0.30742597579956055,0.40315625071525574
1772556219694708500,5.35270849609375,0.5464943051338196,-0.21173249185085297,0.41759493947029114
1772556219704700400,5.362700439453125,0.5944104194641113,-0.11401285976171494,0.4162876009941101
1772556219714693600,5.372693603515625,0.6313534379005432,-0.020381484180688858,0.3972540497779846
1772556219724685300,5.382685302734375,0.6639342308044434,0.053779032081365585,0.3659965395927429
1772556219734677500,5.392677490234375,0.6854261755943298,0.07897737622261047,0.3227187693119049
1772556219744670700,5.402670654296875,0.6985917687416077,0.07346703112125397,0.27687034010887146
1772556219754662400,5.412662353515625,0.6996089220046997,0.05486401915550232,0.23306411504745483
1772556219764655600,5.422655517578125,0.685020387172699,0.02393513172864914,0.20154906809329987
1772556219774647600,5.4326474609375,0.6548795700073242,-0.0030231880955398083,0.17389453947544098
1772556219784640500,5.442640625,0.6267033219337463,-0.015619141049683094,0.1549331098794937
1772556219794632400,5.452632568359375,0.5928300619125366,0.0012186737731099129,0.13201624155044556
1772556219804625400,5.46262548828125,0.5719138979911804,0.03271108493208885,0.10946274548768997
1772556219814617600,5.47261767578125,0.5596684813499451,0.05880524218082428,0.08287492394447327
1772556219824610600,5.482610595703125,0.553636908531189,0.07278284430503845,0.05503876507282257
1772556219834602500,5.4926025390625,0.5582525134086609,0.08707600831985474,0.033241260796785355
1772556219844595500,5.502595458984375,0.5641732811927795,0.11778651922941208,0.019050873816013336
1772556219854587600,5.512587646484375,0.5791299939155579,0.1639479547739029,0.018894599750638008
1772556219864580600,5.52258056640625,0.5888161659240723,0.21070773899555206,0.019673839211463928
1772556219874572500,5.532572509765625,0.5949310660362244,0.22417528927326202,0.014504368416965008
1772556219884565500,5.5425654296875,0.5984203219413757,0.20211711525917053,0.004323370289057493
1772556219894557400,5.552557373046875,0.5976536273956299,0.1671341508626938,-0.003899481613188982
1772556219904549600,5.562549560546875,0.5879480242729187,0.1433103084564209,-0.01788746938109398
1772556219914542300,5.572542236328125,0.5681969523429871,0.1274051070213318,-0.034765515476465225
1772556219924534500,5.582534423828125,0.5423626899719238,0.108158178627491,-0.05772063508629799
1772556219934527700,5.59252783203125,0.5168685913085938,0.09493501484394073,-0.0865313932299614
1772556219944519400,5.60251953125,0.4902404248714447,0.06683813035488129,-0.10899356007575989
1772556219954512600,5.6125126953125,0.46699854731559753,0.045771509408950806,-0.12565995752811432
1772556219964504600,5.622504638671875,0.43581560254096985,0.029449796304106712,-0.13739997148513794
1772556219974497500,5.63249755859375,0.39639243483543396,0.030762454494833946,-0.15120583772659302
1772556219984489500,5.642489501953125,0.35282260179519653,0.06829598546028137,-0.16890974342823029
1772556219994482400,5.652482421875,0.31090083718299866,0.13487686216831207,-0.19691824913024902
1772556220004474400,5.662474365234375,0.2852013409137726,0.18894542753696442,-0.23121283948421478
1772556220014467600,5.672467529296875,0.2802332639694214,0.2384064793586731,-0.2652282118797302
1772556220024459500,5.68245947265625,0.30449599027633667,0.28340110182762146,-0.28663283586502075
1772556220034452500,5.692452392578125,0.3478187918663025,0.3495985269546509,-0.29782262444496155
1772556220044444700,5.702444580078125,0.40132755041122437,0.42585068941116333,-0.29795846343040466
1772556220054437600,5.712437744140625,0.4520379900932312,0.5000208020210266,-0.2966909110546112
1772556220064429600,5.7224296875,0.49384960532188416,0.5502935647964478,-0.29519474506378174
1772556220074422500,5.732422607421875,0.506705105304718,0.540057361125946,-0.30764418840408325
1772556220084414500,5.74241455078125,0.4894512891769409,0.4746094048023224,-0.3157804310321808
1772556220094407700,5.75240771484375,0.4547010362148285,0.3824078440666199,-0.3101310729980469
1772556220104399400,5.7623994140625,0.4117186665534973,0.2987409234046936,-0.2868334650993347
1772556220114391600,5.7723916015625,0.36390620470046997,0.21319963037967682,-0.24839290976524353
1772556220124384500,5.782384521484375,0.3205624520778656,0.13166402280330658,-0.20419855415821075
1772556220134376400,5.79237646484375,0.2865275740623474,0.06749198585748672,-0.16249626874923706
1772556220144369700,5.80236962890625,0.2731148302555084,0.016454368829727173,-0.1216425821185112
1772556220154361600,5.812361572265625,0.26917150616645813,-0.017431672662496567,-0.09436427056789398
1772556220164354600,5.8223544921875,0.27310898900032043,-0.035834647715091705,-0.08754923939704895
1772556220174346500,5.832346435546875,0.2765447199344635,-0.027774877846240997,-0.09762805700302124
1772556220184339500,5.84233935546875,0.27271831035614014,-0.007987059652805328,-0.1176781952381134
1772556220194331400,5.852331298828125,0.2663789689540863,0.018966779112815857,-0.14149704575538635
1772556220204324600,5.86232470703125,0.26086968183517456,0.05389759689569473,-0.1621762365102768
1772556220214316500,5.872316650390625,0.26158756017684937,0.09694311767816544,-0.17697572708129883
1772556220224309500,5.8823095703125,0.26915600895881653,0.13263027369976044,-0.18840788304805756
1772556220234301400,5.892301513671875,0.2746889889240265,0.13572166860103607,-0.19762320816516876
1772556220244294400,5.90229443359375,0.2715182304382324,0.11706250160932541,-0.197903111577034
1772556220254286600,5.91228662109375,0.25958898663520813,0.07939312607049942,-0.19253697991371155
1772556220264279600,5.922279541015625,0.24801994860172272,0.034768134355545044,-0.171844482421875
1772556220274271500,5.932271484375,0.23303747177124023,0.01461925357580185,-0.13509422540664673
1772556220284264400,5.942264404296875,0.21194016933441162,0.005170356947928667,-0.08808756619691849
1772556220294256400,5.95225634765625,0.1825624406337738,-0.008418234996497631,-0.040956832468509674
1772556220304249600,5.96224951171875,0.1565372347831726,-0.02787928469479084,0.006620271131396294
1772556220314241500,5.972241455078125,0.13260041177272797,-0.05997996777296066,0.05252702161669731
1772556220324234500,5.982234375,0.10212745517492294,-0.09515473246574402,0.08078981935977936
1772556220334226700,5.992226806640625,0.07134617120027542,-0.1376928836107254,0.09681958705186844
1772556220344219400,6.002219482421875,0.048631008714437485,-0.1789625585079193,0.09876582026481628
1772556220354211600,6.012211669921875,0.027674730867147446,-0.2200409322977066,0.0924164354801178
1772556220364203500,6.02220361328125,0.003610141109675169,-0.2534947395324707,0.07798396795988083
1772556220374196500,6.032196533203125,-0.019156623631715775,-0.27419793605804443,0.06604353338479996
1772556220384188400,6.0421884765625,-0.03755081444978714,-0.2871409058570862,0.0666976049542427
1772556220394181400,6.052181396484375,-0.050689779222011566,-0.2803575098514557,0.08347968757152557
1772556220404173600,6.062173583984375,-0.05680413171648979,-0.25019749999046326,0.11160879582166672
1772556220414166500,6.07216650390625,-0.05426480621099472,-0.19564764201641083,0.14312320947647095
1772556220424158500,6.082158447265625,-0.03431107476353645,-0.1252640187740326,0.17666520178318024
1772556220434151400,6.0921513671875,-0.012233937159180641,-0.06003877520561218,0.20832931995391846
1772556220444143600,6.1021435546875,0.020052894949913025,-0.013909097760915756,0.23912371695041656
1772556220454136600,6.112136474609375,0.05330299586057663,0.02259330078959465,0.2620587646961212
1772556220464128500,6.12212841796875,0.06536631286144257,-0.05197787284851074,0.26562580466270447
1772556220474121500,6.13212158203125,0.02113906666636467,-0.24510131776332855,0.2340540885925293
1772556220484113400,6.142113525390625,-0.07909166067838669,-0.4291340112686157,0.1797061711549759
1772556220494106600,6.152106689453125,-0.18179427087306976,-0.459638386964798,0.13563033938407898
1772556220504098300,6.162098388671875,-0.22916045784950256,-0.37450456619262695,0.12061543017625809
1772556220514091500,6.172091552734375,-0.22955073416233063,-0.26417991518974304,0.10910902172327042
1772556220524083700,6.182083740234375,-0.22481857240200043,-0.20291469991207123,0.08846978843212128
1772556220534076400,6.192076416015625,-0.22238171100616455,-0.16375714540481567,0.06608150154352188
1772556220544068600,6.202068603515625,-0.22106212377548218,-0.08831378817558289,0.04983009770512581
1772556220554061300,6.212061279296875,-0.20442740619182587,0.03466908633708954,0.04625651240348816
1772556220564053500,6.222053466796875,-0.16426721215248108,0.17134037613868713,0.043405335396528244
1772556220574046700,6.232046630859375,-0.12202561646699905,0.2776287794113159,0.024327997118234634
1772556220584038400,6.242038330078125,-0.0829399973154068,0.3496220111846924,-0.009799613617360592
1772556220594031600,6.252031494140625,-0.05324941128492355,0.37866780161857605,-0.05300760269165039
1772556220604023600,6.2620234375,-0.027682801708579063,0.3653607666492462,-0.08952646702528
1772556220614016500,6.2720166015625,-0.00473640626296401,0.3295430541038513,-0.10437214374542236
1772556220624008400,6.282008544921875,0.012455630116164684,0.2737378478050232,-0.10067221522331238
1772556220634001000,6.2920009765625,0.028726277872920036,0.20248807966709137,-0.08118052035570145
1772556220643993900,6.301993896484375,0.05153758451342583,0.12110506743192673,-0.049340829253196716
1772556220653985800,6.31198583984375,0.0788307934999466,0.05133097246289253,-0.005847394932061434
1772556220663978800,6.321978759765625,0.12244511395692825,0.0032790256664156914,0.04637373238801956
1772556220673970700,6.331970703125,0.17124654352664948,-0.016585538163781166,0.11117254197597504
1772556220683963600,6.341963623046875,0.21387682855129242,-0.02227724716067314,0.1717701107263565
1772556220693955600,6.35195556640625,0.24827954173088074,-0.028029408305883408,0.2314150631427765
1772556220703948800,6.36194873046875,0.2686474025249481,-0.02635294757783413,0.28254616260528564
1772556220713940700,6.371940673828125,0.2737385630607605,-0.011694828048348427,0.3099500834941864
1772556220723933700,6.38193359375,0.2689688503742218,0.0013245679438114166,0.3177371621131897
1772556220733926000,6.39192578125,0.26013460755348206,0.0005958979018032551,0.2958647906780243
1772556220743918600,6.401918701171875,0.23985569179058075,-0.013100739568471909,0.25394105911254883
1772556220753910800,6.411910888671875,0.21197639405727386,-0.02320929989218712,0.2094241976737976
1772556220763903700,6.42190380859375,0.19125939905643463,-0.024079354479908943,0.16417814791202545
1772556220773895700,6.431895751953125,0.1662059724330902,-0.023843690752983093,0.1275303065776825
1772556220783889000,6.441888916015625,0.1417246013879776,-0.02341039478778839,0.09191744774580002
1772556220793880600,6.451880615234375,0.12602393329143524,-0.022463181987404823,0.06393002718687057
1772556220803873800,6.461873779296875,0.11720408499240875,-0.026886427775025368,0.04042629897594452
1772556220813865700,6.47186572265625,0.1093645989894867,-0.02381734549999237,0.029465457424521446
1772556220823858700,6.481858642578125,0.10612432658672333,-0.00919685885310173,0.025364188477396965
1772556220833851000,6.491850830078125,0.10881192982196808,0.03338173031806946,0.030983882024884224
1772556220843843600,6.501843505859375,0.1260359138250351,0.0957108810544014,0.04815967381000519
1772556220853835800,6.511835693359375,0.15782754123210907,0.1688317358493805,0.06448923796415329
1772556220863828700,6.521828857421875,0.19403481483459473,0.23078031837940216,0.07226274162530899
1772556220873820700,6.531820556640625,0.23373381793498993,0.2672288417816162,0.07118933647871017
1772556220883814000,6.54181396484375,0.26153162121772766,0.26720407605171204,0.06673147529363632
1772556220893805800,6.551805908203125,0.27838483452796936,0.24764785170555115,0.056752316653728485
1772556220903798800,6.561798828125,0.2855373024940491,0.21572425961494446,0.05300072208046913
1772556220913790700,6.571790771484375,0.2834356725215912,0.1729966700077057,0.04651135206222534
1772556220923783700,6.58178369140625,0.2760520577430725,0.13603678345680237,0.02982558123767376
1772556220933775600,6.591775634765625,0.267348051071167,0.10969968885183334,0.008971611969172955
1772556220943768800,6.601768798828125,0.26075297594070435,0.08746575564146042,-0.011374672874808311
1772556220953760800,6.6117607421875,0.2455013394355774,0.07149454206228256,-0.03161913901567459
1772556220963753700,6.621753662109375,0.22676093876361847,0.07158163189888,-0.052699919790029526
1772556220973746000,6.631745849609375,0.20250871777534485,0.08375119417905807,-0.07408008724451065
1772556220983737600,6.641737548828125,0.17930114269256592,0.14332345128059387,-0.04208141192793846
1772556220993730800,6.651730712890625,0.1527819186449051,0.18379338085651398,0.009560479782521725
1772556221003722800,6.66172265625,0.13923414051532745,0.18256458640098572,0.03333744779229164
1772556221013715700,6.6717158203125,0.14167246222496033,0.15351970493793488,0.025542618706822395
1772556221023708000,6.6817080078125,0.14353828132152557,0.09245980530977249,-0.01582879014313221
1772556221033700600,6.69170068359375,0.12774227559566498,0.061982300132513046,-0.08158605545759201
1772556221043692800,6.70169287109375,0.09727545082569122,0.0768938660621643,-0.16200792789459229
1772556221053685800,6.711685791015625,0.07086135447025299,0.11169181764125824,-0.2522754371166229
1772556221063677700,6.721677734375,0.05933811888098717,0.1561192125082016,-0.35232242941856384
1772556221073671000,6.7316708984375,0.05737503618001938,0.19170458614826202,-0.43395158648490906
1772556221083662800,6.741662841796875,0.05640298128128052,0.234534353017807,-0.4872334599494934
1772556221093655800,6.75165576171875,0.05577866733074188,0.27491647005081177,-0.5057544708251953
1772556221103647700,6.761647705078125,0.061094604432582855,0.3092060089111328,-0.4856281280517578
1772556221113640700,6.771640625,0.08358053863048553,0.34272685647010803,-0.4300854802131653
1772556221123632600,6.781632568359375,0.10499155521392822,0.36299246549606323,-0.3506031632423401
