time,seconds_elapsed,z,y,x
1772721297301908000,0.084907958984375,0,0,0
1772721297320504800,0.1035048828125,0.05179882049560547,0.002907991409301758,0.031131014227867126
1772721297339101700,0.122101806640625,0.06319618225097656,-0.05430819094181061,0.04551059007644653
1772721297357698600,0.140698486328125,-0.06911373138427734,-0.05847105383872986,0.0995040237903595
1772721297376295200,0.159295166015625,-0.23270225524902344,-0.03978109359741211,0.10555446147918701
1772721297394892000,0.17789208984375,-0.19846248626708984,-0.027100414037704468,0.07087984681129456
1772721297413489000,0.196489013671875,-0.03162956237792969,-0.0869489312171936,0.04606509208679199
1772721297432085800,0.215085693359375,0.01709461212158203,-0.005036965012550354,0.05094611644744873
1772721297450682600,0.2336826171875,0.07539939880371094,0.0018601417541503906,0.028810709714889526
1772721297469279500,0.252279541015625,0.04713153839111328,-0.02702297270298004,0.01780259609222412
1772721297487876000,0.2708759765625,-0.10852432250976562,-0.055870912969112396,0.01300320029258728
1772721297506473000,0.289472900390625,-0.04927349090576172,-0.03835728019475937,-0.06303438544273376
1772721297525069800,0.30806982421875,0.05963325500488281,-0.045276038348674774,0.013669192790985107
1772721297543666700,0.326666748046875,0.018950462341308594,0.044977203011512756,0.010977625846862793
1772721297562263600,0.345263671875,-0.11544036865234375,0.04409229755401611,0.045881837606430054
1772721297580860200,0.363860107421875,-0.11061954498291016,-0.030426964163780212,0.024818450212478638
1772721297599457000,0.38245703125,0.07972049713134766,-0.04274621605873108,0.014766007661819458
1772721297618054000,0.401053955078125,0.060822486877441406,0.002923212945461273,-0.03744029998779297
1772721297636650800,0.419650634765625,-0.07826042175292969,0.02298896014690399,-0.03158646821975708
1772721297655247600,0.43824755859375,-0.13468647003173828,0.04367706924676895,-0.02836829423904419
1772721297673844200,0.45684423828125,-0.08342647552490234,0.039672449231147766,0.02495366334915161
1772721297692441000,0.475441162109375,0.0633392333984375,0.022065557539463043,-0.011965751647949219
1772721297711038000,0.494037841796875,0.10310840606689453,0.007069826126098633,0.016148656606674194
1772721297729634800,0.512634765625,-0.06126976013183594,0.012918882071971893,0.0701073408126831
1772721297748231700,0.531231689453125,-0.11287879943847656,-0.022435486316680908,0.046818673610687256
1772721297766828300,0.549828369140625,-0.02375316619873047,-0.04083382338285446,-0.020693480968475342
1772721297785425200,0.568425048828125,0.013155937194824219,-0.013416267931461334,-0.06425833702087402
1772721297804022000,0.58702197265625,0.07525825500488281,0.0012872368097305298,-0.09926910698413849
1772721297822619000,0.605618896484375,0.04813861846923828,0.08416008949279785,-0.0976666808128357
1772721297841215700,0.6242158203125,0.016997337341308594,0.07697272300720215,-0.033908188343048096
1772721297859812400,0.642812255859375,-0.02876567840576172,-0.02145916223526001,-0.029053330421447754
1772721297878409200,0.6614091796875,0.0795602798461914,-0.09796646982431412,-0.007414728403091431
1772721297897006000,0.680006103515625,-0.028787612915039062,-0.05071894824504852,0.06291794776916504
1772721297915603000,0.69860302734375,-0.13643836975097656,0.006441012024879456,0.08658754825592041
1772721297934199600,0.717199462890625,-0.13189125061035156,0.009677059948444366,0.07639175653457642
1772721297952796400,0.73579638671875,-0.05192852020263672,-0.025245346128940582,0.012347131967544556
1772721297971393300,0.754393310546875,0.015822410583496094,-0.02267758548259735,-0.03912615776062012
1772721297989990100,0.772990234375,0.11262989044189453,-0.04638639837503433,-0.012322083115577698
1772721298008587000,0.7915869140625,-0.011080741882324219,-0.03219037503004074,0.04159635305404663
1772721298027183600,0.81018359375,-0.23496150970458984,-0.02691119909286499,0.03956432640552521
1772721298045780500,0.828780517578125,-0.08644676208496094,-0.04247327148914337,-0.004588901996612549
1772721298064377300,0.84737744140625,0.16909313201904297,-0.02452172338962555,-0.03852930665016174
1772721298082974200,0.86597412109375,0.19644927978515625,-0.023664817214012146,0.03966060280799866
1772721298101570800,0.88457080078125,0.08064079284667969,-0.07759681344032288,0.03377072513103485
1772721298120167700,0.903167724609375,0.04443836212158203,-0.04622826725244522,0.0016738027334213257
1772721298138764500,0.9217646484375,0.0895538330078125,-0.06326034665107727,0.026417553424835205
1772721298157361200,0.940361083984375,0.05449390411376953,-0.047516830265522,0.0746012032032013
1772721298175958000,0.9589580078125,-0.050766944885253906,-0.00977393239736557,0.03773410618305206
1772721298194555000,0.977554931640625,-0.16161346435546875,-0.012152701616287231,-0.07913114130496979
1772721298213151700,0.99615185546875,0.07442855834960938,0.007462941110134125,-0.028208285570144653
1772721298231748400,1.014748291015625,0.21002864837646484,-0.04087891802191734,0.06816516816616058
1772721298250345200,1.03334521484375,-0.00983428955078125,-0.012173078954219818,-0.0448298305273056
1772721298268942000,1.051942138671875,0.10403823852539062,-0.06617479026317596,0.03796747326850891
1772721298287539000,1.0705390625,0.03735828399658203,-0.01628217101097107,0.09011392295360565
1772721298306135600,1.089135498046875,-0.17679214477539062,-0.010092459619045258,0.08362023532390594
1772721298324732400,1.107732421875,-0.11976814270019531,-0.06730285286903381,0.07757002115249634
1772721298343329300,1.126329345703125,0.027777671813964844,-0.07265665382146835,-0.003947079181671143
1772721298361926100,1.144926025390625,-0.055090904235839844,0.02435145527124405,-0.08635473251342773
1772721298380522800,1.163522705078125,-0.1371479034423828,0.049231305718421936,-0.01406717300415039
1772721298399119600,1.18211962890625,-0.038788795471191406,0.0039017051458358765,-0.017832458019256592
1772721298417716500,1.200716552734375,0.0670614242553711,-0.04872722178697586,-0.00845247507095337
1772721298436313000,1.21931298828125,0.03699016571044922,0.03603494167327881,-0.041182488203048706
1772721298454910000,1.237909912109375,-0.015676498413085938,0.05327177047729492,-0.015249490737915039
1772721298473506800,1.2565068359375,-0.08746719360351562,0.03974077105522156,-0.008145153522491455
1772721298492103700,1.275103759765625,-0.04091644287109375,0.02768324315547943,-0.04467114806175232
1772721298510700300,1.2937001953125,0.08921051025390625,0.024982139468193054,-0.0331701934337616
1772721298529297200,1.312297119140625,0.20256996154785156,-0.052464284002780914,0.007780730724334717
1772721298547894000,1.33089404296875,-0.037909507751464844,0.017019882798194885,0.015146970748901367
1772721298566491000,1.349490966796875,-0.25975799560546875,0.029280900955200195,-0.021867036819458008
1772721298585087500,1.36808740234375,-0.03670787811279297,-0.01973944902420044,-0.039620041847229004
1772721298603684400,1.386684326171875,0.19283008575439453,-0.0035002827644348145,-0.07956385612487793
1772721298622281000,1.405281005859375,0.1570758819580078,0.055023595690727234,-0.20050625503063202
1772721298640877800,1.4238779296875,0.08175086975097656,0.10260564088821411,-0.17702394723892212
1772721298659474700,1.442474609375,0.10666275024414062,0.02262181043624878,-0.10226421058177948
1772721298678071600,1.461071533203125,-0.055237770080566406,0.05021947622299194,-0.1684499979019165
1772721298696668200,1.479668212890625,-0.2041645050048828,0.04737292230129242,-0.06307384371757507
1772721298715265000,1.49826513671875,-0.23183917999267578,0.0017427653074264526,-0.017178475856781006
1772721298733862000,1.51686181640625,-0.05121803283691406,-0.047420188784599304,0.011750072240829468
1772721298752458800,1.535458740234375,0.032947540283203125,-0.03372088074684143,0.029293209314346313
1772721298771055400,1.554055419921875,-0.10845756530761719,0.007479190826416016,0.05138802528381348
1772721298789652200,1.57265234375,-0.14392757415771484,0.015172198414802551,0.014202594757080078
1772721298808249000,1.5912490234375,0.1533041000366211,-0.03293609619140625,0.036756545305252075
1772721298826845700,1.609845703125,0.03877544403076172,-0.013181328773498535,0.009567975997924805
1772721298845442600,1.628442626953125,-0.045047760009765625,0.024917826056480408,-0.02918487787246704
1772721298864039400,1.647039306640625,-0.025119781494140625,0.0216103196144104,-0.016681134700775146
1772721298882636300,1.66563623046875,0.09443950653076172,-0.008392512798309326,-0.034276485443115234
1772721298901233000,1.68423291015625,0.021150588989257812,-0.016156047582626343,-0.0655444860458374
1772721298919829800,1.702829833984375,0.025377273559570312,-0.051660507917404175,-0.08926954865455627
1772721298938426400,1.72142626953125,-0.019959449768066406,-0.037711650133132935,-0.046142250299453735
1772721298957023200,1.740023193359375,-0.03356170654296875,-0.05556975305080414,0.006617695093154907
1772721298975620000,1.7586201171875,-0.004006385803222656,-0.06112971901893616,0.09186473488807678
1772721298994216700,1.777216796875,0.05414009094238281,-0.07741513848304749,0.14605695009231567
1772721299012813600,1.7958134765625,0.03958892822265625,-0.06157048046588898,0.06690087914466858
1772721299031410400,1.814410400390625,0.04574394226074219,-0.04533107578754425,0.00553402304649353
1772721299050007000,1.833007080078125,0.07706928253173828,-0.03392904996871948,-0.024760425090789795
1772721299068604000,1.85160400390625,-0.05460071563720703,0.04887157678604126,-0.15233489871025085
1772721299087200800,1.87020068359375,-0.04981517791748047,-0.00429806113243103,-0.14399218559265137
1772721299105797600,1.888797607421875,0.07156085968017578,-0.05882173031568527,-0.09642498195171356
1772721299124394200,1.907394287109375,0.0711221694946289,-0.032020509243011475,-0.07301673293113708
1772721299142991000,1.9259912109375,-0.20186328887939453,-0.007494121789932251,0.04258689284324646
1772721299161588000,1.944587890625,-0.2147207260131836,-0.00040812790393829346,0.10901772975921631
1772721299180184600,1.9631845703125,-0.02130603790283203,-0.025913000106811523,0.09992015361785889
1772721299198781400,1.981781494140625,0.11732292175292969,0.007292106747627258,0.10313248634338379
1772721299217378000,2.0003779296875,-0.02574634552001953,0.02811606228351593,0.05837985873222351
1772721299235975000,2.018974853515625,0.013514518737792969,0.010984346270561218,0.03159070014953613
1772721299254571800,2.03757177734375,0.10687828063964844,-0.029077619314193726,0.09160548448562622
1772721299273168400,2.05616845703125,0.04324150085449219,0.003917813301086426,0.05617055296897888
1772721299291765200,2.07476513671875,-0.011499404907226562,-0.006226181983947754,0.055221349000930786
1772721299310362000,2.093362060546875,0.07026481628417969,-0.012272849678993225,-0.008149206638336182
1772721299328958700,2.111958740234375,0.07611846923828125,-0.03925040364265442,0.05189400911331177
1772721299347555600,2.1305556640625,-0.028092384338378906,-0.03663249313831329,0.02913077175617218
1772721299366152400,2.14915234375,-0.029196739196777344,-0.055707454681396484,-0.012079551815986633
1772721299384749000,2.1677490234375,0.07171916961669922,-0.054990947246551514,-0.00916832685470581
1772721299403346000,2.186345947265625,-0.020832061767578125,-0.013929218053817749,-0.08405488729476929
1772721299421942500,2.204942626953125,-0.09209918975830078,-0.012090474367141724,-0.1269715279340744
1772721299440539400,2.223539306640625,0.017075538635253906,-0.0024101734161376953,-0.09452939033508301
1772721299459136300,2.24213623046875,-0.023984909057617188,-0.06046104431152344,-0.14016634225845337
1772721299477732900,2.26073291015625,0.00289154052734375,-0.01831667125225067,-0.1486411690711975
1772721299496329700,2.279329833984375,0.060932159423828125,-0.04106217622756958,0.0855540931224823
1772721299514926600,2.297926513671875,-0.060835838317871094,-0.031822651624679565,0.0417494922876358
1772721299533523200,2.316523193359375,0.001720428466796875,-0.05590862035751343,0.05735403299331665
1772721299552120000,2.3351201171875,-0.010007858276367188,-0.05409499257802963,0.050275176763534546
1772721299570716700,2.353716552734375,0.06480884552001953,-0.0421951562166214,0.11006471514701843
1772721299589313500,2.3723134765625,0.05066108703613281,-0.137607142329216,0.11589178442955017
1772721299607910400,2.390910400390625,-0.09359931945800781,-0.05857693403959274,0.031707942485809326
1772721299626507000,2.409507080078125,-0.006511688232421875,-0.01745837926864624,0.08040846884250641
1772721299645103900,2.428103759765625,0.04245471954345703,-0.01686391979455948,0.07666569948196411
1772721299663700500,2.446700439453125,0.0579833984375,-0.020981378853321075,0.0206010639667511
1772721299682297300,2.46529736328125,-0.02924060821533203,0.029283389449119568,0.017231866717338562
1772721299700894200,2.483894287109375,0.01650524139404297,0.018547117710113525,0.038027018308639526
1772721299719490800,2.50249072265625,-0.005379676818847656,-0.01228921115398407,0.07656998932361603
1772721299738087700,2.521087646484375,-0.07612133026123047,-0.001531854271888733,0.021440520882606506
1772721299756684300,2.539684326171875,0.031202316284179688,-0.011203818023204803,-0.009888902306556702
1772721299775281200,2.55828125,0.06566905975341797,0.011289864778518677,-0.028232000768184662
1772721299793878000,2.5768779296875,-0.039229393005371094,0.04533705115318298,-0.015388838946819305
1772721299812474600,2.595474609375,-0.01787281036376953,0.03474821150302887,-0.07164385914802551
1772721299831071500,2.614071533203125,0.052634239196777344,-0.03376229107379913,-0.09613367915153503
1772721299849668000,2.632668212890625,-0.050887107849121094,-0.00813312828540802,-0.06317894905805588
1772721299868265000,2.651264892578125,0.005110740661621094,0.00642472505569458,0.017536625266075134
1772721299886861800,2.66986181640625,0.11659526824951172,-0.022801116108894348,0.09909232705831528
1772721299905458400,2.68845849609375,-0.05537223815917969,0.019407987594604492,0.06630230695009232
1772721299924055300,2.70705517578125,-0.09505271911621094,0.045982539653778076,0.010276734828948975
1772721299942652000,2.72565185546875,0.07244300842285156,0.01556764543056488,-0.06942696124315262
1772721299961248800,2.744248779296875,0.16043853759765625,0.02060168981552124,-0.13012078404426575
1772721299979845400,2.762845458984375,-0.07026481628417969,0.02386273443698883,-0.11787902563810349
1772721299998442200,2.781442138671875,-0.17934513092041016,0.011054888367652893,-0.026038192212581635
1772721300017039000,2.8000390625,-0.03990745544433594,0.007240459322929382,0.0834573358297348
1772721300035635700,2.8186357421875,0.0894002914428711,-0.063373863697052,0.1319301724433899
1772721300054232300,2.837232421875,-0.020209312438964844,-0.022811755537986755,0.14165213704109192
1772721300072829200,2.8558291015625,-0.06952476501464844,-0.01626904308795929,0.030051901936531067
1772721300091426000,2.874426025390625,0.05542182922363281,-0.009129717946052551,-0.06473338603973389
1772721300110022700,2.893022705078125,0.1666402816772461,-0.007932260632514954,-0.09205438196659088
1772721300128619500,2.91161962890625,0.050011634826660156,0.0028725862503051758,-0.04655386507511139
1772721300147216100,2.930216064453125,-0.1367053985595703,-0.01618555188179016,-0.031079113483428955
1772721300165813000,2.94881298828125,-0.1830902099609375,0.010949835181236267,-0.017224915325641632
1772721300184409600,2.96740966796875,-0.011065483093261719,-0.02927704155445099,-0.06637687981128693
1772721300203006500,2.98600634765625,0.055006980895996094,0.013836845755577087,0.018208809196949005
1772721300221603000,3.00460302734375,-0.05770111083984375,0.01497921347618103,0.015535019338130951
1772721300240200000,3.023199951171875,-0.032012939453125,-0.05174361169338226,-0.03656584769487381
1772721300258796800,3.041796875,0.11115550994873047,-0.060785651206970215,-0.029533907771110535
1772721300277393400,3.060393310546875,0.07887744903564453,-0.05320824682712555,0.07202395051717758
1772721300295990000,3.078989990234375,-0.026093482971191406,-0.044682249426841736,0.05318373441696167
1772721300314587000,3.0975869140625,0.058159828186035156,-0.011356547474861145,0.029047369956970215
1772721300333183700,3.116183837890625,0.01842212677001953,0.0004883557558059692,-0.010322697460651398
1772721300351780400,3.1347802734375,-0.09414291381835938,0.04313763976097107,0.001919962465763092
1772721300370377200,3.153377197265625,-0.07224559783935547,0.03378753364086151,-0.05270538106560707
1772721300388973800,3.171973876953125,-0.07241630554199219,0.02620278298854828,-0.0699358880519867
1772721300407570400,3.1905703125,-0.110809326171875,-0.00257699191570282,-0.01497199758887291
1772721300426167300,3.209167236328125,0.12462711334228516,0.015447169542312622,0.022451277822256088
1772721300444764200,3.22776416015625,0.06540870666503906,0.020622551441192627,0.025823362171649933
1772721300463360800,3.24636083984375,-0.0401458740234375,0.06019313633441925,-0.007575675845146179
1772721300481957600,3.26495751953125,0.03851509094238281,0.037263840436935425,-0.002492949366569519
1772721300500554200,3.28355419921875,0.03595542907714844,-0.0015764683485031128,-0.047841884195804596
1772721300519151000,3.302151123046875,0.009204864501953125,-0.005485609173774719,-0.054250188171863556
1772721300537747700,3.320747802734375,-0.021050453186035156,-0.034768134355545044,-0.03282494843006134
1772721300556344600,3.339344482421875,0.08988761901855469,-0.045716315507888794,0.0028442703187465668
1772721300574941200,3.357941162109375,-0.09984970092773438,0.0010026246309280396,-0.0014215745031833649
1772721300593538000,3.3765380859375,-0.12974262237548828,0.012916475534439087,-0.01929350197315216
1772721300612134700,3.395134765625,0.03197479248046875,-0.004785746335983276,-0.17674030363559723
1772721300640029700,3.42302978515625,0.06391143798828125,0.01775375008583069,-0.0919501855969429
1772721300658626600,3.44162646484375,-0.014251708984375,0.0019529908895492554,0.02502814121544361
1772721300677223200,3.46022314453125,-0.09406852722167969,-0.076715849339962,-0.005573181435465813
1772721300695820000,3.478820068359375,-0.038745880126953125,-0.09169389307498932,0.006118469871580601
1772721300714416600,3.497416748046875,0.019819259643554688,-0.059939101338386536,0.09592361748218536
1772721300733013500,3.516013427734375,0.012089729309082031,-0.05827515572309494,0.13292686641216278
1772721300751610000,3.534610107421875,0.028116226196289062,-0.028133884072303772,0.06656695902347565
1772721300770207000,3.55320703125,0.11180973052978516,-0.019760623574256897,0.024447636678814888
1772721300788803600,3.571803466796875,0.0049991607666015625,-0.02546609938144684,-0.017524469643831253
1772721300807400400,3.590400390625,0.02126598358154297,-0.027005672454833984,0.01453806459903717
1772721300825997000,3.6089970703125,-0.013613700866699219,-0.00400601327419281,0.007805263623595238
1772721300844594000,3.627593994140625,-0.03252220153808594,-0.0005370527505874634,-0.02046232856810093
1772721300863190500,3.6461904296875,0.0011320114135742188,0.0038919299840927124,-0.021137550473213196
1772721300881787400,3.664787353515625,0.0046138763427734375,0.022171810269355774,-0.031269121915102005
1772721300900384000,3.683384033203125,0.005473136901855469,0.037059485912323,0.003843492828309536
1772721300918980900,3.70198095703125,0.006178855895996094,-0.00016602873802185059,0.003124551847577095
1772721300937577500,3.720577392578125,0.027994155883789062,-0.011523112654685974,0.05219075828790665
1772721300956174000,3.739174072265625,-0.017339706420898438,0.011051923036575317,0.05128779634833336
1772721300974771000,3.75777099609375,-0.051662445068359375,0.001929640769958496,-0.03509781137108803
1772721300993367600,3.776367431640625,-0.08150863647460938,-0.00019012391567230225,-0.009896810166537762
1772721301011964400,3.79496435546875,-0.031706809997558594,-0.0453982949256897,0.02234300784766674
1772721301030561000,3.81356103515625,0.09630584716796875,-0.0716492086648941,-0.012846668250858784
1772721301049158000,3.832157958984375,0.06029224395751953,-0.010729566216468811,-0.021033339202404022
1772721301067754500,3.85075439453125,-0.03830718994140625,-0.003557369112968445,0.00027730874717235565
1772721301086351400,3.869351318359375,-0.08711719512939453,-0.00944492220878601,-0.019441891461610794
1772721301104948000,3.887947998046875,-0.015437126159667969,0.02587375044822693,-0.0655953660607338
1772721301123544800,3.906544921875,-0.017584800720214844,0.03695189952850342,-0.01800801418721676
1772721301142141400,3.925141357421875,0.030084609985351562,-0.015321165323257446,-0.01195782795548439
1772721301160738000,3.943738037109375,0.034465789794921875,-0.015739887952804565,0.03297566622495651
1772721301179335000,3.9623349609375,-0.06492424011230469,0.01464793086051941,0.0634012371301651
1772721301197931500,3.980931640625,-0.07630062103271484,-0.010956555604934692,0.015017750672996044
1772721301216528400,3.9995283203125,0.11481666564941406,-0.00907154381275177,0.02504519186913967
1772721301235125000,4.018125,0.15559101104736328,-0.0010153800249099731,0.019817456603050232
1772721301253721600,4.0367216796875,-0.06767082214355469,0.0005897432565689087,0.018915152177214622
1772721301272318500,4.055318359375,-0.16270160675048828,-0.006686508655548096,-0.025814110413193703
1772721301290915000,4.0739150390625,-0.026546478271484375,-0.06118763983249664,-0.007730018347501755
1772721301309511700,4.09251171875,0.07458114624023438,-0.05149714648723602,0.012101688422262669
1772721301328108500,4.111108642578125,0.008657455444335938,-0.03293980658054352,0.05677005648612976
1772721301346705200,4.129705078125,-0.02298450469970703,-0.05540795624256134,0.04362735152244568
1772721301365302000,4.148302001953125,-0.024896621704101562,-0.05559360980987549,0.033871740102767944
1772721301383898600,4.166898681640625,-0.029876708984375,-0.03889346122741699,0.03875838965177536
1772721301402495200,4.1854951171875,0.06530380249023438,0.013746261596679688,0.041064728051424026
1772721301421092000,4.204092041015625,0.011724472045898438,-0.037122905254364014,0.019285880029201508
1772721301439688700,4.222688720703125,-0.12626075744628906,0.02044469118118286,0.02696971409022808
1772721301458285600,4.24128564453125,-0.12373924255371094,-0.04302068054676056,-0.003989560529589653
1772721301476882200,4.259882080078125,0.11088752746582031,-0.04218309372663498,-0.0003640709910541773
1772721301495478800,4.278478759765625,0.034496307373046875,-0.028658241033554077,-0.01670016162097454
1772721301514075600,4.29707568359375,-0.031861305236816406,0.0017372816801071167,-0.1098552867770195
1772721301532672300,4.31567236328125,-0.07035446166992188,-0.0004299283027648926,-0.10991927236318588
1772721301551268900,4.334268798828125,0.06386661529541016,-0.04018612205982208,-0.08932816982269287
1772721301569865700,4.35286572265625,0.008844375610351562,-0.019954025745391846,-0.056353215128183365
1772721301588462300,4.37146240234375,-0.04009246826171875,0.006796598434448242,-0.05288378521800041
1772721301607059200,4.39005908203125,0.07104301452636719,-0.02921091765165329,0.011992216110229492
1772721301625655800,4.40865576171875,-0.005340576171875,-0.0511513352394104,0.09375666081905365
1772721301644252400,4.42725244140625,-0.10713863372802734,0.0021345168352127075,0.1253381073474884
1772721301662849300,4.445849365234375,0.029755592346191406,-0.026251807808876038,0.11491258442401886
1772721301681446000,4.46444580078125,0.11936473846435547,-0.019231721758842468,0.11620097607374191
1772721301700042800,4.483042724609375,0.047713279724121094,0.05096109211444855,0.06845832616090775
1772721301718639400,4.501639404296875,-0.05176544189453125,0.048857808113098145,-0.004391580820083618
1772721301737236000,4.520236083984375,-0.04202842712402344,0.018923640251159668,-0.13057921826839447
1772721301755832800,4.538832763671875,0.08778858184814453,0.02700863778591156,-0.13832613825798035
1772721301774429400,4.557429443359375,0.1770172119140625,0.02464619278907776,-0.10688092559576035
1772721301793026000,4.576026123046875,-0.004054069519042969,0.06822375953197479,-0.05715430527925491
1772721301811623000,4.594622802734375,-0.09983539581298828,0.02374267578125,-0.012674219906330109
1772721301830219500,4.613219482421875,-0.0954904556274414,0.05422802269458771,-0.11568482965230942
1772721301848816000,4.631816162109375,0.011084556579589844,0.01781173050403595,0.0613996721804142
1772721301867413000,4.6504130859375,0.02219867706298828,0.0053863078355789185,0.009163528680801392
1772721301886009600,4.669009521484375,0.013224601745605469,-0.08067813515663147,-0.006489410996437073
1772721301904606200,4.687606201171875,-0.09941768646240234,-0.0791478157043457,-0.12378226220607758
1772721301923203000,4.706203125,-0.08084487915039062,-0.08852033317089081,-0.06410786509513855
1772721301941799700,4.724799560546875,0.013835906982421875,-0.0842517614364624,-0.05443483591079712
1772721301960396300,4.743396240234375,0.04603767395019531,-0.0791076272726059,-0.03374038636684418
1772721301978993200,4.7619931640625,0.006256103515625,-0.0748286247253418,0.08031000941991806
1772721301997589800,4.78058984375,-0.00394439697265625,-0.04566286876797676,0.11001063883304596
1772721302016186400,4.799186279296875,0.16581058502197266,-0.06444559246301651,0.06268143653869629
1772721302034783200,4.817783203125,0.27129077911376953,0.0012690424919128418,0.06811279058456421
1772721302053379800,4.8363798828125,0.050983428955078125,0.07203105837106705,0.039977699518203735
1772721302071976400,4.8549765625,-0.04645252227783203,-0.02799297124147415,0.08885937929153442
1772721302090573000,4.873572998046875,-0.008955955505371094,-0.005440011620521545,0.008436828851699829
1772721302109170000,4.892169921875,-0.027166366577148438,0.03388547897338867,0.07222586870193481
1772721302127766500,4.9107666015625,0.02509307861328125,0.03611543029546738,0.08478201180696487
1772721302146363100,4.929363037109375,0.05653667449951172,0.02789200097322464,0.04648978263139725
1772721302164960000,4.9479599609375,-0.02341461181640625,0.028050340712070465,0.0254996195435524
1772721302183556600,4.966556640625,-0.09717750549316406,-0.00713898241519928,0.018822334706783295
1772721302202153200,4.9851533203125,-0.02616119384765625,-0.021690964698791504,0.005373679101467133
1772721302220749800,5.003749755859375,0.07225418090820312,0.003997772932052612,0.006001770496368408
1772721302239346700,5.0223466796875,-0.003612518310546875,0.04684340953826904,-0.0007035806775093079
1772721302257943300,5.040943359375,-0.083740234375,-0.02215024083852768,-0.007412649691104889
1772721302276540000,5.059539794921875,-0.09163475036621094,-0.061967238783836365,0.0012394748628139496
1772721302295136800,5.07813671875,-0.08011341094970703,-0.0582914724946022,-0.012767039239406586
1772721302313733400,5.0967333984375,-0.10410690307617188,-0.019080646336078644,0.02789073809981346
1772721302332330000,5.115330078125,-0.04314136505126953,-0.00851428508758545,-0.053374435752630234
1772721302350926600,5.133926513671875,0.05518054962158203,-0.02249296009540558,-0.00044771283864974976
1772721302369523500,5.1525234375,0.018034934997558594,-0.043215200304985046,0.000720292329788208
1772721302388120000,5.1711201171875,-0.061921119689941406,-0.02242131531238556,-0.02681591361761093
1772721302406716700,5.189716552734375,0.00164794921875,-0.023731306195259094,-0.04284416884183884
1772721302425313300,5.208313232421875,0.18424606323242188,-0.028943032026290894,-0.0670119896531105
1772721302443910100,5.22691015625,0.08920860290527344,0.005043327808380127,0.02171182632446289
1772721302462506800,5.2455068359375,0.04103374481201172,-0.011018216609954834,0.021972104907035828
1772721302481103400,5.264103271484375,-0.020737648010253906,-0.029411382973194122,0.1593787670135498
1772721302499700000,5.282699951171875,-0.0662984848022461,0.04582972824573517,0.3308940827846527
1772721302518296600,5.301296630859375,-0.014355659484863281,-0.022161319851875305,0.08045133948326111
1772721302536893400,5.3198935546875,0.15282917022705078,0.014573246240615845,-0.10163024812936783
1772721302555490000,5.338489990234375,0.04679393768310547,0.022950246930122375,-0.2600492238998413
1772721302574086700,5.357086669921875,-0.19976043701171875,-0.006800293922424316,-0.3971763551235199
1772721302592683300,5.375683349609375,-0.3501758575439453,0.003142312169075012,-0.35616666078567505
1772721302611280100,5.394280029296875,-0.34530067443847656,0.053648754954338074,-0.2546845078468323
1772721302629876700,5.412876708984375,-0.017317771911621094,-0.02088286727666855,-0.11273588240146637
1772721302648473300,5.431473388671875,0.2646627426147461,-0.04660928249359131,-0.0662248283624649
1772721302667070000,5.450070068359375,0.06421470642089844,0.04810149222612381,0.005826435983181
1772721302685666800,5.468666748046875,-0.0247650146484375,0.058257877826690674,0.005556344985961914
1772721302704263400,5.487263427734375,0.04598522186279297,-0.005687624216079712,0.036850519478321075
1772721302722860000,5.505860107421875,0.12960052490234375,-0.039350420236587524,0.035092830657958984
1772721302741456600,5.52445654296875,0.1521158218383789,-0.014767609536647797,0.14481887221336365
1772721302760053200,5.54305322265625,0.09108161926269531,0.00235951691865921,0.1859470009803772
1772721302778650000,5.561650146484375,-0.015642166137695312,0.05489102751016617,0.12797120213508606
1772721302797246700,5.580246826171875,-0.040459632873535156,0.05808477848768234,-0.013225890696048737
1772721302815843300,5.59884326171875,-0.03913402557373047,0.061120107769966125,-0.09792006760835648
1772721302834440000,5.61743994140625,0.04523754119873047,0.08518239855766296,-0.1502736210823059
1772721302853036800,5.636036865234375,0.1381063461303711,0.025891073048114777,-0.0988573431968689
1772721302871633400,5.65463330078125,-0.0676279067993164,0.030382640659809113,-0.06496339291334152
1772721302890230000,5.67322998046875,-0.16747188568115234,-0.02622845023870468,-0.03054090589284897
1772721302908826600,5.69182666015625,0.05766773223876953,-0.05326715484261513,-0.007072605192661285
1772721302927423200,5.71042333984375,-0.008016586303710938,-0.04217081516981125,0.06860759854316711
1772721302946019800,5.729019775390625,-0.15542984008789062,-0.017591729760169983,0.013433359563350677
1772721302964616700,5.74761669921875,0.022785186767578125,-0.03936123847961426,-0.0050770193338394165
1772721302983213300,5.76621337890625,0.2024087905883789,-0.03358902037143707,0.04713097959756851
1772721303001810000,5.784809814453125,0.08978939056396484,-0.02197302132844925,0.12214317172765732
1772721303020406500,5.803406494140625,-0.14716148376464844,0.012634679675102234,0.02306836098432541
1772721303039003100,5.822003173828125,-0.019550323486328125,-0.020217441022396088,0.03372272104024887
1772721303057599700,5.840599853515625,0.032830238342285156,-0.02249772474169731,0.019800037145614624
1772721303076196600,5.859196533203125,-0.06750297546386719,-0.01482970267534256,-0.02283894270658493
1772721303094793200,5.877793212890625,-0.0626974105834961,-0.02238224446773529,-0.05170755833387375
1772721303113389800,5.896389892578125,-0.009393692016601562,0.015771299600601196,-0.01809471845626831
1772721303131986400,5.914986328125,-0.08034610748291016,0.057526424527168274,0.07650727033615112
1772721303150583000,5.9335830078125,-0.056632041931152344,0.00922732800245285,0.10538235306739807
1772721303169179600,5.9521796875,0.10535144805908203,-0.022192001342773438,0.08104178309440613
1772721303187776300,5.9707763671875,0.1358938217163086,-0.04672040790319443,0.11104877293109894
1772721303206373000,5.989373046875,-0.09706783294677734,0.043920304626226425,0.07858674973249435
1772721303224969700,6.0079697265625,-0.03517913818359375,-0.014560822397470474,0.05607271194458008
1772721303243566300,6.02656640625,0.06141471862792969,-0.02733440510928631,0.04468821734189987
1772721303262163000,6.045162841796875,0.054177284240722656,-0.01215541735291481,0.00343216210603714
1772721303280759600,6.063759521484375,0.0034017562866210938,-0.031688958406448364,-0.04482857137918472
1772721303299356200,6.082356201171875,0.015822410583496094,-0.009698759764432907,-0.009834922850131989
1772721303317952800,6.100952880859375,-0.11478900909423828,-0.013280712068080902,0.07033629715442657
1772721303336549600,6.119549560546875,-0.15237140655517578,-0.03381378948688507,0.06342694163322449
1772721303355146200,6.138146240234375,0.0736379623413086,-0.059339746832847595,-0.011987440288066864
1772721303373742800,6.156742919921875,0.16144561767578125,-0.014695847406983376,-0.04088306427001953
1772721303392339500,6.17533935546875,-0.024811744689941406,0.032474637031555176,-0.0847756490111351
1772721303410936000,6.19393603515625,-0.02564716339111328,-0.04216068238019943,-0.06422647088766098
1772721303429532700,6.21253271484375,0.09418678283691406,-0.04625922814011574,-0.04831104725599289
1772721303448129300,6.23112939453125,0.04179859161376953,-0.07038633525371552,-0.01966843008995056
1772721303466726000,6.249725830078125,-0.044280052185058594,-0.048571325838565826,0.09720363467931747
1772721303485322800,6.26832275390625,0.020386695861816406,-0.04816005378961563,0.1675378382205963
1772721303503919000,6.286919189453125,0.092926025390625,-0.09776090085506439,0.09743773192167282
1772721303522516000,6.305515869140625,-0.023538589477539062,0.021753612905740738,0.05082131177186966
1772721303541112600,6.324112548828125,-0.049185752868652344,0.047237180173397064,0.03530774265527725
1772721303559709200,6.342709228515625,-0.018648147583007812,0.024634532630443573,-0.017052210867404938
1772721303578305800,6.361305908203125,-0.028412818908691406,0.04900906980037689,-0.054240815341472626
1772721303596902400,6.37990234375,-0.0033550262451171875,0.03363575041294098,-0.04610110819339752
1772721303615499000,6.3984990234375,-0.0894775390625,-0.015078434720635414,0.017299823462963104
1772721303634095600,6.417095703125,0.008183479309082031,-0.03883535414934158,0.07056136429309845
1772721303652692200,6.435692138671875,0.04783439636230469,-0.08240748941898346,0.030101865530014038
1772721303671289000,6.4542890625,0.032233238220214844,-0.07689572870731354,0.006929874420166016
1772721303689885400,6.472885498046875,-0.009637832641601562,0.02275119535624981,0.002602815628051758
1772721303708482300,6.491482421875,0.020481109619140625,0.07693754136562347,-0.013115167617797852
1772721303727078700,6.51007861328125,0.025629043579101562,-0.004196863621473312,-0.02677421271800995
1772721303745675500,6.528675537109375,0.1240854263305664,-0.05250784382224083,-0.14976729452610016
1772721303764272000,6.547272216796875,0.04191398620605469,0.026413211598992348,-0.07772089540958405
1772721303782868700,6.56586865234375,-0.10618305206298828,0.017395121976733208,-0.04343914985656738
1772721303801465300,6.58446533203125,-0.08257389068603516,0.036796100437641144,0.017962269484996796
1772721303820062000,6.60306201171875,-0.021386146545410156,0.016588227823376656,0.0820600837469101
1772721303838658600,6.621658447265625,0.05180644989013672,-0.02842351794242859,0.021258562803268433
1772721303857255200,6.640255126953125,0.13248920440673828,-0.023990709334611893,-0.028332099318504333
1772721303875851800,6.658851806640625,-0.05993938446044922,0.0338439866900444,-0.03629082441329956
1772721303894448400,6.677448486328125,-0.1504049301147461,-0.0008262894116342068,-0.05678659677505493
1772721303913045000,6.696044921875,0.08715438842773438,-0.04409245401620865,-0.03934884071350098
1772721303931641600,6.7146416015625,0.12528419494628906,-0.047833774238824844,0.021343156695365906
1772721303950238500,6.733238525390625,-0.13328933715820312,0.02444867044687271,0.0701126754283905
1772721303968834800,6.751834716796875,-0.14252662658691406,-0.04913881793618202,0.1022128090262413
1772721303987431700,6.770431640625,0.013525962829589844,-0.0615403987467289,0.02447643131017685
1772721304006028000,6.789028076171875,0.051441192626953125,-0.02545163966715336,-0.0316103994846344
1772721304024625000,6.807625,-0.025018692016601562,0.00972205214202404,-0.033574000000953674
1772721304043221500,6.826221435546875,-0.0797281265258789,-0.02364366501569748,-0.04581741988658905
1772721304061818000,6.844818115234375,-0.10378456115722656,0.0007832283154129982,-0.06835754215717316
1772721304080414700,6.863414794921875,-0.06615447998046875,-0.060538794845342636,0.18896478414535522
1772721304099011300,6.88201123046875,0.18658924102783203,-0.03087529167532921,-0.02918274700641632
1772721304117608000,6.90060791015625,0.12215042114257812,-0.03637739643454552,0.1282764971256256
1772721304136204500,6.91920458984375,-0.040668487548828125,0.007501841522753239,0.013694897294044495
1772721304154801200,6.93780126953125,-0.06427478790283203,-0.040999770164489746,0.021244511008262634
1772721304173397800,6.956397705078125,0.10209369659423828,-0.03613290190696716,-0.0628802478313446
1772721304191994400,6.974994384765625,0.12870216369628906,0.007894452661275864,-0.07656353712081909
1772721304210591000,6.993591064453125,0.07666301727294922,0.022429052740335464,-0.0335642546415329
1772721304229187600,7.0121875,0.04468345642089844,-0.024608904495835304,0.0008303672075271606
1772721304247784200,7.0307841796875,0.03718852996826172,-0.05115048959851265,0.018381088972091675
1772721304266380800,7.049380859375,-0.08579540252685547,-0.036016009747982025,0.04031980782747269
1772721304284977400,7.067977294921875,-0.12798786163330078,-0.011687427759170532,0.030202746391296387
1772721304303574000,7.086573974609375,-0.030821800231933594,-0.025416623800992966,-0.04976525902748108
1772721304322170600,7.105170654296875,0.02863311767578125,0.06720298528671265,-0.060562863945961
1772721304340767200,7.123767333984375,-0.024400711059570312,0.08439147472381592,-0.1304844170808792
1772721304359363800,7.14236376953125,-0.03892230987548828,-0.017511675134301186,0.09175959974527359
1772721304377960400,7.16096044921875,0.09134292602539062,-0.052730951458215714,-0.025354787707328796
1772721304396557000,7.17955712890625,-0.0209197998046875,0.055140167474746704,-0.02996063232421875
1772721304415153700,7.198153564453125,-0.1262979507446289,0.006713010370731354,0.07332031428813934
1772721304433750300,7.216750244140625,-0.039089202880859375,-0.036564767360687256,-0.060599274933338165
1772721304452347000,7.235346923828125,0.07036876678466797,-0.03339271992444992,0.03866729885339737
1772721304470943500,7.253943603515625,0.06329917907714844,-0.0680314153432846,-0.005839884281158447
1772721304489540000,7.2725400390625,0.1506633758544922,-0.06527721881866455,-0.03560672700405121
1772721304508136700,7.29113671875,0.0016698837280273438,-0.012543242424726486,-0.027506686747074127
1772721304526733300,7.3097333984375,-0.2408466339111328,0.013569850474596024,-0.0150514617562294
1772721304545330000,7.328329833984375,-0.18430519104003906,-0.023998627439141273,-0.03823725879192352
1772721304563926500,7.346926513671875,0.02472209930419922,-0.03627621382474899,-0.034942805767059326
1772721304582523100,7.365523193359375,0.08549690246582031,0.007063183933496475,-0.01377008855342865
1772721304601119500,7.384119384765625,0.00014495849609375,0.010419687256217003,0.08672095090150833
1772721304619716000,7.402716064453125,-0.01146697998046875,0.04262484610080719,0.02142442762851715
1772721304638313000,7.42131298828125,-0.049391746520996094,0.04544095695018768,0.007687732577323914
1772721304656909300,7.439909423828125,-0.040427207946777344,0.027958489954471588,0.001167401671409607
1772721304675506000,7.458505859375,-0.011767387390136719,0.029786797240376472,-0.02025356888771057
1772721304694102500,7.4771025390625,0.2115497589111328,-0.019702035933732986,-0.06354165077209473
1772721304712699100,7.49569921875,0.1699962615966797,-0.0045297592878341675,0.005476430058479309
1772721304731295700,7.514295654296875,-0.05623626708984375,-0.015769008547067642,0.02309270203113556
1772721304749892400,7.532892333984375,-0.027024269104003906,0.007376089692115784,0.062491193413734436
1772721304768489000,7.551489013671875,0.023636817932128906,-0.004998661577701569,0.032773181796073914
1772721304787085600,7.57008544921875,-0.035325050354003906,-0.029949862509965897,-0.002072960138320923
1772721304805682200,7.58868212890625,-0.06549072265625,-0.044617850333452225,0.01643267273902893
1772721304824278800,7.60727880859375,0.05728912353515625,-0.04619862884283066,0.008748278021812439
1772721304842875400,7.62587548828125,0.0315399169921875,-0.011478297412395477,0.008229181170463562
1772721304861472000,7.644471923828125,-0.11826038360595703,-0.026712924242019653,-0.008001267910003662
1772721304880068400,7.663068359375,-0.015581130981445312,-0.10597006231546402,-0.009449318051338196
1772721304898665200,7.681665283203125,0.1559467315673828,-0.12982329726219177,-0.013965249061584473
1772721304917261800,7.70026171875,0.07450485229492188,-0.02767467498779297,0.007684305310249329
1772721304935858200,7.718858154296875,-0.05398750305175781,-0.026697952300310135,0.02332378923892975
1772721304954454800,7.737454833984375,-0.1024026870727539,-0.023743582889437675,0.01564919948577881
1772721304973051400,7.756051513671875,-0.07367229461669922,-0.06021376699209213,-0.027168259024620056
1772721304991648000,7.77464794921875,0.03282356262207031,-0.05665917694568634,-0.10052454471588135
1772721305010244600,7.79324462890625,0.13283061981201172,-0.061010006815195084,-0.02160605788230896
1772721305028841200,7.81184130859375,0.0720205307006836,-0.02054763212800026,-0.005807235836982727
1772721305047437800,7.830437744140625,-0.1369304656982422,0.021565333008766174,0.004918962717056274
1772721305066034200,7.8490341796875,-0.18471050262451172,-0.005502689629793167,-0.012735158205032349
1772721305084630800,7.867630859375,-0.027284622192382812,-0.008115962147712708,-0.04990549385547638
1772721305103227600,7.8862275390625,0.13475704193115234,-0.007908947765827179,-0.035962820053100586
1772721305121824000,7.904823974609375,0.14751052856445312,-0.018547387793660164,-0.06987643241882324
1772721305140420600,7.923420654296875,0.032591819763183594,-0.019128216430544853,-0.07361063361167908
1772721305159017200,7.942017333984375,-0.061618804931640625,0.021877823397517204,-0.05775384604930878
1772721305177613800,7.96061376953125,-0.02361774444580078,-0.03334773704409599,0.02990858256816864
1772721305196210400,7.97921044921875,-0.03940582275390625,-0.03590952605009079,-0.051990434527397156
1772721305214806800,7.997806884765625,-0.0790262222290039,-0.011796137318015099,0.018914565443992615
1772721305233403400,8.0164033203125,-0.029677391052246094,-0.022216616198420525,0.0611407607793808
1772721305252000300,8.035000244140624,-0.012105941772460938,-0.00819019041955471,0.02334032952785492
1772721305270596600,8.0535966796875,0.07378196716308594,-0.0025943852961063385,0.02883891761302948
1772721305289193200,8.072193115234375,0.1421518325805664,0.021620672196149826,0.13344290852546692
1772721305307789800,8.090789794921875,-0.051436424255371094,0.04651479423046112,0.09039148688316345
1772721305326386400,8.109386474609375,-0.12182998657226562,0.045974187552928925,0.021322324872016907
1772721305344983000,8.127983154296874,-0.024263381958007812,0.03732622414827347,-0.07154791057109833
1772721305363579400,8.146579345703126,0.21345138549804688,-0.03611581027507782,-0.15758107602596283
1772721305382176000,8.165176025390625,0.2111339569091797,-0.026531392708420753,-0.12058620154857635
1772721305400772600,8.183772705078125,-0.09600448608398438,0.06585594266653061,-0.02158673107624054
1772721305419369200,8.202369140625,-0.35747718811035156,0.02792588621377945,0.03035980463027954
1772721305437965800,8.2209658203125,-0.09775829315185547,-0.051638513803482056,0.1004282608628273
1772721305456562400,8.2395625,0.4100818634033203,-0.13541381061077118,0.053802989423274994
1772721305475158800,8.25815869140625,0.16625404357910156,-0.031429700553417206,0.07539385557174683
1772721305493755400,8.27675537109375,-0.22251510620117188,0.02137286774814129,-0.031007125973701477
1772721305512352000,8.29535205078125,-0.23687458038330078,0.002924813888967037,-0.04437810182571411
1772721305530948600,8.313948486328124,0.06401824951171875,-0.004833508748561144,-0.07475565373897552
1772721305549545200,8.332545166015626,0.0823049545288086,-0.03630399703979492,-0.09983170032501221
1772721305568141800,8.351141845703125,-0.05348682403564453,0.004937557503581047,-0.0648815780878067
1772721305586738200,8.36973828125,-0.1263275146484375,0.010549211874604225,0.08712603151798248
1772721305605334800,8.388334716796875,-0.057712554931640625,-0.026761453598737717,0.07887555658817291
1772721305623931400,8.406931396484374,0.0630788803100586,-0.08731289207935333,0.05100987106561661
1772721305642528000,8.425528076171876,0.006041526794433594,-0.033151209354400635,0.053379133343696594
1772721305661124600,8.44412451171875,-0.02890491485595703,-0.017902085557579994,-0.0549105703830719
1772721305679721000,8.462720947265625,-0.038956642150878906,-0.017475422471761703,-0.04382583498954773
1772721305698317600,8.481317626953125,0.11851882934570312,0.02515185810625553,-0.04486571252346039
1772721305716914200,8.4999140625,0.05963897705078125,0.014168934896588326,-0.02734735608100891
1772721305735510800,8.5185107421875,0.02504253387451172,-0.01159973070025444,0.01860891282558441
1772721305754107400,8.537107421875,-0.016664505004882812,-0.011923305690288544,0.04130307585000992
1772721305772703700,8.555703857421875,-0.04967975616455078,-0.0022004968486726284,0.03098176419734955
1772721305791300400,8.57430029296875,-0.020911216735839844,-0.014445488341152668,0.0358501672744751
1772721305809897000,8.59289697265625,-0.06369304656982422,0.026385778561234474,0.06402407586574554
1772721305828493600,8.61149365234375,-0.039264678955078125,0.015353692695498466,0.02620530128479004
1772721305847090000,8.63008984375,0.0751495361328125,0.010459955781698227,-0.027152881026268005
1772721305865686500,8.6486865234375,0.10381317138671875,0.013810260221362114,-0.0480017215013504
1772721305884283100,8.667283203125,0.04039478302001953,0.043738897889852524,0.007159516215324402
1772721305902879700,8.685879638671874,-0.08211040496826172,0.011259166523814201,-0.027074143290519714
1772721305921476000,8.70447607421875,-0.04990959167480469,0.00033877906389534473,-0.0066917091608047485
1772721305940072700,8.72307275390625,0.1090402603149414,-0.018774226307868958,0.04488055408000946
1772721305958669300,8.74166943359375,0.04198646545410156,0.009707322344183922,0.08572293817996979
1772721305977266000,8.760265869140625,-0.13538169860839844,0.04122604429721832,0.010275766253471375
1772721305995862500,8.778862548828124,-0.048462867736816406,0.029191935434937477,-0.02015213668346405
1772721306014459000,8.797458984375,0.06466102600097656,0.016293564811348915,-0.1112714409828186
1772721306033055500,8.816055419921875,-0.0019245147705078125,0.029174715280532837,-0.0875377357006073
1772721306051652000,8.834652099609375,-0.03652477264404297,0.013355419971048832,-0.0128193199634552
1772721306070248400,8.85324853515625,-0.05037498474121094,0.016542404890060425,0.03688719868659973
1772721306088845000,8.871844970703124,0.01224517822265625,-0.015720155090093613,0.04599602520465851
1772721306107441700,8.890441650390626,0.029298782348632812,0.02277439832687378,0.016998782753944397
1772721306126038300,8.909038330078126,0.011014938354492188,-0.009041618555784225,0.03723311424255371
1772721306144634600,8.927634521484375,-0.03935527801513672,-0.03097485937178135,0.06454064697027206
1772721306163231200,8.946231201171875,-0.023650169372558594,-0.0702536553144455,0.05106537044048309
1772721306181827800,8.964827880859374,0.017104148864746094,-0.03976798802614212,0.011965528130531311
1772721306200424200,8.983424072265626,0.04939746856689453,-0.02059909701347351,0.06314057111740112
1772721306219020800,9.002020751953125,0.09095573425292969,-0.031891949474811554,0.0027216076850891113
1772721306237617400,9.020617431640625,-0.004389762878417969,0.011192562989890575,-0.02503030002117157
1772721306256213800,9.0392138671875,-0.0028076171875,0.014456336386501789,-0.009518548846244812
1772721306274810400,9.057810302734374,0.038120269775390625,0.0022624600678682327,0.03333406150341034
1772721306293407000,9.076406982421876,0.09308147430419922,-0.012609610334038734,0.006535381078720093
1772721306312003600,9.095003662109375,0.1272115707397461,-0.03556548431515694,-0.0011567920446395874
1772721306330600000,9.113599853515625,0.0552520751953125,0.009922917932271957,0.08341653645038605
1772721306349196500,9.132196533203125,-0.14002132415771484,0.03509402647614479,0.04247318208217621
1772721306367793200,9.150793212890624,-0.2785358428955078,0.06976816058158875,-0.058766841888427734
1772721306386389500,9.169389404296876,-0.0650634765625,0.038711726665496826,-0.024049147963523865
1772721306404986000,9.187986083984375,0.1455249786376953,-0.03939434513449669,-0.034769684076309204
1772721306423582700,9.206582763671875,0.2839651107788086,-0.02591869607567787,0.02301029860973358
1772721306442179000,9.225178955078125,0.0812692642211914,-0.04875168949365616,0.09821633249521255
1772721306460775700,9.243775634765624,-0.025203704833984375,-0.11253902316093445,0.12139777839183807
1772721306479372300,9.262372314453126,-0.2139444351196289,-0.02588346228003502,-0.06355331838130951
1772721306497969000,9.280968994140625,-0.17613792419433594,0.00955931469798088,-0.06642667949199677
1772721306516565200,9.299565185546875,-0.016478538513183594,0.030156832188367844,-0.12784406542778015
1772721306535161900,9.318161865234375,0.0737466812133789,0.031214412301778793,-0.16602811217308044
1772721306553758500,9.336758544921874,0.0861825942993164,0.05241221562027931,-0.11160379648208618
1772721306572354800,9.355354736328126,-0.010183334350585938,0.01632390171289444,0.027777239680290222
1772721306590951400,9.373951416015625,-0.08690357208251953,-0.04442178085446358,0.09717488288879395
1772721306609548000,9.392548095703125,-0.08413314819335938,-0.0313539020717144,0.07695193588733673
1772721306628144400,9.411144287109375,-0.007693290710449219,-0.04636736214160919,0.015565678477287292
1772721306646741000,9.429740966796874,0.03261280059814453,-0.04375361278653145,-0.09804826974868774
1772721306665337600,9.448337646484376,0.047344207763671875,-0.034555766731500626,-0.03337953984737396
1772721306683934000,9.466933837890625,-0.009179115295410156,-0.03329243138432503,-0.06563480198383331
1772721306702530600,9.485530517578125,-0.03674507141113281,-0.009314630180597305,0.036113470792770386
1772721306721127000,9.504126953125,0.06383132934570312,-0.0906061977148056,0.14254173636436462
1772721306739723500,9.5227236328125,-0.0016231536865234375,-0.07345811277627945,0.04252190887928009
1772721306758320000,9.541320068359376,-0.027100563049316406,0.0232761912047863,-0.013597801327705383
1772721306776916500,9.55991650390625,-0.14762115478515625,0.01292727142572403,0.043812528252601624
1772721306795513000,9.57851318359375,-0.12899398803710938,0.043128687888383865,0.02874527871608734
1772721306814109700,9.597109619140625,0.04069995880126953,-0.02486491948366165,-0.03689698874950409
1772721306832706000,9.6157060546875,0.25113964080810547,-0.02538306638598442,-0.010043516755104065
1772721306851302700,9.634302734375,0.13037681579589844,0.026408538222312927,0.006228536367416382
1772721306869899300,9.652899169921875,0.0018777847290039062,0.021154414862394333,0.029979616403579712
1772721306888495600,9.67149560546875,-0.1430225372314453,0.014126673340797424,0.08117112517356873
1772721306907092200,9.69009228515625,-0.10036087036132812,-0.04278790205717087,-0.008021518588066101
1772721306925688600,9.7086884765625,-0.01677703857421875,-0.05899132043123245,-0.07547464966773987
1772721306944285200,9.72728515625,0.09911346435546875,-0.020555371418595314,-0.01156046986579895
1772721306962881800,9.7458818359375,-0.0172119140625,0.006935987621545792,-0.014508858323097229
1772721306981478100,9.76447802734375,0.08029937744140625,-0.021559864282608032,-0.0030952095985412598
1772721307000074800,9.78307470703125,-0.011296272277832031,0.024302836507558823,-0.014447465538978577
1772721307018671000,9.801671142578124,-0.12024497985839844,0.019982580095529556,0.010935604572296143
1772721307037267700,9.820267822265626,-0.024972915649414062,-0.015053452923893929,0.00970403105020523
1772721307055864300,9.8388642578125,0.08164787292480469,-0.028049185872077942,-0.017880767583847046
1772721307074460700,9.857460693359375,-0.004096031188964844,-0.03672730550169945,0.010083064436912537
1772721307093057300,9.876057373046875,-0.07366561889648438,0.04871772602200508,-0.024505138397216797
1772721307111653600,9.894653564453124,0.0071239471435546875,0.07464943826198578,-0.03142926096916199
1772721307130250200,9.913250244140626,0.06283950805664062,0.05307715758681297,-0.010901317000389099
1772721307148846600,9.9318466796875,0.09242630004882812,0.016582030802965164,-0.06806138157844543
1772721307167443200,9.950443115234375,0.057410240173339844,0.06103367730975151,-0.07115305960178375
1772721307186039800,9.969039794921875,0.013631820678710938,0.04665406793355942,-0.049384668469429016
1772721307204636200,9.98763623046875,0.05163097381591797,0.04474081099033356,-0.024046532809734344
1772721307223232800,10.006232666015626,-0.0832529067993164,0.021202996373176575,0.038001567125320435
1772721307241829000,10.0248291015625,-0.1278085708618164,0.002497941255569458,0.04401435703039169
1772721307260425700,10.04342578125,0.02005290985107422,-0.0025960728526115417,0.05092821270227432
1772721307279022300,10.062022216796874,0.0936574935913086,0.021336816251277924,0.03330393135547638
1772721307297618700,10.08061865234375,0.035325050354003906,0.048338793218135834,0.04195156693458557
1772721307316215300,10.09921533203125,-0.0931253433227539,0.055107079446315765,0.029158569872379303
1772721307334811600,10.117811767578125,-0.2295083999633789,-0.01828421652317047,0.10662117600440979
1772721307353408300,10.136408203125,-0.014348030090332031,-0.036843977868556976,0.07464845478534698
1772721307372004600,10.155004638671874,-0.09814739227294922,-0.07023228704929352,0.08281704783439636
1772721307390601200,10.173601318359376,-0.009654045104980469,-0.11209111660718918,-0.030852794647216797
1772721307409197600,10.192197509765625,-0.0796518325805664,-0.08977888524532318,-0.0018208175897598267
1772721307427794200,10.210794189453125,0.14184951782226562,-0.04541351646184921,-0.12181521952152252
1772721307446390500,10.229390625,0.26093578338623047,-0.04595119506120682,-0.023529380559921265
1772721307464987100,10.247987060546874,0.13751888275146484,-0.050217993557453156,-0.013920456171035767
1772721307483583500,10.26658349609375,0.005962371826171875,0.02510147914290428,-0.011981353163719177
1772721307502180000,10.28518017578125,-0.08625221252441406,0.046295035630464554,-0.01826004683971405
1772721307520776700,10.303776611328125,-0.026633262634277344,0.029486283659934998,-0.05357751250267029
1772721307539373000,10.322373046875,-0.03097248077392578,0.0322006493806839,-0.06754697859287262
1772721307557969700,10.3409697265625,-0.14397239685058594,0.02565905451774597,-0.05265830457210541
1772721307576566000,10.35956591796875,-0.0909109115600586,0.01168057695031166,-0.04520446062088013
1772721307595162600,10.37816259765625,0.07648277282714844,0.04374740645289421,-0.0005897432565689087
1772721307613759000,10.396759033203125,0.011940956115722656,0.06998157501220703,0.09633209556341171
1772721307632355600,10.41535546875,-0.06043243408203125,0.025713592767715454,0.10642510652542114
1772721307650952000,10.433951904296874,-0.009296417236328125,-0.02437571808695793,0.06735243648290634
1772721307669548500,10.452548583984376,0.019166946411132812,-0.04247429221868515,0.009993091225624084
1772721307688145000,10.471144775390625,0.05808067321777344,-0.04878586530685425,-0.07224228978157043
1772721307706741500,10.489741455078125,-0.03498363494873047,-0.011851180344820023,0.009452074766159058
1772721307725337900,10.508337890625,-0.016023635864257812,-0.00882333517074585,-0.0030241310596466064
1772721307743934500,10.5269345703125,0.0670166015625,-0.027638498693704605,-0.011046737432479858
1772721307762530800,10.54553076171875,0.044643402099609375,-0.025717709213495255,0.10687506198883057
1772721307781127400,10.56412744140625,0.051486968994140625,-0.03309745341539383,0.045306622982025146
1772721307799723800,10.582723876953125,0.022394180297851562,-0.030441634356975555,0.08982987701892853
1772721307818320400,10.6013203125,-0.11791133880615234,-0.023178402334451675,-0.011974349617958069
1772721307836916700,10.619916748046874,-0.02513408660888672,-0.043306123465299606,-0.013618424534797668
1772721307855513300,10.638513427734376,0.08629417419433594,-0.0666804164648056,-0.011774048209190369
1772721307874109700,10.657109619140625,0.161285400390625,-0.04963298887014389,-0.06962104141712189
1772721307892706000,10.6757060546875,0.15795135498046875,0.012268465012311935,-0.05776333808898926
1772721307911302700,10.694302734375,-0.0050334930419921875,-0.020717576146125793,0.02391435205936432
1772721307929899300,10.712899169921876,-0.11286354064941406,-0.12583445012569427,-0.017403826117515564
1772721307948495600,10.73149560546875,-0.013776779174804688,-0.14467807114124298,0.026393070816993713
1772721307967092200,10.75009228515625,-0.08601188659667969,-0.06987327337265015,-0.028320737183094025
1772721307985688600,10.7686884765625,-0.10358810424804688,-0.05677274987101555,-0.035901740193367004
1772721308004285000,10.787284912109374,0.04243946075439453,-0.06850169599056244,-0.06501208990812302
1772721308022881500,10.805881591796876,0.014639854431152344,-0.009931003674864769,-0.0545482262969017
1772721308041478000,10.824477783203125,-0.13398170471191406,0.012362543493509293,-0.08210232108831406
1772721308060074500,10.843074462890625,-0.06181621551513672,0.019061004742980003,-0.03676122426986694
1772721308078670800,10.8616708984375,0.13463878631591797,-0.01636650785803795,0.0245373398065567
1772721308097267500,10.880267333984374,0.025277137756347656,-0.020868077874183655,0.09928068518638611
1772721308115863800,10.89886376953125,-0.2248220443725586,0.004511021077632904,0.06276730448007584
1772721308134460400,10.91746044921875,-0.09743499755859375,-0.05258718132972717,0.05907203257083893
1772721308153056800,10.936056884765625,0.130889892578125,-0.0375925712287426,-0.009790465235710144
1772721308171653400,10.9546533203125,0.21474170684814453,0.007265063002705574,0.006156735122203827
1772721308190249700,10.973249755859374,0.03299999237060547,0.024800945073366165,-0.014907702803611755
1772721308208846000,10.99184619140625,-0.21924304962158203,-0.010401522740721703,-0.038545817136764526
1772721308227442700,11.010442626953125,-0.1218109130859375,-0.054637160152196884,-0.09377804398536682
1772721308246039000,11.0290390625,0.2334280014038086,-0.030273176729679108,-0.024159446358680725
1772721308264635600,11.0476357421875,0.23484039306640625,-0.014063882641494274,0.039273522794246674
1772721308283232000,11.06623193359375,-0.1449136734008789,0.023328516632318497,0.03918004781007767
1772721308301828400,11.084828369140626,-0.1740884780883789,0.022706035524606705,0.02541738748550415
1772721308320425000,11.103425048828125,-0.003131866455078125,0.0418136902153492,-0.01043584942817688
1772721308339021300,11.122021240234375,0.08518314361572266,0.00638965517282486,-0.06435781717300415
1772721308357618000,11.140617919921874,-0.04410552978515625,0.025495365262031555,-0.07725599408149719
1772721308376214300,11.15921435546875,-0.08782100677490234,0.052559252828359604,-0.05462126433849335
1772721308394811000,11.177810791015625,-0.07152843475341797,0.05101335793733597,-0.04449291527271271
1772721308413407200,11.1964072265625,0.04348182678222656,-0.016863655298948288,-0.048549994826316833
1772721308432003600,11.215003662109375,0.1431875228881836,-0.08588813990354538,0.017648309469223022
1772721308450600200,11.23360009765625,0.04579925537109375,-0.041216347366571426,0.06014294922351837
1772721308469196500,11.252196533203126,-0.20465660095214844,0.0064287930727005005,0.06443165242671967
1772721308487793200,11.270793212890625,0.03472328186035156,0.0014178575947880745,0.051418840885162354
1772721308506389500,11.289389404296875,0.11815643310546875,0.024405714124441147,-0.028731659054756165
1772721308524985900,11.30798583984375,0.08567333221435547,0.026959076523780823,-0.014001265168190002
1772721308543582500,11.32658251953125,-0.12038803100585938,0.04648314788937569,0.03644119203090668
1772721308562178800,11.3451787109375,-0.11193275451660156,0.02970987558364868,0.02454565465450287
1772721308580775400,11.363775390625,0.04536724090576172,0.024377500638365746,0.04290346801280975
1772721308599371800,11.382371826171875,0.10233783721923828,0.018986735492944717,-0.08669315278530121
1772721308617968400,11.400968505859375,-0.07625770568847656,0.0666479617357254,0.05803114175796509
1772721308636564700,11.419564697265624,-0.25600719451904297,0.03079104796051979,0.059476107358932495
1772721308655161000,11.4381611328125,-0.09517765045166016,-0.017397256568074226,0.08834287524223328
1772721308673757700,11.4567578125,0.22104644775390625,-0.03285939246416092,-0.049747273325920105
1772721308692354000,11.47535400390625,0.6975879669189453,-0.05600860342383385,0.0018323808908462524
1772721308710950400,11.493950439453124,0.12884521484375,0.11587908864021301,0.02070733904838562
1772721308729547000,11.512547119140624,-0.39104461669921875,0.1291428953409195,0.11798478662967682
1772721308748143400,11.531143310546875,-0.31165504455566406,0.05540691316127777,0.08117863535881042
