time,seconds_elapsed,z,y,x
1772556089878970600,0.071970703125,0.46183892834782597,-0.05757876713499426,-0.01726823792606592
1772556089888963600,0.081963623046875,0.4265595251739025,-0.02928136833552271,0.0014582359842956066
1772556089898956500,0.09195654296875,0.27617197982966896,-0.03454170001652092,0.039584553021937606
1772556089908949500,0.101949462890625,0.03536825050115585,-0.035276115238294006,0.0978926573447883
1772556089918941700,0.111941650390625,-0.12881751857101917,-0.023966164662130175,0.09274784180223941
1772556089928934700,0.1219345703125,-0.24193594822883605,-0.018161058579944073,0.04343151077367365
1772556089938927600,0.131927734375,-0.24208441678881643,-0.017323840570822358,-0.05367138443291187
1772556089948920800,0.1419208984375,-0.193444012260437,-0.03737553520295769,-0.11194142176769672
1772556089958913500,0.15191357421875,-0.14259586855471135,-0.02815214510988444,-0.147638027440384
1772556089968905700,0.16190576171875,-0.0830541307836771,-0.002916398903355002,-0.1262165422923863
1772556089978898700,0.171898681640625,-0.02805763522684574,-0.005552556093223393,-0.07742313915938139
1772556089988891600,0.1818916015625,0.035247254469990726,0.008965908200666308,-0.04784304360561072
1772556089998884600,0.191884521484375,0.10430910025835037,-0.008564122466742992,0.003673281685262918
1772556090008876500,0.20187646484375,0.17360475480258464,-0.016534772552363575,0.03998772699534893
1772556090018869800,0.211869873046875,0.21789397838413713,-0.0492767296705395,0.02794840269871056
1772556090028862700,0.22186279296875,0.17624796278774738,-0.06759122524652629,0.03199818954616785
1772556090038855700,0.231855712890625,0.11659575037956237,-0.0773989545661956,0.02265577618330717
1772556090048847600,0.24184765625,0.02845978628695011,-0.0666994275059551,0.015599939387664198
1772556090058840800,0.2518408203125,-0.05745265653729439,-0.05253153021540492,0.036240211030095816
1772556090068833500,0.26183349609375,-0.13433949686288832,-0.02747212695647031,0.017637874956056475
1772556090078826800,0.27182666015625,-0.15232815801799296,-0.018903657108172774,0.007505407194048166
1772556090088818400,0.281818359375,-0.15855682327449322,0.0011837298918515443,-0.031029929035902022
1772556090098811600,0.291811767578125,-0.10978665488660334,0.004995360601879656,-0.06646130790114402
1772556090108804600,0.3018046875,-0.06892331410050392,0.039506117490865286,-0.06921228710971772
1772556090118797600,0.311797607421875,-0.015688567519187926,0.050237500994093715,-0.06979008699767292
1772556090128790500,0.32179052734375,0.03600830197036266,0.05088880450967699,-0.06475764578841627
1772556090138782700,0.33178271484375,0.09167349056899547,0.06624945524875074,-0.03796893451884389
1772556090148775700,0.341775634765625,0.10210954438745976,0.057232949372008436,-0.009102978583797812
1772556090158768600,0.3517685546875,0.10353694684207439,0.042783970117755234,-0.009569573182240127
1772556090168761900,0.361761962890625,0.09283201295435428,0.03495773347150534,0.004269494012743234
1772556090178753500,0.37175341796875,0.0572691166639328,0.025817564682476223,0.016967866740003227
1772556090188746800,0.381746826171875,-0.008083353212475776,0.017264803859964012,0.014848463433235882
1772556090198739700,0.39173974609375,-0.06774491797089577,0.007082176813296973,0.006290624576807022
1772556090208732700,0.401732666015625,-0.1045031615257263,-0.0028511516474187372,0.011260302748158573
1772556090218724600,0.411724609375,-0.1187865384221077,0.0005966141862794757,-0.011052505216374993
1772556090228717600,0.421717529296875,-0.11747253321409225,0.0018177900116890667,-0.02389510871991515
1772556090238710500,0.43171044921875,-0.09260755654871464,0.004178089402243495,-0.03924779534824192
1772556090248703700,0.441703857421875,-0.037785833036899565,0.011203384929150342,-0.0313970087826252
1772556090258696400,0.451696533203125,0.020631284618377686,0.0067293082550168035,-0.03517148582004011
1772556090268688600,0.461688720703125,0.07886486240029335,-0.01632237191069871,-0.03409077791124582
1772556090278681900,0.471681884765625,0.10742577097415923,-0.018889336321875453,-0.003302621741965413
1772556090288674600,0.481674560546875,0.11408464434146881,-0.02199088253378868,-0.0018549802169203758
1772556090298667800,0.491667724609375,0.11039163504242896,-0.04105780391227454,-0.00878229526206851
1772556090308659500,0.501659423828125,0.08844692973792552,-0.04858984338492155,0.0037516806837171314
1772556090318652700,0.511652587890625,0.07027823584079743,-0.052049116993322965,-0.004335398855805397
1772556090328645600,0.521645751953125,0.037626843082904815,-0.052256366535834965,-0.021091449476033447
1772556090338638600,0.531638671875,0.029869068562984463,-0.056868938365206116,-0.0013897738579660653
1772556090348630800,0.541630859375,0.015988427248597146,-0.06234305892735719,-0.018671601917967198
1772556090358623700,0.551623779296875,-0.017318214547634124,-0.05005593388210982,-0.05138685369230807
1772556090368616700,0.56161669921875,-0.012306523865461348,-0.05422014088947326,-0.03852189222648739
1772556090378609700,0.571609619140625,-0.029276947888731954,-0.05569722770471126,-0.0493361317075789
1772556090388601600,0.5816015625,-0.01718728164434433,-0.08292137124948203,-0.035882410568371416
1772556090398594600,0.591594482421875,-0.0025198738664388657,-0.09161525757573545,-0.041572146642580625
1772556090408587800,0.601587890625,0.03759644794464111,-0.1047434365550056,-0.029779490583389995
1772556090418580700,0.611580810546875,0.044350013858079906,-0.1183511792121455,-0.02675181332528591
1772556090428573700,0.62157373046875,0.06319967575669289,-0.12477028900682925,-0.016365736128389836
1772556090438565600,0.631565673828125,0.0691243896305561,-0.11203969451040029,-0.010445625364407896
1772556090448558600,0.64155859375,0.04446341110467911,-0.09817940186429769,0.008519844933599233
1772556090458551600,0.651551513671875,0.019590835654735565,-0.06887973068710417,0.018642521953955292
1772556090468544800,0.661544677734375,0.00036415713727474213,-0.029296346708945927,0.021783085002005098
1772556090478536700,0.67153662109375,-0.03396948961913585,-0.00047247634995728726,0.0007071984212845563
1772556090488529700,0.68152978515625,-0.03310673530995845,0.0448272394483909,-0.013403744517639279
1772556090498523000,0.69152294921875,-0.028922143101692197,0.08484948976784944,-0.03398417573161423
1772556090508515600,0.701515625,-0.04701075749993324,0.11198398226778954,-0.048245340796187516
1772556090518507500,0.711507568359375,-0.039348260048031804,0.12175207369681447,-0.0620453911550343
1772556090528500500,0.72150048828125,-0.045886721906065936,0.15077683692276478,-0.07119125903248787
1772556090538493700,0.73149365234375,-0.028334114080667494,0.15792725666668264,-0.06953567384518683
1772556090548486400,0.741486328125,-0.019463994404673574,0.13359255095310507,-0.08081248933672905
1772556090558478600,0.751478515625,-0.01014145478606224,0.12173395351823418,-0.0948277168162167
1772556090568471600,0.761471435546875,0.002782324194908142,0.10685520454458891,-0.07555157313384116
1772556090578464500,0.771464599609375,0.028130700463056563,0.08487144587133079,-0.07135733631439506
1772556090588457500,0.78145751953125,0.04419453103542328,0.06422774016279727,-0.0611765724312514
1772556090598450400,0.791450439453125,0.039297406643629074,0.0652749476607889,-0.03613960019983351
1772556090608442600,0.801442626953125,0.024649288088083265,0.04403448163550347,-0.028110388327389955
1772556090618435600,0.811435546875,0.021052724900841712,0.03483622598368674,-0.012818638106063008
1772556090628428500,0.821428466796875,0.012964110991358756,0.026025471812114117,0.0020491876147687433
1772556090638421500,0.83142138671875,0.0195458274692297,0.031848077018372715,0.00468187420591712
1772556090648413400,0.841413330078125,-0.003804652979969978,0.031233342653512953,0.0024471008911728857
1772556090658406400,0.851406494140625,-0.0012777648508548736,0.027044658792018887,0.015005992082506418
1772556090668399600,0.861399658203125,-0.024332477223873137,0.008318915534019469,0.009069222444668412
1772556090678392300,0.871392333984375,-0.0378016151279211,0.0057099020794034,-0.023955972061678765
1772556090688384500,0.881384521484375,-0.025393968975543975,-0.005329122600890696,-0.017847206857800484
1772556090698377700,0.891377685546875,-0.037034722408652306,-0.03967508084960281,-0.010564210242778063
1772556090708370400,0.901370361328125,-0.029353520256280897,-0.0784939467286691,-0.005586056504026055
1772556090718363600,0.91136376953125,-0.01523614757657051,-0.11622684400193392,-0.0016439678147435188
1772556090728355600,0.92135546875,-0.016099486407637593,-0.15907774187605828,0.02042041834667325
1772556090738348500,0.9313486328125,-0.01907470282614231,-0.18127112471200524,0.030713556563109156
1772556090748341500,0.941341552734375,-0.0023135376393795012,-0.19135485796146093,0.04105608687922358
1772556090758334700,0.951334716796875,-0.006517419070005416,-0.1771163796527311,0.052590092002227896
1772556090768326400,0.961326416015625,0.03296995718777179,-0.1789910509508103,0.05147285147532821
1772556090778319600,0.971319580078125,0.06930149976313114,-0.16271145873591303,0.03517258179858327
1772556090788312300,0.981312255859375,0.0788321291744709,-0.1199599661156535,0.022143808073177933
1772556090798305500,0.991305419921875,0.08175883027613162,-0.08512973148133605,0.020945684329792855
1772556090808298500,1.001298583984375,0.0913800605803728,-0.043284247790090734,-0.009855842777714133
1772556090818290400,1.01129052734375,0.07731704843640327,-0.012304697234556078,-0.03338416401185095
1772556090828283600,1.02128369140625,0.0473959574252367,0.022712657469697296,-0.051932651006802916
1772556090838276600,1.031276611328125,0.032925533524155615,0.0713602223912254,-0.05945230592191219
1772556090848269600,1.04126953125,0.003688333123922348,0.11158767642658203,-0.09909319224096834
1772556090858261500,1.051261474609375,-0.016953472888469694,0.11701591202039271,-0.10406133604235947
1772556090868254500,1.06125439453125,-0.03183540019989013,0.13023352284878492,-0.10321735949888824
1772556090878247400,1.071247314453125,-0.0569943913757801,0.13732684211060403,-0.1024029013108462
1772556090888240600,1.08124072265625,-0.072858315461874,0.10449212867505847,-0.10494279505200683
1772556090898232600,1.091232666015625,-0.05731880102455616,0.09237528216280043,-0.059121539597585794
1772556090908225500,1.1012255859375,-0.04897650461494922,0.057478850424475966,-0.03813376969173551
1772556090918218500,1.111218505859375,-0.026126374903321266,0.02212415352463722,-0.012825433173030615
1772556090928211500,1.12121142578125,-0.015866846695542336,-0.009902823724597692,0.017269699230790136
1772556090938203600,1.13120361328125,0.01784253068268299,-0.04078095973227173,0.040638153728097676
1772556090948196400,1.1411962890625,0.031012393379211425,-0.06948788918070495,0.03645911447778344
1772556090958189600,1.151189453125,0.0619441227376461,-0.05716594855040311,0.04172448766008019
1772556090968182500,1.1611826171875,0.06026128421723842,-0.05587948893643915,0.04163264465816319
1772556090978175700,1.17117578125,0.09940671516954898,-0.03989095208998769,0.0007012070719152689
1772556090988167400,1.18116748046875,0.15259469999969005,-0.06550422637201846,-0.06906155352741479
1772556090998160600,1.19116064453125,-0.030878537866473196,-0.046666181845962995,-0.05507843821924179
1772556091008153300,1.2011533203125,-0.29617607246041294,0.15593363516405223,-0.02406103987134993
1772556091018146600,1.211146484375,-0.3669219258129596,0.21529639963898806,0.00032945115007460116
1772556091028138800,1.221138671875,-0.1421755973160267,0.101625815991126,-0.045410373098589474
1772556091038131500,1.23113134765625,0.17650749050676823,-0.054212834365852176,-0.11417889849618076
1772556091048124700,1.241124755859375,0.40629765838980675,-0.1699023566206917,-0.1392653358925134
1772556091058117600,1.25111767578125,0.4660474859535694,-0.1844532984120771,-0.0816080966938287
1772556091068109600,1.261109619140625,0.255414438483119,-0.09533782176282256,0.05942563711069524
1772556091078102500,1.2711025390625,-0.056443771755695336,-0.016401063170097766,0.2126630189280957
1772556091088095500,1.281095458984375,-0.3116998048067093,0.029252726762928068,0.2812396384827793
1772556091098088400,1.29108837890625,-0.39701369721591473,0.07446885593105107,0.18378844129517674
1772556091108080600,1.30108056640625,-0.3088309713721275,0.06364299907740205,0.01011040206067264
1772556091118073300,1.3110732421875,-0.09653320555984973,0.0171512970155105,-0.1728490410644561
1772556091128066600,1.321066650390625,0.06070026015639305,-0.02071077959537506,-0.3015799042653292
1772556091138059500,1.3310595703125,0.13152502396404742,-0.022390293647535146,-0.2887082938630134
1772556091148051500,1.341051513671875,0.12872165698111057,-0.009415113272890447,-0.17762743444740772
1772556091158044700,1.351044677734375,0.11085106924772262,0.0130940209813416,-0.06449570691660046
1772556091168037400,1.361037353515625,0.12195523158609867,-0.0025624343665316698,0.051163931656628844
1772556091178030600,1.371030517578125,0.17640519917607306,-0.03504500989615917,0.09152421829141676
1772556091188022500,1.3810224609375,0.21084932056963443,-0.07798446283657104,0.09685615390390157
1772556091198015500,1.391015380859375,0.16325754831135272,-0.10448840234801172,0.0784824389539659
1772556091208008400,1.401008544921875,0.06617196956574917,-0.11356062046736479,0.04792151566930115
1772556091218001700,1.411001708984375,-0.07987199361622332,-0.10318217858765273,0.03743913849107921
1772556091227993600,1.42099365234375,-0.1842512365013361,-0.06151997904144227,0.03200710350498557
1772556091237986600,1.430986572265625,-0.21863807474970817,-0.025109416413120925,-0.016039061457291243
1772556091247979500,1.4409794921875,-0.1829693799972534,-0.009493110412545502,-0.02976831160224974
1772556091257972500,1.450972412109375,-0.08837854067683219,0.006724522482044994,-0.03406739703565836
1772556091267964700,1.460964599609375,-0.007739654341340064,0.012435264811664818,-0.06529072975181043
1772556091277957400,1.470957275390625,0.03494739474058151,0.018088760528713464,-0.06015935821272433
1772556091287950600,1.48095068359375,0.06262158360779285,0.019973697492480277,-0.03156586254350841
1772556091297943600,1.490943603515625,0.07521452319920062,0.021077968939952552,-0.014118833984434604
1772556091307936500,1.5009365234375,0.07797522008419036,0.011806465388834475,0.013943331287056207
1772556091317928400,1.510928466796875,0.08051905934810638,0.0006463350795209408,0.011666180135309696
1772556091327921700,1.520921630859375,0.07272270638346671,-0.005217661583051085,0.0011661942351609469
1772556091337914400,1.530914306640625,0.06406652171909809,-0.027486228547058997,-0.009956599738448858
1772556091347907600,1.540907470703125,0.021945289826393127,-0.010930742000229657,-0.01289258012510836
1772556091357899500,1.5508994140625,-0.031388825476169585,0.0016912410225719213,-0.010666282377764583
1772556091367892500,1.560892578125,-0.0855856950879097,0.018159999134019018,0.0040657150689512485
1772556091377885700,1.5708857421875,-0.10266191757321357,0.03298457023501396,0.011963847907632589
1772556091387878400,1.58087841796875,-0.0742395406872034,0.029415808370150624,-0.005354951161891222
1772556091397870600,1.59087060546875,-0.033653263276815414,0.02363324291333556,-0.039629853468388314
1772556091407863600,1.600863525390625,0.009810615396499633,0.018313911054097114,-0.06508483191616833
1772556091417856500,1.6108564453125,0.033116672182083126,-0.009386215971969068,-0.07506539705209433
1772556091427849500,1.620849365234375,0.07812310412228107,-0.03417403574790805,-0.055305050049349665
1772556091437841400,1.63084130859375,0.09678396545052528,-0.0695219375807792,-0.044847003594785925
1772556091447834400,1.64083447265625,0.10315408500432968,-0.08431965720746666,-0.0180734898943454
1772556091457827600,1.65082763671875,0.071185413813591,-0.10313691467382013,0.007717661705240607
1772556091467820500,1.660820556640625,0.043530514168739314,-0.11849109913948923,0.03374474095255136
1772556091477812500,1.6708125,0.017363807255029676,-0.0954271805467084,0.027718320269882676
1772556091487805700,1.6808056640625,0.002539163088798523,-0.0962095630960539,0.04076477578245103
1772556091497798400,1.69079833984375,-0.03207330060899258,-0.06924940424971282,0.05780724212862551
1772556091507791600,1.70079150390625,-0.03558452360033989,-0.029622984847426412,0.03793159818314016
1772556091517784000,1.7107841796875,-0.05229483538269997,-0.0016152897095307707,0.010039528781548141
1772556091527777300,1.72077734375,-0.0550993714094162,0.025218575876019892,-0.02620572374984622
1772556091537770000,1.73077001953125,-0.05864858832359313,0.056623439171537754,-0.04945712773874402
1772556091547763200,1.74076318359375,-0.04167115003764629,0.0934930341463536,-0.04890796942338347
1772556091557755000,1.7507548828125,-0.0358843833297491,0.10875533907748758,-0.05677570712380111
1772556091567748000,1.760748046875,0.0013823942691087723,0.12621040481254459,-0.08409034196361899
1772556091577741000,1.770740966796875,0.016532032606005668,0.1328811878133565,-0.06947086498066783
1772556091587734300,1.780734375,0.030030981126427648,0.10562336119469255,-0.0651812049627304
1772556091597726200,1.790726318359375,0.055015784779191015,0.07694631542786956,-0.06404321390874683
1772556091607719200,1.80071923828125,0.04522913478016853,0.0457156761880964,-0.056643824372440574
1772556091617712000,1.810712158203125,0.06323007089495658,0.017158640071749685,-0.03853562849089503
1772556091627705000,1.820705078125,0.050558805370330806,-0.005695837021432817,-0.03510543484650552
1772556091637698000,1.830697998046875,0.056901452395319935,-0.03516041643675417,0.005503638917580247
1772556091647690000,1.84068994140625,0.05921615907847881,-0.04167286707069725,0.012323401935026049
1772556091657683200,1.85068310546875,0.045401568737626075,-0.03999017468076199,-0.0013005612045526504
1772556091667676200,1.86067626953125,0.02981879968047142,-0.04916683955527842,-0.006587196370586752
1772556091677669000,1.870669189453125,0.015339607951045036,-0.05477412151042372,-0.02256802483461797
1772556091687661000,1.8806611328125,-0.03513736435472965,-0.06454977519139647,-0.03682217563651502
1772556091697654000,1.890654052734375,-0.059495560541748996,-0.0836239665608853,-0.08404175358153879
1772556091707647000,1.90064697265625,-0.06527005228996277,-0.09107168875094503,-0.10452179316096007
1772556091717640200,1.91064013671875,-0.07399871766865253,-0.11235117161236703,-0.10602591411359608
1772556091727632100,1.920632080078125,-0.07715572039484977,-0.12070472006835042,-0.09846921512372792
1772556091737625000,1.930625,-0.0530336710512638,-0.13048468459825963,-0.034207536158710715
1772556091747618300,1.940618408203125,-0.025296353819966314,-0.1511470219420269,0.034019393175467844
1772556091757611000,1.950611083984375,0.029321371552348135,-0.18315050871782004,0.1412447462067008
1772556091767603200,1.960603271484375,0.05115735578536987,-0.18337339422088114,0.20419526950791478
1772556091777596000,1.970595947265625,0.09997603949010371,-0.20494221541769803,0.2648432149551809
1772556091787589000,1.980589111328125,0.1274427230864763,-0.16859003191310912,0.25506569811068475
1772556091797582000,1.99058203125,0.14439853406250475,-0.12523593375720082,0.1876031772777438
1772556091807574000,2.000573974609375,0.14035831876099109,-0.04501633227970451,0.1014652551345527
1772556091817567200,2.010567138671875,0.1019721817433834,0.06216678904499858,-0.03568557282201946
1772556091827560200,2.020560302734375,0.041589901494979854,0.17022954274844376,-0.15518486262336373
1772556091837553200,2.03055322265625,-0.012623334729671478,0.25739735592864454,-0.2552827749274671
1772556091847545000,2.040545166015625,-0.09236205735504627,0.31991620981432495,-0.30905718134343624
1772556091857538300,2.050538330078125,-0.1376601657181978,0.3495665575927123,-0.3198693749979138
1772556091867531000,2.060531005859375,-0.16512568027079105,0.33090923992842436,-0.26605405204966665
1772556091877524200,2.070524169921875,-0.1667126572012901,0.2559539156546816,-0.19404190508835018
1772556091887516000,2.080515869140625,-0.13502572556138037,0.1589314652731642,-0.10875241646803915
1772556091897509000,2.090509033203125,-0.06595978811979293,0.06377268987167627,-0.026858634700626133
1772556091907502000,2.100502197265625,0.0046223991036415096,-0.037727490445785224,0.05942220304459333
1772556091917495000,2.1104951171875,0.07849310647845267,-0.1302356052080169,0.11225209515206515
1772556091927487200,2.1204873046875,0.15609014090001583,-0.20047131708133964,0.1618168479837477
1772556091937480200,2.130480224609375,0.18193945242762566,-0.2422028920693323,0.14784494818933308
1772556091947473200,2.14047314453125,0.19555822793543337,-0.24550376024562864,0.11501308429799974
1772556091957466000,2.150466064453125,0.16092939762473105,-0.21598474722933023,0.08012370335496961
1772556091967458000,2.1604580078125,0.10890753396451473,-0.19209621438067406,0.04062836298644543
1772556091977451000,2.170450927734375,0.03250292419791222,-0.1530399960817769,0.0035196254935115573
1772556091987444200,2.1804443359375,-0.0459451740950346,-0.12273129399251193,-0.01077251923121512
1772556091997437000,2.19043701171875,-0.10437924288511276,-0.08516644676253199,-0.023485212744772433
1772556092007429000,2.20042919921875,-0.12436229272782802,-0.05507423696815967,-0.027107714090868828
1772556092017422000,2.210422119140625,-0.10517653074264526,-0.05018014478366822,-0.057834568526968354
1772556092027415000,2.2204150390625,-0.08191489762067794,-0.030374095475673674,-0.046589682543650264
1772556092037408000,2.230407958984375,-0.05688625482618809,-0.04175312923267484,-0.04516534882895648
1772556092047400000,2.24039990234375,-0.013657938474416731,-0.05689202697984874,-0.046800914141535754
1772556092057393200,2.25039306640625,0.020789105528593064,-0.06831731103137136,-0.07956964966878294
1772556092067386000,2.26038623046875,0.02313888352513313,-0.055591575373150404,-0.07931070647165178
1772556092077379300,2.27037939453125,0.030842882031202314,-0.008611249544098972,-0.08384995733648538
1772556092087371000,2.28037109375,0.009728197810053825,0.03787910081092268,-0.031202582189068195
1772556092097364200,2.2903642578125,0.04789923077225685,0.08344594311285763,0.013950272484496234
1772556092107357000,2.30035693359375,0.09056056089103222,0.12949395652785897,0.043266018013656135
1772556092117350100,2.31035009765625,0.1024468135178089,0.16047847551945596,0.051191696446388955
1772556092127342300,2.32034228515625,0.04762158287465572,0.17770996163170782,0.021053309422731398
1772556092137335000,2.3303349609375,-0.016098317363858222,0.17770831766389308,0.0018133330322802066
1772556092147328300,2.340328369140625,-0.048287937828898425,0.1245168257024139,-0.05357201571166515
1772556092157321200,2.3503212890625,-0.06441138963401317,0.06614643326569349,-0.06952559084258973
1772556092167313200,2.360313232421875,-0.054793081939220424,-0.007768003652989864,-0.06765928551405667
1772556092177306000,2.37030615234375,-0.056897945263981814,-0.06403788014650344,-0.05174070863127708
1772556092187299000,2.380299072265625,-0.04281798198521137,-0.11837876133881509,-0.005278524924814701
1772556092197292000,2.3902919921875,-0.031659459111094475,-0.11488770435266196,0.03460829897932708
1772556092207284200,2.4002841796875,0.0032779987573623654,-0.09183401489295065,0.06891922244727611
1772556092217277000,2.41027685546875,0.03731587743759155,-0.0473237324392423,0.06313618206642568
1772556092227270100,2.420270263671875,0.0872018981128931,0.004734919567406177,0.001830138036608696
1772556092237263000,2.43026318359375,0.09766834706962108,0.06431103453207761,-0.04209280951581895
1772556092247255000,2.440255126953125,0.07577683325707912,0.06800981598477811,-0.09258490632548928
1772556092257248300,2.450248291015625,0.05215571917295456,0.09036617083009332,-0.12651662121750415
1772556092267241000,2.460240966796875,0.004355272600054741,0.0614809987379238,-0.09115626176185905
1772556092277234200,2.470234130859375,-0.0599181698679924,0.012684672995470464,-0.06012918227016925
1772556092287226000,2.48022607421875,-0.10263795217573642,-0.06019705987460911,-0.02528093705512583
1772556092297219000,2.490218994140625,-0.1272515844285488,-0.11519976597651839,0.03519398991279304
1772556092307212000,2.5002119140625,-0.11425766282081604,-0.14594444833025336,0.028944281868264077
1772556092317205200,2.510205322265625,-0.055046764439344406,-0.18011384443566203,0.041572731164470314
1772556092327197200,2.520197265625,-0.012370821273326874,-0.1857682900007814,0.04883760760091245
1772556092337190100,2.530190185546875,0.055503276035189626,-0.17326401507351546,0.039173341872543094
1772556092347183000,2.54018310546875,0.1023340007930994,-0.15963676399830729,0.03781878545843065
1772556092357176000,2.550176025390625,0.1155658228099346,-0.10845347005408257,0.05569580293260514
1772556092367168300,2.560168212890625,0.11675298676788806,-0.04503061653338372,0.03161108992472291
1772556092377161000,2.570160888671875,0.09274608823657035,-0.005443908086977899,0.024884704279154537
1772556092387154200,2.580154296875,0.04281622841954231,0.052828978792019185,0.010595628294348717
1772556092397147100,2.590147216796875,0.006514496460556984,0.09457684732768684,0.0038867052402347326
1772556092407139000,2.60013916015625,-0.06266366918385029,0.11655055953096598,-0.02375591944493353
1772556092417132000,2.610132080078125,-0.10303250445127486,0.12205712105799466,-0.06700820119418203
1772556092427125200,2.620125244140625,-0.1126467204928398,0.13268884357903152,-0.07672821569778025
1772556092437118000,2.630117919921875,-0.1331125854164362,0.13491481253281234,-0.09732450206801295
1772556092447110100,2.640110107421875,-0.11489829881191253,0.11163509576488286,-0.10093304795399308
1772556092457103000,2.65010302734375,-0.07491524799168109,0.09619736120160668,-0.12430661701783537
1772556092467096000,2.660095947265625,-0.007532733592391014,0.07100823061577975,-0.11676416574902831
1772556092477089300,2.67008935546875,0.05028992530107498,0.04182020311951637,-0.09169409496560692
1772556092487081000,2.6800810546875,0.10838847852647304,0.011989128479361533,-0.062776554973796
1772556092497074200,2.69007421875,0.11853110235631466,-0.019237820965982973,-0.027899522055685518
1772556092507067100,2.700067138671875,0.13279168289899826,-0.02289214222244918,0.009962737218290567
1772556092517059800,2.710059814453125,0.1089654016315937,-0.03279281052257865,0.04395626530013978
1772556092527051800,2.7200517578125,0.062493573313951487,-0.05862075046859681,0.07050466500781476
1772556092537044700,2.730044677734375,0.022905074769258498,-0.0852927765559405,0.05160188468247652
1772556092547038000,2.740037841796875,-0.009489712879061698,-0.09024952218048274,0.03602715280130506
1772556092557030700,2.75003076171875,-0.03810498198866844,-0.10921444448921828,0.03675678225010633
1772556092567022800,2.76002294921875,-0.05681318958997726,-0.13261866441965103,0.013925138043239712
1772556092577015600,2.770015625,-0.07579495343565941,-0.14311159952450542,0.006259791047126055
1772556092587008800,2.7800087890625,-0.06481237165033817,-0.14681249986905603,-0.008633607506379485
1772556092597001700,2.790001708984375,-0.029271687191724776,-0.12811415607463567,-0.010820157765224575
1772556092606993700,2.79999365234375,-0.00196633163690567,-0.1091679384663701,-0.014895955836772917
1772556092616986600,2.809986572265625,0.01841594665646553,-0.0760191175803542,-0.002859627214819193
1772556092626979800,2.819979736328125,0.024250059637427327,-0.05865392208583653,-0.0031413667656481265
1772556092636972500,2.82997265625,0.03631459144055843,-0.032443595226109026,0.00797002903111279
1772556092646964700,2.83996484375,0.04415186093747615,0.012388649190962314,0.026415055651590226
1772556092656957700,2.849957763671875,0.047312955316901203,0.03557056814022362,0.006077201021835207
1772556092666950700,2.85995068359375,0.021443770045042037,0.05677665697187185,-0.016741437572985886
1772556092676944000,2.86994384765625,0.017146949633955955,0.049162638304196295,-0.02550473587363958
1772556092686935600,2.879935546875,0.009012743017077446,0.07662340361643583,-0.05380955079458653
1772556092696928800,2.8899287109375,-0.009107435563206673,0.0618820172868669,-0.06746683168187737
1772556092706921700,2.899921630859375,0.0005067804783582687,0.07693119092397391,-0.08901683858036995
1772556092716914700,2.909914794921875,-0.014217325922846793,0.04669204693958163,-0.08473433895558119
1772556092726907000,2.919906982421875,-0.023081600379943848,0.026886399490386247,-0.08767886797487735
1772556092736899800,2.92989990234375,-0.012933131331205367,0.030055859839357435,-0.0823385298602283
1772556092746892800,2.939892822265625,-0.028220716834068297,0.02491254213415086,-0.03928783509768546
1772556092756885800,2.9498857421875,0.00838905816078186,0.013773418080247938,-0.02596343942657113
1772556092766877700,2.959877685546875,0.017593524357676506,0.00019734920300543306,-0.0006170359198004007
1772556092776870700,2.96987060546875,0.010607318732142448,-0.00720353817064315,0.009688888712972401
1772556092786863900,2.97986376953125,0.04279635467529297,-0.03624974604342133,0.008628054548427463
1772556092796855800,2.989855712890625,0.031124037060141562,-0.048054603997059166,0.02307831244431436
1772556092806848800,2.999848876953125,0.012692892834544181,-0.08724438554774969,0.017367971973493695
1772556092816841700,3.009841796875,-0.01039630632996559,-0.0951241059469059,0.027716274443268775
1772556092826834700,3.019834716796875,-0.02390051554739475,-0.09801949859485029,0.007595715826004743
1772556092836827000,3.029826904296875,-0.035443069303035736,-0.09205792330931871,-0.0165835435975343
1772556092846819600,3.039819580078125,-0.036034605455398556,-0.06528360589127988,0.012028656772151588
1772556092856812800,3.049812744140625,-0.031075521743297575,-0.05818272437751293,0.00004763853400945663
1772556092866805800,3.0598056640625,-0.027628011637926102,-0.03382229970078915,-0.0011946896772831678
1772556092876797700,3.069797607421875,-0.01625263114273548,-0.011418269788846374,0.003757087511196732
1772556092886790700,3.079790771484375,0.003938508492708206,-0.002731836116686463,-0.013381971077248454
1772556092896784000,3.089783935546875,0.02247720474600792,0.0035139264050871133,-0.03038534752205014
1772556092906776600,3.099776611328125,0.03204290547072887,-0.0017246683681383728,-0.02581694362796843
1772556092916768800,3.109768798828125,0.02632218973636627,0.005281849393062294,-0.024415552397444844
1772556092926761700,3.11976171875,0.01926817957162857,-0.0014069807210937142,-0.027959435549378395
1772556092936754700,3.129754638671875,0.009209726893901824,-0.013995938257127999,-0.02026245130598545
1772556092946748000,3.139747802734375,0.00976326912343502,0.008549911278299988,-0.02244111051931977
1772556092956739600,3.149739501953125,-0.01481529181599617,0.01449314718954265,-0.02771839333511889
1772556092966732800,3.15973291015625,-0.023388474372029303,0.007860285046324134,-0.03464928857684135
1772556092976725800,3.169725830078125,-0.03674772216081619,0.03064626348055899,-0.050853404402732845
1772556092986718700,3.17971875,-0.05491466249227524,0.0497317799616605,-0.027819004165381193
1772556092996710700,3.189710693359375,-0.05855389577746391,0.06750040515791625,0.0018839140504598615
1772556093006703900,3.199703857421875,-0.045725978386402126,0.08713785643335431,-0.002347074582800269
1772556093016696600,3.209696533203125,-0.03739361884891987,0.0935160131631419,0.00062229661680758
1772556093026689800,3.219689697265625,-0.01830138036608696,0.09797818020377308,0.007516293914243579
1772556093036681700,3.229681640625,-0.02721592370569706,0.09211867705322802,0.011226838869974016
1772556093046674700,3.2396748046875,-0.01521568931043148,0.06969579631034284,-0.01224719489365816
1772556093056668000,3.24966796875,0.010837035834789276,0.05977894406039268,-0.0293980900503695
1772556093066660600,3.25966064453125,0.03764554778337478,0.043214214761182666,-0.056412134508416055
1772556093076652800,3.26965283203125,0.035600305691361425,0.019158581717312335,-0.06176153271235525
1772556093086645800,3.279645751953125,0.07501286314725876,-0.02649608499854803,-0.061424336647242304
1772556093096638700,3.289638671875,0.08135434112846851,-0.06694540162365883,-0.0454841324545443
1772556093106631700,3.299631591796875,0.04474807326495647,-0.09546711069829761,-0.0368760247156024
1772556093116623600,3.30962353515625,0.023873043018579482,-0.12502210834342986,-0.036146322201564905
1772556093126616800,3.319616943359375,0.0412047015696764,-0.13509838893879203,-0.0418035442456603
1772556093136609800,3.32960986328125,0.03379880922734737,-0.16333404761366546,-0.06464300643280148
1772556093146602800,3.339602783203125,0.07050795294344425,-0.19900036774594335,-0.07189955343231558
1772556093156594700,3.3495947265625,0.11603344032168388,-0.20654983327742665,-0.05261128092072904
1772556093166588000,3.359587890625,0.11951660626232623,-0.23039182357061652,-0.015741685945913193
1772556093176580600,3.36958056640625,0.11708850233256816,-0.22161197599396107,0.03593450608178973
1772556093186573800,3.37957373046875,0.07277180622220039,-0.18520875642187892,0.0872897225268185
1772556093196565500,3.3895654296875,0.03564180674552917,-0.13790624943375587,0.13229337798804044
1772556093206558700,3.399558837890625,0.018752046743035315,-0.0637939153227955,0.14450835111252963
1772556093216551700,3.4095517578125,-0.005406827479600906,-0.01226845687739551,0.13807342269420622
1772556093226543600,3.419543701171875,-0.048126025265455244,0.03556611116081476,0.05671791252195835
1772556093236536800,3.429536865234375,-0.06134206519126892,0.07094239883795381,-0.010091258968785405
1772556093246529800,3.43952978515625,-0.09559504792690277,0.11952413198165594,-0.09811989022940397
1772556093256522800,3.449522705078125,-0.1110264258146286,0.16371975899562238,-0.14820808241330086
1772556093266514700,3.4595146484375,-0.10254150606393814,0.15872436186112462,-0.1494781754143536
1772556093276508000,3.4695078125,-0.08603285433351993,0.130980761019513,-0.1393997028619051
1772556093286500600,3.47950048828125,-0.0696165570616722,0.09847290491815656,-0.09694763157963752
1772556093296493800,3.489493896484375,-0.028065234011411665,0.04061846264693886,-0.04502199483551085
1772556093306485800,3.49948583984375,0.015353051954507826,0.00666197863984853,0.014099033305421471
1772556093316478700,3.509478759765625,0.03653612523674965,-0.021516396889835594,0.042803003611788154
1772556093326471700,3.5194716796875,0.06194529178142547,-0.031898163237795235,0.07913768799230456
1772556093336464600,3.529464599609375,0.058089200875163075,-0.04184062485303729,0.07757087706699967
1772556093346456800,3.539456787109375,0.05551672003865242,-0.0471380736740306,0.05556706198640168
1772556093356449800,3.54944970703125,0.04231178602874279,-0.014512509477138518,0.02088562470562756
1772556093366442800,3.55944287109375,0.028075170883536338,0.007410093593411147,-0.013641352665796875
1772556093376435700,3.569435791015625,-0.00649286915063858,0.02830660501923412,-0.0359052799873054
1772556093386427600,3.579427734375,-0.04027881889641285,0.07432137375175953,-0.0762329795267433
1772556093396420600,3.589420654296875,-0.06880816328823566,0.08047211493384093,-0.07812953386306762
1772556093406413800,3.599413818359375,-0.06750584851801394,0.09536083731222897,-0.06294716230034827
1772556093416406500,3.609406494140625,-0.06614215894937515,0.08981460136193782,-0.06467573965862393
1772556093426398700,3.619398681640625,-0.04420271434187889,0.05241141096707433,-0.060536447896808385
1772556093436392000,3.629391845703125,-0.0017149872243404387,-0.0035540757523849606,-0.06086633743830025
1772556093446384600,3.639384521484375,0.04798164835870266,-0.04223119507320225,-0.062432709972187875
1772556093456377900,3.6493779296875,0.06475976468026638,-0.08702858737260102,-0.0417879813503474
1772556093466369500,3.65936962890625,0.0945002384275198,-0.11928539132233708,-0.016297420132532714
1772556093476362800,3.66936279296875,0.08019757230877876,-0.13750307546034454,0.0037627865996211767
1772556093486355700,3.679355712890625,0.08561609022617339,-0.14325615909434855,0.016438362973183393
1772556093496347600,3.68934765625,0.07320435242056846,-0.13997454360779374,0.04656885895133018
1772556093506340900,3.6993408203125,0.06870704100131989,-0.13857866880260408,0.054802799615636465
1772556093516334600,3.70933447265625,0.05222293919026851,-0.12854326820690185,0.04423829711191356
1772556093526327600,3.71932763671875,0.01266249769628048,-0.09287150471452624,0.033843452086672186
1772556093536319500,3.729319580078125,-0.025423195070028305,-0.06724690532088279,0.02203888639397919
1772556093546312400,3.7393125,-0.05095394216775894,-0.037243944712542,-0.0008810936834663152
1772556093556305400,3.749305419921875,-0.057631520235538476,-0.014131912661716341,-0.0017081921573728323
1772556093566298400,3.75929833984375,-0.07418693371713161,0.03637406654283404,0.0006976999405771493
1772556093576290600,3.76929052734375,-0.06887479878365993,0.06476663281247019,-0.013830445497110485
1772556093586283500,3.779283447265625,-0.06383914270401,0.1043105980956927,-0.03343004898019135
1772556093596276500,3.7892763671875,-0.050399815416336056,0.10991967014912515,-0.06522533636540175
1772556093606269700,3.799269775390625,-0.022460838133096694,0.1321460419392213,-0.07401347684636711
1772556093616261400,3.809261474609375,-0.014726444488763809,0.13983740015942603,-0.07296104518398643
1772556093626254600,3.819254638671875,0.004056581914424896,0.15329886621367186,-0.06626125528439879
1772556093636247600,3.82924755859375,0.00920855785012245,0.12643723583836108,-0.058368163947015994
1772556093646240500,3.839240478515625,0.019306758016347885,0.12308938671518116,-0.03415741340667009
1772556093656232700,3.849232666015625,0.012080313894152641,0.09587598376013338,-0.025066709782555697
1772556093666225400,3.859225341796875,0.010698504146933555,0.05169233944490552,-0.02854490728713572
1772556093676218600,3.869218505859375,0.008456278178095817,0.032196452064625916,-0.0010115881953388453
1772556093686211600,3.879211669921875,-0.005925882917642593,0.01461176860053092,-0.0026700959920883177
1772556093696203500,3.88920361328125,0.00034837504625320433,-0.012717479286529124,-0.005812631801515818
1772556093706196500,3.899196533203125,0.008690671455860137,-0.04615932830236852,0.0013948153592646122
1772556093716189700,3.909189697265625,0.021654782447218895,-0.0626725466100499,0.0003710983347147703
1772556093726181600,3.919181640625,0.012774725899100304,-0.09067823245394975,-0.03458557569086552
1772556093736174600,3.929174560546875,0.0325035087198019,-0.11359952770564705,0.009358195453882216
1772556093746167300,3.939167236328125,0.04000292456448078,-0.14308142358195036,-0.009921893751248717
1772556093756160500,3.949160400390625,0.050371173843741415,-0.1638575965637341,0.007954831461980939
1772556093766152700,3.959152587890625,0.0706102442741394,-0.16390987474024296,0.0186540662612766
1772556093776145400,3.9691455078125,0.05805062243044376,-0.1794305018140003,0.031705271014198656
1772556093786138600,3.979138671875,0.03378478070199489,-0.19131390489656477,0.02242583988495171
1772556093796131600,3.989131591796875,0.04404372438788414,-0.16348156632557512,0.021152312817797062
1772556093806123500,3.99912353515625,0.028691256955265997,-0.12125438984036445,0.014928323736414312
1772556093816116500,4.009116455078125,0.001371288353204727,-0.08790080362986773,0.0009380115024745463
1772556093826109400,4.019109375,-0.015911854881048203,-0.02970237022656947,-0.01247545069158077
1772556093836102400,4.029102294921875,-0.01956219408214092,0.01911298900991678,-0.02576820911541581
1772556093846094600,4.039094482421875,-0.01258884793817997,0.05789703930392861,-0.016218290481716392
1772556093856087600,4.049087646484375,-0.01816986294090748,0.09591379501987247,-0.0327634017650038
1772556093866080500,4.05908056640625,-0.009971358916163443,0.10675470331218093,-0.05363872427232563
1772556093876073500,4.069073486328125,-0.014341244563460349,0.1093306547474116,-0.04936470021493733
1772556093886065400,4.0790654296875,-0.02171148107051849,0.10660729419812559,-0.04459807033501565
1772556093896058600,4.08905859375,-0.015293430721759795,0.09963595734816044,-0.04540975204408169
1772556093906051600,4.099051513671875,-0.008251695516705513,0.09036430766656994,-0.03174867176450789
1772556093916043500,4.10904345703125,-0.01481003111898899,0.05666347892098129,-0.04959807057939469
1772556093926036500,4.119036376953125,0.01532850203514099,0.029564897984638808,-0.040709100072458385
1772556093936029400,4.129029541015625,0.02001812115609646,-0.000991933646798134,-0.015495821426063774
1772556093946022400,4.1390224609375,0.00793371560871601,-0.04191211918666959,-0.017521482034772634
1772556093956014600,4.1490146484375,0.012274959683418274,-0.06509487838614732,-0.0017067308526486158
1772556093966007600,4.159007568359375,0.025116321077942847,-0.05904781677424907,0.014529606742411851
1772556093976000500,4.16900048828125,0.022072131076455115,-0.06341335503999143,0.008539426416903733
1772556093985993700,4.17899365234375,0.028137130203843116,-0.060431708880700166,0.028028920589014888
1772556093995985400,4.1889853515625,0.03945698111951351,-0.03922814079970121,0.02881488333493471
1772556094005978600,4.198978515625,0.042408232140541076,-0.022330160958133637,0.018592472267150877
1772556094015971300,4.208971435546875,0.0040390462577342984,0.0015341142321005463,-0.008794497156515717
1772556094025964500,4.218964599609375,-0.017879355561733246,0.0221922137921676,-0.02165083692446351
1772556094035956700,4.228956787109375,-0.04413900145590305,0.020499438399635254,-0.017346783054992557
1772556094045949400,4.238949462890625,-0.045996612021327016,0.022859226333536205,0.007876286333054304
1772556094055942700,4.248942626953125,-0.029569793355464932,0.005547624189779162,-0.01682327063754201
1772556094065935600,4.258935546875,-0.03644727790951729,-0.011790025710687041,-0.012520824203267692
1772556094075927600,4.268927490234375,-0.01889876173734665,-0.014291487137600778,-0.013416530933976172
1772556094085920500,4.27892041015625,0.00599485650062561,-0.07897435065675526,-0.033610154787451024
1772556094095913500,4.28891357421875,0.019958499923348427,-0.08833718575313687,-0.023280118626728654
1772556094105905400,4.298905517578125,0.04093289889097213,-0.09466785007938743,-0.0142774586122483
1772556094115898600,4.308898681640625,0.050524903100728984,-0.10000859005283563,-0.0007774141132831573
1772556094125891300,4.318891357421875,0.04920271458625793,-0.09633775605298578,0.006165025435760617
1772556094135884500,4.328884521484375,0.05922141977548599,-0.08613090788051486,0.016961363933980463
1772556094145876700,4.338876708984375,0.06637772127091884,-0.06342939285933971,0.01784954494535923
1772556094155869400,4.348869384765625,0.05573123957216739,-0.030012678284756837,0.008127923006564378
1772556094165862700,4.358862548828125,0.040136780077219006,0.013482106983475387,0.0021533055763691663
1772556094175855600,4.368855712890625,0.03785656018555164,0.03285363733172417,-0.021719810507446525
1772556094185847600,4.37884765625,0.006264905613660812,0.034827604285813864,-0.04782769990600645
1772556094195840500,4.388840576171875,-0.016014146211743355,0.0408799996599555,-0.04567198317684233
1772556094205833500,4.39883349609375,-0.009832827228307724,0.026593663621507585,-0.049356663038954134
1772556094215825700,4.40882568359375,-0.023212533283233642,0.012529007509723305,-0.030320684788003562
1772556094225818600,4.418818603515625,-0.04808978490829467,-0.010438136177696287,-0.02486906831860542
1772556094235811600,4.4288115234375,-0.03615677053034305,-0.0042975875960662956,-0.03489025772586465
1772556094245804500,4.438804443359375,-0.03801671918332577,-0.013404877028800546,-0.00790975021123886
1772556094255796500,4.44879638671875,-0.006104162093997001,-0.007635536379739642,0.011285071863234042
1772556094265789400,4.45878955078125,-0.0037099604338407515,-0.018522731499187647,0.011911314002797007
1772556094275782700,4.46878271484375,0.0025637130081653595,-0.009518317919038236,0.034724838031083345
1772556094285775400,4.478775390625,-0.004969605106115341,-0.006784143714793026,0.016940028885006904
1772556094295767600,4.488767578125,0.014283376896381378,0.0019583675261586903,0.00010791735388338565
1772556094305760500,4.498760498046875,0.013766659545898436,0.014440394088998436,-0.008074512318894266
1772556094315753500,4.50875341796875,0.017725626304745674,0.016031024281308055,-0.008009045867249369
1772556094325746400,4.518746337890625,0.016475918504595757,0.01124400920048356,-0.026172552132606504
1772556094335738400,4.52873828125,0.02782499551475048,0.013396218798309564,-0.041018458282575006
1772556094345731600,4.538731689453125,0.022449147695302964,0.007806618630327284,-0.05306618508137762
1772556094355724500,4.548724609375,0.01096972230374813,0.004263246935047209,-0.06755699418336153
1772556094365717500,4.558717529296875,0.024800094735622405,0.00850132289621979,-0.0436944725587964
1772556094375709400,4.56870947265625,0.04176350449621677,0.0225567362556234,-0.03512918104827404
1772556094385702700,4.57870263671875,0.015790274327993393,-0.0023177023578435183,-0.028982275791093706
1772556094395695400,4.5886953125,0.017203063735365866,-0.01552658189050853,-0.026054478710889815
1772556094405687600,4.5986875,0.011551906105875968,-0.029627113033272326,-0.011944631750509142
1772556094415680500,4.608680419921875,0.002749006447196007,-0.04750920854136347,-0.01596599622108042
1772556094425673500,4.618673583984375,-0.018939093747735024,-0.049553939176723356,0.002260419212654233
1772556094435666700,4.628666748046875,-0.018648001846671102,-0.06299549495410174,0.01982917445525527
1772556094445658400,4.638658447265625,-0.000831190127134323,-0.05693086115289479,0.02960486466884613
1772556094455651600,4.648651611328125,0.007545593073964118,-0.06475527116823941,0.030734526285901665
1772556094465644500,4.65864453125,0.010507365489006042,-0.06759703393280506,0.037986397110298276
1772556094475637500,4.668637451171875,0.011651274827122688,-0.04454670547395944,0.022519436452537775
1772556094485629400,4.67862939453125,0.01906242786645889,-0.03659260466434061,0.0037144174132496114
1772556094495622700,4.68862255859375,0.0002916764229536056,-0.023650267113372682,-0.008123977483808994
1772556094505615400,4.698615478515625,0.008926818299293518,-0.01313661801405251,-0.014223828728869556
1772556094515607300,4.708607177734375,-0.005880290210247039,-0.010347389154322444,-0.03305186331756413
1772556094525599500,4.718599609375,-0.008370937982201575,0.010114639844372868,-0.044392610890790815
1772556094535592200,4.72859228515625,0.00979249521791935,0.024227628609910606,-0.0369455828204751
1772556094545585400,4.73858544921875,0.008049450942873954,0.0016223770374432205,-0.021064853730052707
1772556094555577300,4.748577392578125,0.015258359408378601,0.01946600369866937,-0.032804975884407755
1772556094565570300,4.7585703125,0.024382746106386185,-0.0009491539509966969,-0.008019640326499938
1772556094575563500,4.7685634765625,0.015251929667592048,0.011781184817105531,-0.009983560810610652
1772556094585556200,4.77855615234375,0.014341829085350036,-0.01369768596291542,0.007337284085527062
1772556094595548400,4.78854833984375,-0.0109492640376091,0.0003144727766513824,-0.019818872256949543
1772556094605541400,4.798541259765625,-0.009008651363849639,-0.004652903839759528,-0.008458031743764877
1772556094615534300,4.808534423828125,-0.0012187281399965286,0.006460903109796345,-0.020542656486853956
1772556094625527300,4.81852734375,0.009244798207283019,0.015751220959238706,-0.015299349005892872
1772556094635519200,4.828519287109375,-0.010838204878568649,0.023049890067428348,-0.038407179805636404
1772556094645512400,4.838512451171875,0.0034901802033185957,0.011903386424668132,-0.025589637678116558
1772556094655505400,4.84850537109375,0.002423427754640579,0.013009009579010307,-0.0135787357583642
1772556094665497300,4.858497314453125,-0.006427987220883369,0.026760617686249315,-0.019800094491243363
1772556094675490300,4.868490234375,-0.01637888787090778,0.027112828657403585,0.013096578264608978
1772556094685483500,4.8784833984375,0.003045359045267105,0.0018754750156775115,0.026551760708540678
1772556094695476200,4.888476318359375,-0.00208615862429142,-0.015664273328147828,0.0015831044729799032
1772556094705468400,4.898468505859375,-0.003149403941631317,-0.01634896765667945,0.002713715938106179
1772556094715461400,4.90846142578125,0.014025018221139907,-0.039710042565129694,0.005209405211359262
1772556094725454300,4.918454345703125,0.026413375151157378,-0.05274389432445168,-0.006831015063822269
1772556094735447300,4.928447265625,0.02355681667625904,-0.04955832309089601,0.0024566724371165036
1772556094745439200,4.938439208984375,0.0169575645416975,-0.04677672954834997,-0.0043164018943905825
1772556094755432400,4.948432373046875,-0.009653963530063628,-0.03243504659347236,-0.002823606053367257
1772556094765425400,4.95842529296875,-0.018597148442268372,-0.029614545812644062,-0.01480915433615446
1772556094775418400,4.96841845703125,-0.024385668715834617,-0.024576515112817287,-0.024597484835609792
1772556094785410300,4.978410400390625,-0.011620295166969299,-0.009435900332592426,-0.0047981209967285395
1772556094795403300,4.9884033203125,0.001149170035123825,0.008439546239003538,-0.011218582498282193
1772556094805396200,4.998396240234375,-0.002003156515955925,0.0054497167732566595,-0.007969225313514471
1772556094815388400,5.008388427734375,0.010818915656208992,0.001778298251517117,0.012483195606619119
1772556094825381400,5.01838134765625,0.016274842974543572,0.0000023015549406409263,0.009383110699430108
1772556094835374300,5.028374267578125,0.02051905641555786,0.01048811279926449,0.0006131634622812271
1772556094845367600,5.038367431640625,0.03778057233989238,0.012283544848673045,0.007081848019734024
1772556094855359200,5.048359130859375,0.010633037695288658,0.017595387521199882,-0.010141747047007084
1772556094865352400,5.0583525390625,0.010315642309188843,0.012422149601764977,-0.014067396058142185
1772556094875345400,5.068345458984375,-0.019155951368808745,0.0018677301006391643,-0.014678440628573297
1772556094885338400,5.07833837890625,-0.005506780722737312,-0.013350589558295906,-0.005154533218964934
1772556094895330300,5.088330322265625,-0.003665536770224571,-0.02070314427819103,-0.028762714756280183
1772556094905323300,5.0983232421875,-0.0009650456398725509,-0.03717120826989412,-0.012343129548802971
1772556094915316200,5.108316162109375,0.00037643209695816036,-0.023972850131243464,-0.007796791356056928
1772556094925309400,5.118309326171875,-0.0006733692169189453,-0.03103504360243678,0.005826733392104506
1772556094935301400,5.12830126953125,-0.005606733965873718,-0.03467343663740903,0.01581044033318758
1772556094945294300,5.13829443359375,0.002026537391543388,-0.03158825703840703,0.013332578977569938
1772556094955287600,5.14828759765625,-0.0021709142982959746,-0.018630393124744293,0.028795813308283683
1772556094965279200,5.158279296875,0.01694587410390377,-0.02131356779411435,0.024350451271981
1772556094975272400,5.1682724609375,0.031072014611959457,-0.03363075918406248,-0.0021363544415682555
1772556094985265200,5.17826513671875,0.0394791929513216,-0.01783036532085389,-0.002750467751920223
1772556094995258400,5.18825830078125,0.022757190731167793,-0.012709917034581302,-0.0038772067595273254
1772556095005250600,5.19825048828125,0.02925415153503418,-0.011144457816146314,-0.021108985132724044
1772556095015243300,5.2082431640625,0.009317278921604156,0.003353767407312989,-0.022582418686151504
1772556095025236500,5.218236572265625,0.012895137408375739,0.010251454499177633,-0.039711028945818544
1772556095035229400,5.2282294921875,-0.007262099957466125,0.017663520853966472,-0.031285145905986425
1772556095045221400,5.238221435546875,-0.008412439036369323,-0.007106836330518126,-0.03499744442738592
1772556095055214300,5.24821435546875,-0.01810439648926258,0.012758067025244235,-0.01093421259894967
1772556095065207300,5.258207275390625,-0.024517770662903785,-0.0053512248348444695,-0.0005533960990607739
1772556095075199500,5.268199462890625,-0.024949147817492485,-0.0009440028518438339,-0.006971884839236736
1772556095085192400,5.2781923828125,0.00782265644967556,-0.019397431974485516,0.006316708866134286
1772556095095185200,5.28818505859375,0.011560089412331581,-0.010058562275581062,-0.004503595029562712
1772556095105178400,5.298178466796875,0.028429975670576094,-0.020038250628672538,0.01243979485630989
1772556095115170600,5.308170654296875,0.018204934254288672,-0.01735628153569996,0.01040427044071257
1772556095125163300,5.318163330078125,0.01917231798171997,-0.011665376417711376,0.01333732821792364
1772556095135156500,5.328156494140625,0.01239361762702465,0.00785506088193506,0.0001477379076182842
1772556095145149400,5.3381494140625,0.000699088180065155,0.011601298205554484,-0.0036475627221167085
1772556095155141400,5.348141357421875,0.005302782583236694,0.02742865314092487,-0.014566212425753473
1772556095165134300,5.35813427734375,0.009048983374238014,0.00636818332504481,-0.027887612422183156
1772556095175127300,5.368127197265625,0.00787058724462986,0.004278919428214431,-0.011044175779446958
1772556095185119500,5.378119384765625,0.008050619986653327,0.009912906727194786,-0.028687969019636512
1772556095195112400,5.388112548828125,0.01780804389119148,0.003006561404839158,-0.01836465486064553
1772556095205105400,5.39810546875,0.00976502268910408,-0.018864238413237033,0.0031328181330114602
1772556095215098400,5.408098388671875,0.004106850796937942,-0.04142426260448992,-0.00008804360963404179
1772556095225090300,5.41809033203125,0.0011176058530807495,-0.05541030052211135,0.005043400994688272
1772556095235083300,5.428083251953125,0.000045008185505867,-0.04663838052358478,0.030086583771184085
1772556095245076500,5.438076416015625,-0.006278349617123604,-0.025920878926478326,0.026048341231048107
1772556095255069200,5.448069091796875,-0.007371405550837516,-0.009757862295955419,0.011566226892173289
1772556095265061400,5.458061279296875,-0.00876899738907814,-0.009171038851328193,-0.002536898066475987
1772556095275054300,5.468054443359375,-0.01253390288054943,-0.0007634221205487846,-0.012556260842829943
1772556095285047300,5.47804736328125,0.00046352585852146145,0.018629772070236503,-0.011928995789960026
1772556095295039500,5.48803955078125,0.015097031366825104,0.018361586120724676,-0.00043627252541482447
1772556095305032200,5.4980322265625,0.003252279794216156,0.03377349212300032,-0.022226737116277217
1772556095315025400,5.508025390625,-0.009946224474906921,0.02783350761476904,-0.020437734807655213
1772556095325018400,5.518018310546875,-0.015347791257500647,0.030613347591646013,-0.010223726242035627
1772556095335010300,5.52801025390625,-0.004273439535498619,0.03107413350380957,-0.003131576023995876
1772556095345003300,5.538003173828125,0.0020218612164258957,0.015839776025526223,-0.023127412283048033
1772556095354996500,5.54799658203125,0.02661152807176113,0.022598894896917045,-0.01675670820735395
1772556095364989200,5.5579892578125,0.042376667958497996,0.012345869495160876,-0.022309008572250603
1772556095374981400,5.5679814453125,0.07295125444233418,-0.009368424586951732,-0.018469357344135642
1772556095384974600,5.577974609375,0.06099018301367759,-0.026146540908515453,-0.025900968649610875
1772556095394967300,5.58796728515625,0.04049216938614845,-0.023576690420508382,-0.02214198144227266
1772556095404960500,5.59796044921875,0.016557751569151877,-0.038571503521874544,-0.018324030589312312
1772556095414952200,5.6079521484375,-0.020675708281993863,-0.007322378777340054,-0.02236468428224325
1772556095424945400,5.6179453125,-0.012993921607732772,-0.007076916116289794,0.013179799568653106
1772556095434938400,5.6279384765625,-0.026530279529094696,-0.016965967043861746,0.0031812603846192358
1772556095444930300,5.637930419921875,-0.034253567257523536,-0.020220913719199596,0.0014724106401205062
1772556095454923300,5.64792333984375,-0.040516719305515286,-0.008270802075974642,0.021099121325835583
1772556095464916500,5.65791650390625,-0.018539280775189397,-0.0280019960494712,0.024288711147382853
1772556095474909200,5.6679091796875,-0.03189735952019691,-0.0031649303043261167,0.007902370622381567
1772556095484901400,5.6779013671875,-0.0074216744333505625,0.001360986154899001,0.0032057372387498616
1772556095494894300,5.687894287109375,0.015729484051465986,0.008885499908216297,0.008803922571986913
1772556095504887300,5.69788720703125,0.014674422040581702,0.010920001410506665,0.0021218144595623015
1772556095514881000,5.707881103515625,0.02501169165968895,0.006797733848728239,-0.019151129063218832
1772556095524873000,5.717873046875,0.02158347077667713,0.014483940969780087,-0.010116028083860874
1772556095534866200,5.7278662109375,0.0446247391462326,0.025363245043717324,-0.010656199375167489
1772556095544859100,5.737859130859375,0.030668694508075713,0.009005034634657204,-0.02048793062493205
1772556095554852000,5.74785205078125,0.018933833050727843,-0.0022573870053514836,-0.005433057899400591
1772556095564844000,5.757843994140625,0.0013467384338378906,0.0006703735422343016,0.00668020841628313
1772556095574837200,5.767837158203125,-0.026101240462064742,-0.013424787305667995,-0.012067381347343325
1772556095584830000,5.777829833984375,-0.021507482931017875,-0.007233823711052537,-0.0033189883548766373
1772556095594822100,5.787822265625,-0.018539865297079086,0.004786211363226175,-0.004727393848076462
1772556095604815000,5.797815185546875,-0.020191724157333373,-0.010684804415144026,-0.0012637363255023955
1772556095614808000,5.80780810546875,-0.008987608575820922,-0.0032448636727407574,0.019536402053758502
1772556095624801300,5.81780126953125,0.004425999748706817,0.0012043708210811017,-0.01267784139588475
1772556095634793000,5.82779296875,0.009603694647550582,0.010009937360882758,-0.0036675095316022633
1772556095644786200,5.8377861328125,0.011197685840725898,0.014808715944737195,-0.02711414383165538
1772556095654779100,5.847779052734375,0.004253565791249275,0.012168576699495314,-0.03610058336369693
1772556095664771000,5.85777099609375,0.025033903491497037,-0.0018154884567484258,-0.00804455557204783
1772556095674764000,5.867763916015625,0.031177813073992727,-0.005750562883354723,0.004578340766206383
1772556095684757000,5.877757080078125,0.020853402936458588,-0.019208193012699482,-0.0025632746167480944
1772556095694750000,5.88775,0.02566343356668949,-0.03044339785221964,-0.009195333042368293
1772556095704742100,5.8977421875,0.013077508237957954,-0.02739328956659883,0.00009184300191700458
1772556095714735000,5.907735107421875,0.01592237627506256,-0.05327836652733385,0.003919949922710657
1772556095724728000,5.91772802734375,0.01952653824687004,-0.06067395667135715,-0.010387611566856502
1772556095734721300,5.92772119140625,0.042457916501164435,-0.06031907881908118,-0.02277311895266175
1772556095744713000,5.937712890625,0.04042202675938606,-0.05865392208583653,-0.010224383829161524
1772556095754706200,5.9477060546875,0.03734510353207588,-0.046596221882291136,0.005770546225458383
1772556095764699100,5.95769921875,0.019120295533537862,-0.034162418375350535,0.004596534010022879
1772556095774691000,5.967691162109375,-0.030880291432142257,-0.0005898556519299745,0.015966288482025266
1772556095784684300,5.977684326171875,-0.019700141248106956,0.00590250204205513,0.012182751355320215
1772556095794677000,5.987677001953125,-0.03979366572797298,0.02839742510784417,0.01355835055746138
1772556095804670200,5.997670166015625,-0.019493220499157905,0.018509616289287805,0.0033874504812061784
1772556095814662100,6.007662109375,-0.018489011892676353,0.03088694036863744,0.013686433916538954
1772556095824655000,6.017655029296875,-0.027206571355462072,0.02023910696301609,0.007410933843627571
1772556095834648000,6.02764794921875,-0.028888240832090375,0.010733246666751801,-0.004700140514969826
1772556095844641300,6.037641357421875,-0.020835867279767988,-0.010067622364871203,0.004196428776532412
1772556095854633200,6.04763330078125,-0.025027473750710485,0.005648088889569044,-0.0035455636523663995
1772556095864626200,6.057626220703125,-0.013209610185027122,0.016198380204848945,-0.000624342443421483
1772556095874619000,6.067618896484375,0.017177344772219657,-0.00041654491163790224,-0.009132277743518352
1772556095884611000,6.077611083984375,0.030950434058904647,-0.005831190371513366,-0.001666983364149928
1772556095894604300,6.087604248046875,0.04547288040816783,-0.006581679945252835,-0.02942556257918477
1772556095904597000,6.097596923828125,0.04619710302948951,-0.0001701689351350069,-0.01696370202153921
1772556095914590200,6.107590087890625,0.040486324167251585,0.00037635903172194955,-0.021349296694621444
1772556095924582000,6.117581787109375,0.029391514179110526,-0.009227481746301055,-0.012681713853403925
1772556095934575000,6.1275751953125,0.027280221113562583,-0.01114982811100781,-0.007870368048921227
1772556095944568000,6.137568115234375,0.004231353959441185,-0.014669672800227998,0.0030967239063233137
1772556095954561000,6.14756103515625,-0.010151391658186912,-0.019842253132537006,-0.007587897845730185
1772556095964553200,6.15755322265625,-0.013004443001747131,-0.002466828504949808,-0.017632687324285506
1772556095974546200,6.167546142578125,-0.012140519648790359,-0.0020762217521667478,-0.00033251988999545573
1772556095984539100,6.1775390625,-0.04464578193426132,-0.007298449912481009,-0.0008300210833549499
1772556095994531000,6.187531005859375,-0.04437690186500549,-0.007351604871824383,0.01614157198369503
1772556096004524000,6.19752392578125,-0.024039047235250473,0.005549122027121484,0.006714256816357374
1772556096014517000,6.20751708984375,0.010843465575575828,-0.018808818431571124,-0.01013882443755865
1772556096024510200,6.21751025390625,0.03242810539603233,-0.02029770528245717,-0.02492584000714123
1772556096034502100,6.227502197265625,0.04968436062335968,-0.00683331661876291,-0.028893793790042397
1772556096044495000,6.2374951171875,0.05121814606189728,-0.00728785545323044,-0.02274886129423976
1772556096054488000,6.247488037109375,0.05798924763202667,-0.017411299658566713,-0.022882497611269353
1772556096064480000,6.25747998046875,0.03139642426073551,-0.04199917641561478,-0.020037556508928536
1772556096074473200,6.26747314453125,0.038489012870192525,-0.0394326138632372,-0.011460282299667597
1772556096084466200,6.277466064453125,0.017771219012141227,-0.04666497626956552,0.009175897689536213
1772556096094459100,6.287459228515625,0.012155132696032524,-0.04465823955703527,-0.0012233312498778103
1772556096104451000,6.297451171875,0.007715688943862915,-0.054784460241347546,0.010822276657074689
1772556096114444000,6.307444091796875,0.003084522011876106,-0.04791841039676219,0.01644800758436322
1772556096124437000,6.31743701171875,-0.0002326397120952606,-0.032831863891333336,0.02204677743948996
1772556096134429200,6.32742919921875,-0.036188919234275814,-0.02834131100643426,0.016109057953581214
1772556096144422100,6.337422119140625,-0.025175357788801193,-0.0049985754722729325,0.01400492528118193
1772556096154415000,6.3474150390625,-0.03164016988873482,0.0076150781136006115,0.014838307365402578
1772556096164408300,6.357408203125,-0.026861118918657303,0.02173983038216829,0.009732654789462685
1772556096174400000,6.36739990234375,-0.009492635488510131,0.04209025223255157,-0.004895882282778621
1772556096184393200,6.377393310546875,0.00400455946624279,0.04885189185459166,-0.03124802876599133
1772556096194386000,6.387385986328125,0.009106851041316985,0.04601422074325382,-0.037505481725558634
1772556096204379100,6.397379150390625,0.010033318236470221,0.028417518047802147,-0.031480960739031436
1772556096214371300,6.407371337890625,0.012895137408375739,0.04388002172615379,-0.031080563244596123
1772556096224364000,6.417364013671875,0.020090017348527906,0.034128260377421976,-0.034176483433321116
1772556096234357000,6.42735693359375,0.010665770921111106,0.008239822415821253,-0.019500527022778987
1772556096244349000,6.437348876953125,0.006202946293354034,-0.0015615502282977103,-0.012142127083986997
1772556096254342100,6.447342041015625,-0.007824994537234306,-0.0080362626677379,-0.01250906070023775
1772556096264335000,6.457335205078125,0.004171148204803466,-0.01072959340494126,0.007279854809865355
1772556096274328000,6.467328125,0.011361351969838143,-0.010986344644986093,0.0042768005363643165
1772556096284320000,6.477320068359375,0.005651157629489898,-0.02270666612032801,-0.003997326007857918
1772556096294313200,6.487313232421875,0.015506781211495398,-0.014897344076260923,0.005001899940520525
1772556096304306000,6.497305908203125,0.03207797678411007,-0.015467399049177766,-0.009780804780125617
1772556096314299100,6.507299072265625,0.01139934589266777,-0.008718290115147829,-0.013415069629251956
1772556096324291300,6.517291259765625,0.0006190086811780929,-0.009721110482141375,0.009641030983254313
1772556096334284000,6.527283935546875,0.0015086509972810744,-0.011830503851547837,0.004053951565921306
1772556096344277200,6.53727734375,-0.009413725033402442,-0.029597156286425886,0.019964637403190134
1772556096354269000,6.54726904296875,-0.02304477550089359,-0.015313012205064296,-0.005437661009281874
1772556096364262100,6.55726220703125,-0.023080431336164473,-0.02170943524390459,0.005784282489866018
1772556096374255000,6.567255126953125,-0.030585107877850532,-0.021240758286230264,-0.016418270033225418
1772556096384248000,6.577248046875,-0.010142623829841614,-0.02538764883261174,0.0003121346890926361
1772556096394240300,6.587240234375,0.000737082102894783,-0.02477393738105893,0.0030642098762094973
1772556096404233200,6.597233154296875,0.02080839475095272,-0.0020240166408941147,-0.008865297370404004
1772556096414226200,6.60722607421875,0.03518529514968395,-0.0076040817955508825,-0.012245587458461523
1772556096424218000,6.617218017578125,0.0347515799075365,0.01260141515880823,-0.005279913164302707
1772556096434211000,6.627211181640625,0.03698971422314644,0.022025003999099135,-0.022864158236980438
1772556096444204000,6.6372041015625,0.032927287089824675,0.01901299923416227,-0.022079437600076197
1772556096454197200,6.647197265625,0.007753098344802856,0.01590085856299847,-0.015364230935648083
1772556096464189000,6.65718896484375,0.03180968123674392,0.025703619446605444,-0.002635316939651966
1772556096474182100,6.66718212890625,-0.01234393326640129,-0.008809621660411358,-0.005742854500934481
1772556096484175000,6.677175048828125,-0.02400631400942802,-0.01153612401485443,-0.01824387802518904
1772556096494167000,6.6871669921875,-0.023985855743288993,-0.02181779098920524,-0.009048544982820749
1772556096504160300,6.69716015625,-0.016931261056661605,-0.023901501928083598,-0.0008653115924447775
1772556096514152400,6.70715234375,-0.010157821398973465,-0.023787593224830924,-0.016248758685216306
1772556096524145700,6.717145751953125,-0.005497428372502326,-0.04775430587623268,-0.010473170958459376
1772556096534137600,6.7271376953125,-0.010434884774684905,-0.026567688930034635,0.02086100172102451
1772556096544130600,6.737130615234375,0.006605097353458404,-0.013621661584638059,0.012155059630796312
1772556096554123500,6.74712353515625,-0.00016834230422973633,-0.004887150987051427,0.006753419782966375
1772556096564115500,6.757115478515625,0.016992635855078698,-0.0014464724812656641,0.01779211566969752
1772556096574108700,6.767108642578125,0.006309329277276993,0.010988901928253471,-0.008972630202397703
1772556096584101400,6.777101318359375,0.024965514430403707,0.021347579661570488,-0.0028898031573742627
1772556096594094600,6.787094482421875,-0.004712415474653244,0.004951448394916951,0.00250431097112596
1772556096604086500,6.79708642578125,-0.004305003717541694,-0.004987469556368887,-0.02677643630988896
1772556096614079500,6.80707958984375,-0.002649637725949287,0.0017682517815381287,-0.03700330435708165
1772556096624072400,6.817072509765625,-0.013251695761084556,0.000038432314246892926,-0.007296659814193845
1772556096634065700,6.827065673828125,-0.02295943530499935,0.007917896985076367,-0.01785692453421652
1772556096644057600,6.8370576171875,-0.006174889242649078,0.008205189493857323,-0.006343085416406393
1772556096654050600,6.847050537109375,-0.010804302608966827,0.01527037863973528,-0.010306289958953857
1772556096664043500,6.85704345703125,-0.0021060323685407637,0.022954905260354277,-0.008340688974410294
1772556096674035500,6.867035400390625,0.03247895880043507,0.01896919662505388,-0.014060308730229735
1772556096684028700,6.877028564453125,0.04188157791793346,0.003349675754085183,-0.004044745346158743
1772556096694021400,6.887021484375,0.04618599711358547,-0.006079867902956903,-0.024910277111828326
1772556096704014600,6.8970146484375,0.03839548936784267,-0.015956315077282488,-0.023770167165994643
1772556096714006500,6.907006591796875,0.02507131289243698,-0.022516258114762603,-0.014970993834361433
1772556096723999500,6.91699951171875,0.006537877336144447,-0.030159101018123326,-0.018579028263688086
1772556096733992700,6.92699267578125,-0.007467851662635803,-0.03874222044628113,-0.010832505790144204
1772556096743984400,6.936984375,-0.007988076144456863,-0.05003788676876574,0.005262377507612109
1772556096753977600,6.9469775390625,0.005989595803618431,-0.03742700966186821,0.027028219113871453
1772556096763970600,6.956970458984375,-0.017598785054683683,-0.024606070000864563,0.014046791661530732
1772556096773963500,6.966963623046875,-0.03718552905619144,-0.034824900872074065,0.02461860068887472
1772556096783955500,6.97695556640625,-0.015806640940904615,-0.036631365772150454,0.045911271825432774
1772556096793948400,6.986948486328125,-0.022296587482094763,-0.027668160985223948,0.020929756108298895
1772556096803941400,6.99694140625,-0.015178864431381224,-0.017425839640572666,0.017921733398735522
1772556096813933600,7.00693359375,0.004967267018556595,-0.008387523790821432,-0.001742532818391919
1772556096823926500,7.016926513671875,0.025724808365106582,0.009408793129958211,-0.01182100537084043
1772556096833919500,7.02691943359375,0.01480301685631275,0.015495017708465456,-0.03183722683079541
1772556096843912700,7.03691259765625,0.011671733093261718,0.024862967371381817,-0.01914842564947903
1772556096853904400,7.046904296875,0.005408581045269966,0.04186166764106601,-0.015409531382098792
1772556096863897600,7.056897705078125,-0.011492284873127936,0.04892126729637384,-0.03022928017750382
1772556096873890600,7.066890625,-0.09414952529370785,0.05738755541183054,-0.03728643214739859
1772556096883882500,7.076882568359375,-0.20645722309052944,0.09331208808887749,-0.05472191639915108
1772556096893875700,7.086875732421875,-0.23293840278089045,0.11541223968341946,-0.04170907089523971
1772556096903868400,7.096868408203125,-0.15815467221438884,0.0864599206391722,-0.048333749732002614
1772556096913861600,7.106861572265625,0.035357729107141495,0.028176366235688328,-0.04028904802948236
1772556096923853600,7.116853515625,0.26418168230652805,-0.05627849819138646,-0.03788943954184651
1772556096933846500,7.126846435546875,0.46225744602084157,-0.12149272864088416,-0.03030198008753359
1772556096943839500,7.136839599609375,0.5225614003360272,-0.16586517352648078,0.022881840024143455
1772556096953831400,7.14683154296875,0.4198872078031301,-0.12940594945084302,0.09562690436989069
1772556096963824400,7.156824462890625,0.21900515449643135,-0.08218443527705967,0.15161803698725998
1772556096973817600,7.166817626953125,-0.06051029054224491,-0.02195840503629297,0.1759328324239701
