time,seconds_elapsed,z,y,x
1772556089878970600,0.071970703125,0.011895792558789253,-0.09852762520313263,-0.09759223461151123
1772556089888963600,0.081963623046875,0.02728673256933689,-0.11779586225748062,-0.12623266875743866
1772556089898956500,0.09195654296875,0.03451348841190338,-0.12228062748908997,-0.12831711769104004
1772556089908949500,0.101949462890625,0.03920914977788925,-0.10588177293539047,-0.1106405109167099
1772556089918941700,0.111941650390625,0.03276935964822769,-0.07071047276258469,-0.06458406895399094
1772556089928934700,0.1219345703125,0.021379392594099045,-0.02237199991941452,-0.01583089493215084
1772556089938927600,0.131927734375,0.0017271284013986588,0.035308074206113815,0.032355811446905136
1772556089948920800,0.1419208984375,-0.012757545337080956,0.08310490846633911,0.07096065580844879
1772556089958913500,0.15191357421875,-0.021002957597374916,0.11240553855895996,0.08891355991363525
1772556089968905700,0.16190576171875,-0.025206301361322403,0.10862209647893906,0.0912645012140274
1772556089978898700,0.171898681640625,-0.020271198824048042,0.0880339965224266,0.07458086311817169
1772556089988891600,0.1818916015625,-0.010329368524253368,0.052852462977170944,0.04365698620676994
1772556089998884600,0.191884521484375,0.004883673042058945,0.009854660369455814,0.00437616091221571
1772556090008876500,0.20187646484375,0.010655414313077927,-0.02647998183965683,-0.03510800749063492
1772556090018869800,0.211869873046875,0.015128993429243565,-0.05612974986433983,-0.06847129017114639
1772556090028862700,0.22186279296875,0.014495281502604485,-0.07494968920946121,-0.08600467443466187
1772556090038855700,0.231855712890625,0.01536853238940239,-0.08279936015605927,-0.08728991448879242
1772556090048847600,0.24184765625,0.013975842855870724,-0.07694049179553986,-0.06896717101335526
1772556090058840800,0.2518408203125,0.009929170832037926,-0.05470895394682884,-0.044408563524484634
1772556090068833500,0.26183349609375,0.0064863418228924274,-0.022868497297167778,-0.012076173909008503
1772556090078826800,0.27182666015625,0.0038002771325409412,0.014924155548214912,0.016899017617106438
1772556090088818400,0.281818359375,-0.0028722728602588177,0.04234406352043152,0.04044482484459877
1772556090098811600,0.291811767578125,-0.006331985350698233,0.06279660761356354,0.05392388254404068
1772556090108804600,0.3018046875,-0.009514674544334412,0.06371065974235535,0.05625731125473976
1772556090118797600,0.311797607421875,-0.008084025233983994,0.047273632138967514,0.04625234752893448
1772556090128790500,0.32179052734375,-0.005611911416053772,0.024131039157509804,0.02694953978061676
1772556090138782700,0.33178271484375,-0.0011202237801626325,-0.0006821639835834503,0.004130510613322258
1772556090148775700,0.341775634765625,0.003423334565013647,-0.02364717796444893,-0.01940920390188694
1772556090158768600,0.3517685546875,0.0085435276851058,-0.036386407911777496,-0.03462411090731621
1772556090168761900,0.361761962890625,0.010869577527046204,-0.04567665234208107,-0.04021836817264557
1772556090178753500,0.37175341796875,0.010402991436421871,-0.04417356103658676,-0.03821752965450287
1772556090188746800,0.381746826171875,0.012189339846372604,-0.03323301300406456,-0.02816218137741089
1772556090198739700,0.39173974609375,0.009568789973855019,-0.02540571801364422,-0.008174091577529907
1772556090208732700,0.401732666015625,0.003849911503493786,-0.00268041854724288,0.01004638522863388
1772556090218724600,0.411724609375,0.0013713077642023563,0.011825287714600563,0.030542338266968727
1772556090228717600,0.421717529296875,-0.0024119734298437834,0.030923601239919662,0.04426940903067589
1772556090238710500,0.43171044921875,-0.004108939319849014,0.043571751564741135,0.049488406628370285
1772556090248703700,0.441703857421875,-0.006979744415730238,0.045553289353847504,0.04956473037600517
1772556090258696400,0.451696533203125,-0.007104913238435984,0.036715853959321976,0.041928116232156754
1772556090268688600,0.461688720703125,-0.010028369724750519,0.022404316812753677,0.029451988637447357
1772556090278681900,0.471681884765625,-0.010959943756461143,0.004579512868076563,0.015832049772143364
1772556090288674600,0.481674560546875,-0.008341195993125439,-0.014499064534902573,0.00020678667351603508
1772556090298667800,0.491667724609375,-0.0076056309044361115,-0.026789819821715355,-0.013383856974542141
1772556090308659500,0.501659423828125,-0.006338027771562338,-0.026096906512975693,-0.018572529777884483
1772556090318652700,0.511652587890625,-0.0028500857297331095,-0.023212170228362083,-0.022371262311935425
1772556090328645600,0.521645751953125,0.00041451724246144295,-0.013986462727189064,-0.015886519104242325
1772556090338638600,0.531638671875,0.0016187985893338919,-0.006162628531455994,-0.013627891428768635
1772556090348630800,0.541630859375,0.00023317825980484486,0.003068785183131695,-0.00337619474157691
1772556090358623700,0.551623779296875,-0.00006003561429679394,0.012554432265460491,0.002040674677118659
1772556090368616700,0.56161669921875,0.0023265224881470203,0.01500692404806614,0.005406857002526522
1772556090378609700,0.571609619140625,0.0019374345429241657,0.01748073287308216,0.004527481272816658
1772556090388601600,0.5816015625,0.0048269303515553474,0.019867241382598877,-0.003446925198659301
1772556090398594600,0.591594482421875,0.0052916519343853,0.015275153331458569,-0.014023935422301292
1772556090408587800,0.601587890625,0.007904862985014915,0.008164336904883385,-0.025434520095586777
1772556090418580700,0.611580810546875,0.009830061346292496,-0.00284517090767622,-0.03993649780750275
1772556090428573700,0.62157373046875,0.008314745500683784,-0.016247697174549103,-0.050020165741443634
1772556090438565600,0.631565673828125,0.009945666417479515,-0.03060932457447052,-0.05485193803906441
1772556090448558600,0.64155859375,0.01018250361084938,-0.039067380130290985,-0.05908540263772011
1772556090458551600,0.651551513671875,0.009248798713088036,-0.04331619292497635,-0.056666720658540726
1772556090468544800,0.661544677734375,0.00901065208017826,-0.04029114916920662,-0.049894340336322784
1772556090478536700,0.67153662109375,0.007385857403278351,-0.03407186642289162,-0.03964782506227493
1772556090488529700,0.68152978515625,0.006219858769327402,-0.02134518325328827,-0.027362240478396416
1772556090498523000,0.69152294921875,0.005172171164304018,-0.008986784145236015,-0.017721597105264664
1772556090508515600,0.701515625,0.000514613464474678,0.001448742114007473,-0.00735898781567812
1772556090518507500,0.711507568359375,-0.0014390815049409866,0.009276306256651878,0.002462217817083001
1772556090528500500,0.72150048828125,-0.00018878886476159096,0.011724509298801422,0.008484388701617718
1772556090538493700,0.73149365234375,-0.001777364406734705,0.016504881903529167,0.008723273873329163
1772556090548486400,0.741486328125,-0.005064303986728191,0.009580103680491447,0.008541007526218891
1772556090558478600,0.751478515625,-0.005248062312602997,0.010885851457715034,0.006874933838844299
1772556090568471600,0.761471435546875,-0.008652659133076668,0.00974643137305975,0.003964119125157595
1772556090578464500,0.771464599609375,-0.010551227256655693,0.009377582930028439,-0.00012862676521763206
1772556090588457500,0.78145751953125,-0.012474073097109795,0.005015921778976917,-0.0010854850988835096
1772556090598450400,0.791450439453125,-0.013716436922550201,0.0028441138565540314,-0.0016801690217107534
1772556090608442600,0.801442626953125,-0.011233262717723846,-0.0031549870036542416,-0.00036697968607768416
1772556090618435600,0.811435546875,-0.008298458531498909,0.0008432166650891304,0.00522912060841918
1772556090628428500,0.821428466796875,-0.0053599318489432335,0.004765260964632034,0.0038268924690783024
1772556090638421500,0.83142138671875,0.00009262445382773876,0.005642772652208805,0.012237154878675938
1772556090648413400,0.841413330078125,0.0042700753547251225,0.00845039077103138,0.01704687811434269
1772556090658406400,0.851406494140625,0.007534312084317207,0.011960437521338463,0.013417787849903107
1772556090668399600,0.861399658203125,0.01145855151116848,0.011844612658023834,0.018026836216449738
1772556090678392300,0.871392333984375,0.013792810961604118,0.013826005160808563,0.020714763551950455
1772556090688384500,0.881384521484375,0.012380882166326046,0.013706040568649769,0.019305771216750145
1772556090698377700,0.891377685546875,0.01086501032114029,0.018821705132722855,0.018413612619042397
1772556090708370400,0.901370361328125,0.010667670518159866,0.017727944999933243,0.015753380954265594
1772556090718363600,0.91136376953125,0.008845536038279533,0.015559867955744267,0.014835122041404247
1772556090728355600,0.92135546875,0.004552498459815979,0.012448130175471306,0.01255320105701685
1772556090738348500,0.9313486328125,0.005539732053875923,0.00874287448823452,0.01213348750025034
1772556090748341500,0.941341552734375,0.0022349366918206215,0.0060271006077528,0.008391926065087318
1772556090758334700,0.951334716796875,-0.0016032110434025526,0.0030339742079377174,0.01011286024004221
1772556090768326400,0.961326416015625,-0.004901806823909283,0.0014384817332029343,0.006612860597670078
1772556090778319600,0.971319580078125,-0.009183371439576149,-0.0053179580718278885,0.0011248844675719738
1772556090788312300,0.981312255859375,-0.011348580941557884,-0.012942896224558353,-0.004027036018669605
1772556090798305500,0.991305419921875,-0.012859659269452095,-0.020015187561511993,-0.012436766177415848
1772556090808298500,1.001298583984375,-0.013661043718457222,-0.026994209736585617,-0.012511511333286762
1772556090818290400,1.01129052734375,-0.011890042573213577,-0.0331285335123539,-0.018445033580064774
1772556090828283600,1.02128369140625,-0.006409745197743177,-0.03157517686486244,-0.02207786776125431
1772556090838276600,1.031276611328125,-0.0005699655739590526,-0.02463630959391594,-0.01930445060133934
1772556090848269600,1.04126953125,0.002900421619415283,-0.012975290417671204,-0.014199844561517239
1772556090858261500,1.051261474609375,0.007851503789424896,0.0028971494175493717,-0.009235712699592113
1772556090868254500,1.06125439453125,0.006507755722850561,0.016504447907209396,-0.0022998808417469263
1772556090878247400,1.071247314453125,0.008330956101417542,0.02903808280825615,0.006373235955834389
1772556090888240600,1.08124072265625,0.009208446368575096,0.03432675078511238,0.016860904172062874
1772556090898232600,1.091232666015625,0.007692840415984392,0.03379518538713455,0.020592525601387024
1772556090908225500,1.1012255859375,0.0025085476227104664,0.034784961491823196,0.025950700044631958
1772556090918218500,1.111218505859375,0.005236689932644367,0.03382968530058861,0.02404281124472618
1772556090928211500,1.12121142578125,0.0012078119907528162,0.023751020431518555,0.022780947387218475
1772556090938203600,1.13120361328125,-0.0013701280113309622,0.01420971192419529,0.014162691310048103
1772556090948196400,1.1411962890625,0.00044816103763878345,0.0024038292467594147,0.008317588828504086
1772556090958189600,1.151189453125,-0.0006117771845310926,-0.01139933429658413,0.002188589656725526
1772556090968182500,1.1611826171875,-0.0010891202837228775,0.015632305294275284,0.00920040626078844
1772556090978175700,1.17117578125,0.0042696925811469555,0.09602328389883041,0.04105554148554802
1772556090988167400,1.18116748046875,0.013330748304724693,0.14650841057300568,0.07490948587656021
1772556090998160600,1.19116064453125,0.014786699786782265,0.11357949674129486,0.09126502275466919
1772556091008153300,1.2011533203125,0.008748434484004974,0.024657204747200012,0.078059121966362
1772556091018146600,1.211146484375,-0.0034855944104492664,-0.06387373059988022,0.04127314314246178
1772556091028138800,1.221138671875,-0.0241551473736763,-0.11579398065805435,-0.023336568847298622
1772556091038131500,1.23113134765625,-0.03824114054441452,-0.12842801213264465,-0.08995207399129868
1772556091048124700,1.241124755859375,-0.037974558770656586,-0.10566384345293045,-0.12782223522663116
1772556091058117600,1.25111767578125,-0.017751574516296387,-0.08330687135457993,-0.13872654736042023
1772556091068109600,1.261109619140625,0.013310084119439125,-0.0791766569018364,-0.10829805582761765
1772556091078102500,1.2711025390625,0.04130230471491814,-0.08466143906116486,-0.05514322593808174
1772556091088095500,1.281095458984375,0.05062195286154747,-0.0738251805305481,0.0013113656314089894
1772556091098088400,1.29108837890625,0.039396461099386215,-0.026772450655698776,0.05132153630256653
1772556091108080600,1.30108056640625,0.012310538440942764,0.04176091030240059,0.08312460035085678
1772556091118073300,1.3110732421875,-0.024391550570726395,0.10720355808734894,0.09001152962446213
1772556091128066600,1.321066650390625,-0.04698457941412926,0.13733619451522827,0.08375388383865356
1772556091138059500,1.3310595703125,-0.05432691425085068,0.11861521750688553,0.06435168534517288
1772556091148051500,1.341051513671875,-0.040924783796072006,0.06438681483268738,0.03582248464226723
1772556091158044700,1.351044677734375,-0.02062404155731201,-0.004871353507041931,0.0025494832079857588
1772556091168037400,1.361037353515625,0.001222057268023491,-0.05156257003545761,-0.031490862369537354
1772556091178030600,1.371030517578125,0.014489926397800446,-0.06992879509925842,-0.06180349364876747
1772556091188022500,1.3810224609375,0.020027143880724907,-0.06517967581748962,-0.07528887689113617
1772556091198015500,1.391015380859375,0.020453250035643578,-0.05138184130191803,-0.07822927087545395
1772556091208008400,1.401008544921875,0.019064847379922867,-0.03888386860489845,-0.061740174889564514
1772556091218001700,1.411001708984375,0.01630661077797413,-0.03152875229716301,-0.03662816435098648
1772556091227993600,1.42099365234375,0.010377040132880211,-0.024135226383805275,-0.01021385658532381
1772556091237986600,1.430986572265625,0.0061079938896000385,-0.0042571257799863815,0.02062102034687996
1772556091247979500,1.4409794921875,0.0009529083035886288,0.020204812288284302,0.0356861837208271
1772556091257972500,1.450972412109375,-0.004694591276347637,0.04371306672692299,0.045756928622722626
1772556091267964700,1.460964599609375,-0.007737846113741398,0.05747970566153526,0.04299386218190193
1772556091277957400,1.470957275390625,-0.006149803288280964,0.05202262103557587,0.031399257481098175
1772556091287950600,1.48095068359375,-0.001755687640979886,0.028313048183918,0.018097354099154472
1772556091297943600,1.490943603515625,0.0011673979461193085,-0.0026810872368514538,0.0052657113410532475
1772556091307936500,1.5009365234375,0.003569874446839094,-0.029146576300263405,-0.012401789426803589
1772556091317928400,1.510928466796875,0.0033280597999691963,-0.04105463624000549,-0.02355004847049713
1772556091327921700,1.520921630859375,0.003912584390491247,-0.042898014187812805,-0.028209691867232323
1772556091337914400,1.530914306640625,6.670597940683365e-7,-0.036038510501384735,-0.028539657592773438
1772556091347907600,1.540907470703125,-0.0005027496954426169,-0.024225937202572823,-0.023309292271733284
1772556091357899500,1.5508994140625,0.0001720953732728958,-0.013349054381251335,-0.011152228340506554
1772556091367892500,1.560892578125,0.00019301194697618484,0.002226362470537424,0.007171315606683493
1772556091377885700,1.5708857421875,0.0004854269791394472,0.01272374577820301,0.023978792130947113
1772556091387878400,1.58087841796875,0.00013872352428734303,0.021990416571497917,0.031157784163951874
1772556091397870600,1.59087060546875,-0.005650988779962063,0.03167979419231415,0.034294985234737396
1772556091407863600,1.600863525390625,-0.004356426186859608,0.0358031690120697,0.02921340987086296
1772556091417856500,1.6108564453125,-0.0005134847015142441,0.032488863915205,0.018901117146015167
1772556091427849500,1.620849365234375,-0.001193307340145111,0.01790420524775982,0.003222449915483594
1772556091437841400,1.63084130859375,0.0026277960278093815,0.006210266146808863,-0.008809179067611694
1772556091447834400,1.64083447265625,0.005351883824914694,-0.0048520006239414215,-0.023448528721928596
1772556091457827600,1.65082763671875,0.007098917383700609,-0.01591157540678978,-0.028248611837625504
1772556091467820500,1.660820556640625,0.006808487698435783,-0.018284648656845093,-0.032622329890728
1772556091477812500,1.6708125,0.005717390216886997,-0.01821380853652954,-0.029467551037669182
1772556091487805700,1.6808056640625,0.004763712175190449,-0.02036884054541588,-0.01977071538567543
1772556091497798400,1.69079833984375,-0.0007223994471132755,-0.017227642238140106,-0.014512036927044392
1772556091507791600,1.70079150390625,0.000878466758877039,-0.016353387385606766,-0.005553520750254393
1772556091517784000,1.7107841796875,-0.00254635838791728,-0.014223657548427582,0.0008090371848084033
1772556091527777300,1.72077734375,-0.003838194068521261,-0.010698119178414345,0.005902979057282209
1772556091537770000,1.73077001953125,-0.00601373054087162,-0.010330602526664734,0.00518525717779994
1772556091547763200,1.74076318359375,-0.007675462868064642,-0.004289615899324417,0.006963266059756279
1772556091557755000,1.7507548828125,-0.006574245635420084,0.00020366953685879707,0.003896103473380208
1772556091567748000,1.760748046875,-0.011107317171990871,0.005002706311643124,-0.0007708405610173941
1772556091577741000,1.770740966796875,-0.012799489311873913,0.0029906881973147392,-0.0036009817849844694
1772556091587734300,1.780734375,-0.020313309505581856,0.0005353554151952267,-0.004027494695037603
1772556091597726200,1.790726318359375,-0.025362929329276085,-0.00710019376128912,-0.0035657023545354605
1772556091607719200,1.80071923828125,-0.03586692735552788,-0.016894293949007988,-0.001607760088518262
1772556091617712000,1.810712158203125,-0.04045075923204422,-0.019454922527074814,-0.0028900722973048687
1772556091627705000,1.820705078125,-0.04537154734134674,-0.021743154153227806,-0.007533138617873192
1772556091637698000,1.830697998046875,-0.035592950880527496,-0.019671747460961342,-0.007214890792965889
1772556091647690000,1.84068994140625,-0.0242404043674469,-0.01770755834877491,-0.00828527845442295
1772556091657683200,1.85068310546875,-0.004197188187390566,-0.013902701437473297,-0.013625448569655418
1772556091667676200,1.86067626953125,0.02438580058515072,-0.011713709682226181,-0.014647486619651318
1772556091677669000,1.870669189453125,0.048963580280542374,-0.003438469721004367,-0.02185639925301075
1772556091687661000,1.8806611328125,0.07180241495370865,0.005910270381718874,-0.02247031219303608
1772556091697654000,1.890654052734375,0.07471751421689987,0.015282200649380684,-0.0216298196464777
1772556091707647000,1.90064697265625,0.06798601150512695,0.02676045149564743,-0.014660723507404327
1772556091717640200,1.91064013671875,0.04611719772219658,0.03724345564842224,-0.0033335005864501
1772556091727632100,1.920632080078125,0.017272086814045906,0.05362676456570625,0.01054475549608469
1772556091737625000,1.930625,-0.012717769481241703,0.07066886126995087,0.021668512374162674
1772556091747618300,1.940618408203125,-0.04096579551696777,0.07650473713874817,0.03258975222706795
1772556091757611000,1.950611083984375,-0.05353351682424545,0.06057823449373245,0.031130073592066765
1772556091767603200,1.960603271484375,-0.050718821585178375,0.021102195605635643,0.026606960222125053
1772556091777596000,1.970595947265625,-0.03668183460831642,-0.028115151450037956,0.01496814750134945
1772556091787589000,1.980589111328125,-0.017339807003736496,-0.081265889108181,-0.006220633629709482
1772556091797582000,1.99058203125,0.00020243623293936253,-0.11530028283596039,-0.03565815091133118
1772556091807574000,2.000573974609375,0.016587451100349426,-0.1305965632200241,-0.059342604130506516
1772556091817567200,2.010567138671875,0.023036295548081398,-0.12053140252828598,-0.08134084939956665
1772556091827560200,2.020560302734375,0.026777423918247223,-0.09316571056842804,-0.08033140748739243
1772556091837553200,2.03055322265625,0.018241193145513535,-0.052877940237522125,-0.06709709018468857
1772556091847545000,2.040545166015625,0.005686561111360788,-0.007482818327844143,-0.039255086332559586
1772556091857538300,2.050538330078125,-0.007712068501859903,0.04087406396865845,0.00034611960290931165
1772556091867531000,2.060531005859375,-0.014295771718025208,0.09065388143062592,0.041157178580760956
1772556091877524200,2.070524169921875,-0.02134649083018303,0.13047613203525543,0.07439928501844406
1772556091887516000,2.080515869140625,-0.020885968580842018,0.1478935033082962,0.09494161605834961
1772556091897509000,2.090509033203125,-0.015265101566910744,0.13889095187187195,0.09630754590034485
1772556091907502000,2.100502197265625,-0.010009207762777805,0.10994420200586319,0.08081594854593277
1772556091917495000,2.1104951171875,-0.0043065813370049,0.06469149887561798,0.05177444592118263
1772556091927487200,2.1204873046875,0.000667014392092824,0.013947000727057457,0.011194378137588501
1772556091937480200,2.130480224609375,0.005712905898690224,-0.03466128185391426,-0.02799004130065441
1772556091947473200,2.14047314453125,0.0057853227481245995,-0.07327722012996674,-0.06192470341920853
1772556091957466000,2.150466064453125,0.0025442554615437984,-0.09598200023174286,-0.08175220340490341
1772556091967458000,2.1604580078125,-0.0036810061428695917,-0.09837839752435684,-0.0881182849407196
1772556091977451000,2.170450927734375,-0.008981496095657349,-0.0829554945230484,-0.07653087377548218
1772556091987444200,2.1804443359375,-0.018038250505924225,-0.054077960550785065,-0.052147168666124344
1772556091997437000,2.19043701171875,-0.02311716601252556,-0.015582235530018806,-0.021698717027902603
1772556092007429000,2.20042919921875,-0.028870288282632828,0.024093788117170334,0.006891405209898949
1772556092017422000,2.210422119140625,-0.029824765399098396,0.050402622669935226,0.026783352717757225
1772556092027415000,2.2204150390625,-0.022644514217972755,0.06072795391082764,0.04500339552760124
1772556092037408000,2.230407958984375,-0.008337214589118958,0.05442611873149872,0.04590274393558502
1772556092047400000,2.24039990234375,0.011188816279172897,0.03397410735487938,0.030940305441617966
1772556092057393200,2.25039306640625,0.021215351298451424,0.00881921872496605,0.013113106600940228
1772556092067386000,2.26038623046875,0.03334449231624603,-0.01746385358273983,-0.006795181427150965
1772556092077379300,2.27037939453125,0.036139748990535736,-0.028252851217985153,-0.027766775339841843
1772556092087371000,2.28037109375,0.04404079169034958,-0.017169147729873657,-0.04324626177549362
1772556092097364200,2.2903642578125,0.04382560774683952,0.0025126775726675987,-0.05280701071023941
1772556092107357000,2.30035693359375,0.04220505431294441,0.022227969020605087,-0.05530696362257004
1772556092117350100,2.31035009765625,0.02902107685804367,0.020966695621609688,-0.043983202427625656
1772556092127342300,2.32034228515625,0.008663544431328773,0.0050028529949486256,-0.027705546468496323
1772556092137335000,2.3303349609375,-0.01542847603559494,-0.01797809638082981,-0.007883639074862003
1772556092147328300,2.340328369140625,-0.04153954237699509,-0.03181958198547363,0.009007519111037254
1772556092157321200,2.3503212890625,-0.0661868304014206,-0.026296187192201614,0.025489822030067444
1772556092167313200,2.360313232421875,-0.08105097711086273,-0.010828186757862568,0.038431763648986816
1772556092177306000,2.37030615234375,-0.08544252812862396,0.016609029844403267,0.0453229621052742
1772556092187299000,2.380299072265625,-0.07436708360910416,0.051485538482666016,0.044111467897892
1772556092197292000,2.3902919921875,-0.04350636899471283,0.0722198411822319,0.031216708943247795
1772556092207284200,2.4002841796875,-0.0003461749292910099,0.06965970993041992,0.013912864029407501
1772556092217277000,2.41027685546875,0.03353748843073845,0.04395382106304169,-0.012141373008489609
1772556092227270100,2.420270263671875,0.055070988833904266,-0.0021868827752768993,-0.02749941684305668
1772556092237263000,2.43026318359375,0.05474821478128433,-0.04667285829782486,-0.043005142360925674
1772556092247255000,2.440255126953125,0.037238214164972305,-0.07311208546161652,-0.04947257786989212
1772556092257248300,2.450248291015625,0.017073825001716614,-0.0729653462767601,-0.04909893497824669
1772556092267241000,2.460240966796875,0.006582736037671566,-0.046615198254585266,-0.03758515790104866
1772556092277234200,2.470234130859375,-0.0017891771858558059,-0.011645764112472534,-0.01922079734504223
1772556092287226000,2.48022607421875,0.0010662195272743702,0.028236452490091324,0.005107645411044359
1772556092297219000,2.490218994140625,0.00577282439917326,0.05902099609375,0.02994401939213276
1772556092307212000,2.5002119140625,0.012396825477480888,0.07574711740016937,0.050501227378845215
1772556092317205200,2.510205322265625,0.013660496100783348,0.0714234784245491,0.05650239437818527
1772556092327197200,2.520197265625,0.013364352285861969,0.05400986596941948,0.048263370990753174
1772556092337190100,2.530190185546875,0.010946467518806458,0.026953481137752533,0.029134150594472885
1772556092347183000,2.54018310546875,0.005019029136747122,-0.004888287279754877,0.0017398211639374495
1772556092357176000,2.550176025390625,-0.0018447356997057796,-0.035493601113557816,-0.023498956114053726
1772556092367168300,2.560168212890625,-0.005628595594316721,-0.0650961697101593,-0.049571745097637177
1772556092377161000,2.570160888671875,-0.00500568188726902,-0.07953662425279617,-0.06347770243883133
1772556092387154200,2.580154296875,-0.005152054131031036,-0.08126956969499588,-0.06331610679626465
1772556092397147100,2.590147216796875,-0.005629824940115213,-0.0657513290643692,-0.05203602463006973
1772556092407139000,2.60013916015625,-0.007132319267839193,-0.043420419096946716,-0.032408226281404495
1772556092417132000,2.610132080078125,-0.005664917640388012,-0.01593766175210476,-0.004343568347394466
1772556092427125200,2.620125244140625,-0.0093846982344985,0.013535356149077415,0.01943160593509674
1772556092437118000,2.630117919921875,-0.011265423148870468,0.03388457000255585,0.03861861303448677
1772556092447110100,2.640110107421875,-0.010804284363985062,0.05498579517006874,0.04695272445678711
1772556092457103000,2.65010302734375,-0.009012511000037193,0.05887693911790848,0.044891439378261566
1772556092467096000,2.660095947265625,-0.00531426165252924,0.0562002994120121,0.03490274399518967
1772556092477089300,2.67008935546875,-0.006265009753406048,0.04711306467652321,0.018291274085640907
1772556092487081000,2.6800810546875,-0.0007700887508690357,0.025106139481067657,0.0021547763608396053
1772556092497074200,2.69007421875,-0.00466043408960104,0.002224523574113846,-0.01748283952474594
1772556092507067100,2.700067138671875,-0.002546683419495821,-0.017710834741592407,-0.028226297348737717
1772556092517059800,2.710059814453125,-0.003611681517213583,-0.0319339781999588,-0.03336913138628006
1772556092527051800,2.7200517578125,-0.0018289407016709447,-0.03362950682640076,-0.030330868437886238
1772556092537044700,2.730044677734375,-0.00299274199642241,-0.026876796036958694,-0.02287108637392521
1772556092547038000,2.740037841796875,-0.00407304335385561,-0.015573620796203613,-0.012017975561320782
1772556092557030700,2.75003076171875,-0.005359882488846779,-0.0011845617555081844,0.0005039412062615156
1772556092567022800,2.76002294921875,-0.0016233865171670914,0.008307610638439655,0.011402742937207222
1772556092577015600,2.770015625,-0.0034228842705488205,0.017255034297704697,0.0177778173238039
1772556092587008800,2.7800087890625,-0.0032657580450177193,0.0219656303524971,0.019284900277853012
1772556092597001700,2.790001708984375,0.0006496214773505926,0.02080981805920601,0.013661369681358337
1772556092606993700,2.79999365234375,0.0030657444149255753,0.015406805090606213,0.005701554473489523
1772556092616986600,2.809986572265625,0.006282843183726072,0.00462286826223135,-0.0009430323261767626
1772556092626979800,2.819979736328125,0.007815737277269363,-0.010419858619570732,-0.009176407009363174
1772556092636972500,2.82997265625,0.009083402343094349,-0.021810464560985565,-0.014058247208595276
1772556092646964700,2.83996484375,0.010572499595582485,-0.02839396893978119,-0.01954367384314537
1772556092656957700,2.849957763671875,0.008517071604728699,-0.03259963169693947,-0.021245434880256653
1772556092666950700,2.85995068359375,0.009311448782682419,-0.031197968870401382,-0.016537833958864212
1772556092676944000,2.86994384765625,0.006140423007309437,-0.017935961484909058,-0.012397151440382004
1772556092686935600,2.879935546875,0.002904459834098816,-0.008823730051517487,-0.004453138913959265
1772556092696928800,2.8899287109375,0.001789127942174673,0.0016414271667599678,0.00009554048301652074
1772556092706921700,2.899921630859375,-0.003173427190631628,0.018035737797617912,0.008702482096850872
1772556092716914700,2.909914794921875,0.00037070736289024353,0.025102702900767326,0.012915603816509247
1772556092726907000,2.919906982421875,-0.0028893291018903255,0.028241463005542755,0.01513371616601944
1772556092736899800,2.92989990234375,-0.00506859365850687,0.026565805077552795,0.01584744267165661
1772556092746892800,2.939892822265625,-0.004976469092071056,0.02511161006987095,0.01228959858417511
1772556092756885800,2.9498857421875,-0.00429150415584445,0.020525380969047546,0.010233104228973389
1772556092766877700,2.959877685546875,-0.003793554613366723,0.014256259426474571,0.004283568821847439
1772556092776870700,2.96987060546875,-0.001877410220913589,0.004914955701678991,-0.00018974306294694543
1772556092786863900,2.97986376953125,-0.002571184653788805,-0.0013971091248095036,-0.00788374338299036
1772556092796855800,2.989855712890625,-0.0011088427854701877,-0.009191915392875671,-0.011374348774552345
1772556092806848800,2.999848876953125,0.0037109670229256153,-0.012566011399030685,-0.01066120807081461
1772556092816841700,3.009841796875,0.0030638189055025578,-0.015336763113737106,-0.012852190993726254
1772556092826834700,3.019834716796875,0.0011265943758189678,-0.008726751431822777,-0.007808154448866844
1772556092836827000,3.029826904296875,0.0020445859991014004,-0.004768495447933674,-0.006194278597831726
1772556092846819600,3.039819580078125,0.0033111246302723885,0.0027943095192313194,-0.002226469572633505
1772556092856812800,3.049812744140625,-0.0014380905777215958,0.005038822069764137,0.005017062183469534
1772556092866805800,3.0598056640625,-0.002216922352090478,0.010031371377408504,0.009928128682076931
1772556092876797700,3.069797607421875,-0.003682992421090603,0.007071534171700478,0.012080228887498379
1772556092886790700,3.079790771484375,-0.0002927064197137952,0.006841300055384636,0.015150400809943676
1772556092896784000,3.089783935546875,0.000799722271040082,0.005423433147370815,0.010095188394188881
1772556092906776600,3.099776611328125,0.003937049303203821,0.0009182612411677837,0.007403417490422726
1772556092916768800,3.109768798828125,0.006701677106320858,-0.003325485857203603,0.001968704629689455
1772556092926761700,3.11976171875,0.009841482155025005,-0.004593455232679844,-0.0020076953805983067
1772556092936754700,3.129754638671875,0.013108648359775543,-0.007311743684113026,-0.0052258591167628765
1772556092946748000,3.139747802734375,0.016515465453267097,-0.006642789114266634,-0.0015542188193649054
1772556092956739600,3.149739501953125,0.016433440148830414,-0.006358363199979067,-0.00002449908060953021
1772556092966732800,3.15973291015625,0.021253742277622223,-0.0025040563195943832,0.0033028109464794397
1772556092976725800,3.169725830078125,0.0240617785602808,0.00027335435152053833,0.009471224620938301
1772556092986718700,3.17971875,0.028123099356889725,0.0006515234708786011,0.016337919980287552
1772556092996710700,3.189710693359375,0.03098599798977375,0.006789576727896929,0.017963247373700142
1772556093006703900,3.199703857421875,0.032064616680145264,0.009019086137413979,0.020045926794409752
1772556093016696600,3.209696533203125,0.03220629692077637,0.007533042225986719,0.024838019162416458
1772556093026689800,3.219689697265625,0.028833938762545586,0.005819049663841724,0.024046877399086952
1772556093036681700,3.229681640625,0.024385394528508186,-0.0014404607936739922,0.025436248630285263
1772556093046674700,3.2396748046875,0.017513271421194077,-0.00248893816024065,0.02464313432574272
1772556093056668000,3.24966796875,0.008479561656713486,-0.005395245738327503,0.023403434082865715
1772556093066660600,3.25966064453125,-0.0015181908383965492,-0.006570922676473856,0.020835207775235176
1772556093076652800,3.26965283203125,-0.005296683870255947,-0.004937073215842247,0.01832917332649231
1772556093086645800,3.279645751953125,-0.010977759957313538,-0.006053312681615353,0.013960129581391811
1772556093096638700,3.289638671875,-0.006102843210101128,-0.009352702647447586,0.01343442127108574
1772556093106631700,3.299631591796875,0.000774503918364644,-0.007930552586913109,0.011739137582480907
1772556093116623600,3.30962353515625,0.006520273629575968,-0.004565381910651922,0.007960645481944084
1772556093126616800,3.319616943359375,0.008334746584296227,0.004461685661226511,0.004809276666492224
1772556093136609800,3.32960986328125,0.005365322809666395,0.02207689918577671,0.0020023048855364323
1772556093146602800,3.339602783203125,-0.0008423210820183158,0.03920063003897667,-0.006477012299001217
1772556093156594700,3.3495947265625,-0.00824564229696989,0.047541119158267975,-0.014264628291130066
1772556093166588000,3.359587890625,-0.012172780930995941,0.04005105048418045,-0.017707999795675278
1772556093176580600,3.36958056640625,-0.007799071725457907,0.018535638228058815,-0.02210967242717743
1772556093186573800,3.37957373046875,-0.0024826442822813988,-0.009617125615477562,-0.02715102955698967
1772556093196565500,3.3895654296875,0.01125713624060154,-0.03615765646100044,-0.03752004727721214
1772556093206558700,3.399558837890625,0.02354438789188862,-0.054240450263023376,-0.04640692099928856
1772556093216551700,3.4095517578125,0.02825658582150936,-0.06353460997343063,-0.04753796383738518
1772556093226543600,3.419543701171875,0.028331009671092033,-0.06078455597162247,-0.04435595124959946
1772556093236536800,3.429536865234375,0.018590765073895454,-0.0506749302148819,-0.04011007398366928
1772556093246529800,3.43952978515625,0.00401137163862586,-0.026596076786518097,-0.02663031965494156
1772556093256522800,3.449522705078125,-0.006885218434035778,0.0017386260442435741,-0.006909613031893969
1772556093266514700,3.4595146484375,-0.016194645315408707,0.028286464512348175,0.006774078123271465
1772556093276508000,3.4695078125,-0.01815180294215679,0.04823913052678108,0.02290404587984085
1772556093286500600,3.47950048828125,-0.015538197942078114,0.05922059714794159,0.029860978946089745
1772556093296493800,3.489493896484375,-0.00959082692861557,0.057808056473731995,0.036548711359500885
1772556093306485800,3.49948583984375,-0.003757048863917589,0.04219748079776764,0.033701058477163315
1772556093316478700,3.509478759765625,0.0003183863591402769,0.02042427472770214,0.023520860821008682
1772556093326471700,3.5194716796875,0.0034458390437066555,-0.005715217906981707,0.0075919004157185555
1772556093336464600,3.529464599609375,0.0034746010787785053,-0.029156893491744995,-0.006753216497600079
1772556093346456800,3.539456787109375,-0.000294283963739872,-0.0455288328230381,-0.026195494458079338
1772556093356449800,3.54944970703125,-0.006653380114585161,-0.052641335874795914,-0.03649367392063141
1772556093366442800,3.55944287109375,-0.010137531906366348,-0.05155286565423012,-0.0399075411260128
1772556093376435700,3.569435791015625,-0.009327132254838943,-0.04122645780444145,-0.03314657509326935
1772556093386427600,3.579427734375,-0.009693747386336327,-0.032542984932661057,-0.023108649998903275
1772556093396420600,3.589420654296875,-0.009104389697313309,-0.01717148721218109,-0.005921142175793648
1772556093406413800,3.599413818359375,-0.007688714191317558,0.0026080370880663395,0.010295344516634941
1772556093416406500,3.609406494140625,-0.005335278809070587,0.021419541910290718,0.018941296264529228
1772556093426398700,3.619398681640625,-0.0030615332070738077,0.03532945737242699,0.027444735169410706
1772556093436392000,3.629391845703125,0.001664778683334589,0.043807365000247955,0.026484666392207146
1772556093446384600,3.639384521484375,0.004529520869255066,0.04156247898936272,0.02107033133506775
1772556093456377900,3.6493779296875,0.005242182407528162,0.03045177087187767,0.013634518720209599
1772556093466369500,3.65936962890625,0.008803298696875572,0.012724161148071289,0.0019249182660132647
1772556093476362800,3.66936279296875,0.012331987731158733,0.0021130628883838654,-0.009711231105029583
1772556093486355700,3.679355712890625,0.013279929757118225,-0.007596772629767656,-0.016237325966358185
1772556093496347600,3.68934765625,0.0125262551009655,-0.013398202136158943,-0.0201732125133276
1772556093506340900,3.6993408203125,0.008998161181807518,-0.017081288620829582,-0.022504422813653946
1772556093516334600,3.70933447265625,0.005118201486766338,-0.01623493619263172,-0.019500110298395157
1772556093526327600,3.71932763671875,0.000576958991587162,-0.019840702414512634,-0.015572077594697475
1772556093536319500,3.729319580078125,-0.0005820487858727574,-0.016101624816656113,-0.010362401604652405
1772556093546312400,3.7393125,-0.0022436564322561026,-0.013628917746245861,-0.0013556245248764753
1772556093556305400,3.749305419921875,0.00048342044465243816,-0.011050712317228317,0.0016793136019259691
1772556093566298400,3.75929833984375,0.00223809527233243,-0.007966121658682823,0.00794823095202446
1772556093576290600,3.76929052734375,0.0016173126641660929,0.00005851546302437782,0.012895585969090462
1772556093586283500,3.779283447265625,0.0018429839983582497,0.004514778032898903,0.014949441887438297
1772556093596276500,3.7892763671875,0.0026768199168145657,0.006061275489628315,0.0190882608294487
1772556093606269700,3.799269775390625,-0.0007861298508942127,0.004282624926418066,0.016774868592619896
1772556093616261400,3.809261474609375,-0.0021837567910552025,0.003978492226451635,0.021753648295998573
1772556093626254600,3.819254638671875,-0.0033790438901633024,-0.00014148838818073273,0.020913830026984215
1772556093636247600,3.82924755859375,-0.0037305811420083046,-0.00005147326737642288,0.02059318497776985
1772556093646240500,3.839240478515625,-0.0033803964033722878,0.004508576355874538,0.02282647229731083
1772556093656232700,3.849232666015625,-0.0018482799641788006,0.007983468472957611,0.02265017107129097
1772556093666225400,3.859225341796875,0.00012344308197498322,0.012504274025559425,0.022288795560598373
1772556093676218600,3.869218505859375,-0.0010054708691313863,0.015978900715708733,0.02673281356692314
1772556093686211600,3.879211669921875,-0.000804340816102922,0.01636219210922718,0.029227782040834427
1772556093696203500,3.88920361328125,-0.003387873526662588,0.01552063412964344,0.02817024104297161
1772556093706196500,3.899196533203125,-0.005554703064262867,0.008037267252802849,0.02469625137746334
1772556093716189700,3.909189697265625,-0.008825065568089485,0.0029181395657360554,0.01915953867137432
1772556093726181600,3.919181640625,-0.011767756193876266,0.0018555354326963425,0.01467054057866335
1772556093736174600,3.929174560546875,-0.010301419533789158,0.005642550066113472,0.007495984900742769
1772556093746167300,3.939167236328125,-0.00709550641477108,0.008178145624697208,0.0037276120856404305
1772556093756160500,3.949160400390625,-0.005616386421024799,0.006357342936098576,-0.0013521014479920268
1772556093766152700,3.959152587890625,-0.002094437601044774,0.0006015677936375141,-0.00787914078682661
1772556093776145400,3.9691455078125,-0.0017847118433564901,-0.008608974516391754,-0.009889028035104275
1772556093786138600,3.979138671875,0.0046074483543634415,-0.01300832349807024,-0.010501916520297527
1772556093796131600,3.989131591796875,0.005435957573354244,-0.023401577025651932,-0.010268357582390308
1772556093806123500,3.99912353515625,0.00720206368714571,-0.02185823954641819,-0.010376953519880772
1772556093816116500,4.009116455078125,0.006796463392674923,-0.018568437546491623,-0.013009754940867424
1772556093826109400,4.019109375,0.004882346373051405,-0.01755213737487793,-0.011487696319818497
1772556093836102400,4.029102294921875,0.006961742416024208,-0.013573907315731049,-0.010168898850679398
1772556093846094600,4.039094482421875,0.0033184168860316277,-0.011551879346370697,-0.004511702805757523
1772556093856087600,4.049087646484375,0.0022534187883138657,-0.004807956516742706,-0.0020501427352428436
1772556093866080500,4.05908056640625,0.0005772847216576338,-0.002345792017877102,0.0036462151911109686
1772556093876073500,4.069073486328125,-0.000674667302519083,-0.00003017392009496689,0.008700628764927387
1772556093886065400,4.0790654296875,0.0014397201593965292,0.005463890731334686,0.014237811788916588
1772556093896058600,4.08905859375,-0.0020271828398108482,0.011180899105966091,0.012600233778357506
1772556093906051600,4.099051513671875,-0.004171294160187244,0.012455220334231853,0.012092635035514832
1772556093916043500,4.10904345703125,-0.004325224552303553,0.016106948256492615,0.014797608368098736
1772556093926036500,4.119036376953125,-0.005745939910411835,0.017697272822260857,0.01466088555753231
1772556093936029400,4.129029541015625,-0.0020039319060742855,0.0147669967263937,0.013248877599835396
1772556093946022400,4.1390224609375,-0.0023367037065327168,0.008322489447891712,0.008958060294389725
1772556093956014600,4.1490146484375,-0.004462971352040768,-0.000978867057710886,0.002340105129405856
1772556093966007600,4.159007568359375,-0.003333976026624441,-0.006519422400742769,0.0014670186210423708
1772556093976000500,4.16900048828125,-0.0030948242638260126,-0.010106700472533703,-0.003977547865360975
1772556093985993700,4.17899365234375,0.0003794317599385977,-0.01104063168168068,-0.003962039016187191
1772556093995985400,4.1889853515625,-0.0022597608622163534,-0.010406799614429474,-0.008111243136227131
1772556094005978600,4.198978515625,-0.0003079890739172697,-0.011961361393332481,-0.007765689864754677
1772556094015971300,4.208971435546875,0.002323480322957039,-0.011285452172160149,-0.0033009001053869724
1772556094025964500,4.218964599609375,0.0015852521173655987,-0.010757080279290676,0.003143683075904846
1772556094035956700,4.228956787109375,0.002863836009055376,-0.004589998163282871,0.0075951567851006985
1772556094045949400,4.238949462890625,0.005756990518420935,0.002820283640176058,0.01152870710939169
1772556094055942700,4.248942626953125,0.005690677557140589,0.006938862148672342,0.015559934079647064
1772556094065935600,4.258935546875,0.0023822342045605183,0.016050569713115692,0.013917208649218082
1772556094075927600,4.268927490234375,0.000326007604598999,0.018617592751979828,0.01646159216761589
1772556094085920500,4.27892041015625,-0.0015839094994589686,0.017075084149837494,0.01544242724776268
1772556094095913500,4.28891357421875,-0.002235851250588894,0.013102712109684944,0.009312363341450691
1772556094105905400,4.298905517578125,0.00024912389926612377,0.006989846471697092,0.005977689754217863
1772556094115898600,4.308898681640625,0.0004999935626983643,-0.0005101473070681095,-0.0018695804756134748
1772556094125891300,4.318891357421875,0.00009920541197061539,-0.006176406051963568,-0.010999741964042187
1772556094135884500,4.328884521484375,0.0029985886067152023,-0.012304605916142464,-0.012726003304123878
1772556094145876700,4.338876708984375,0.00020755361765623093,-0.015569828450679779,-0.01839550957083702
1772556094155869400,4.348869384765625,0.001108500873669982,-0.016433224081993103,-0.019338002428412437
1772556094165862700,4.358862548828125,-0.0004912983858957887,-0.015207071788609028,-0.01777419075369835
1772556094175855600,4.368855712890625,-0.0006156680174171925,-0.014130622148513794,-0.01411047950387001
1772556094185847600,4.37884765625,-0.0010065390961244702,-0.00725951325148344,-0.011701218783855438
1772556094195840500,4.388840576171875,-0.0024446460884064436,0.0007733795791864395,-0.005813236348330975
1772556094205833500,4.39883349609375,-0.0019067490939050913,0.007578783668577671,-0.0015444888267666101
1772556094215825700,4.40882568359375,-0.0010750438086688519,0.016646048054099083,-0.0010842946358025074
1772556094225818600,4.418818603515625,-0.0019313511438667774,0.01914702169597149,-0.001954378094524145
1772556094235811600,4.4288115234375,0.0010026535019278526,0.015138696879148483,0.0016499438788741827
1772556094245804500,4.438804443359375,0.00037822360172867775,0.00942743569612503,-0.00033607729710638523
1772556094255796500,4.44879638671875,0.0014514776412397623,0.0020310375839471817,-0.0006841524736955762
1772556094265789400,4.45878955078125,-0.0013150956947356462,-0.003252560505643487,-0.005096908193081617
1772556094275782700,4.46878271484375,0.0013203686103224754,-0.009330159984529018,-0.007065250538289547
1772556094285775400,4.478775390625,0.0010701324790716171,-0.012097182683646679,-0.008884959854185581
1772556094295767600,4.488767578125,-0.0031539073679596186,-0.014706548303365707,-0.0077682966366410255
1772556094305760500,4.498760498046875,-0.0030797061044722795,-0.01694946363568306,-0.011558535508811474
1772556094315753500,4.50875341796875,-0.0025888856034725904,-0.01598220318555832,-0.010510582476854324
1772556094325746400,4.518746337890625,-0.004198233596980572,-0.01096827071160078,-0.0072492752224206924
1772556094335738400,4.52873828125,-0.006168706808239222,-0.0075024329125881195,-0.007457002066075802
1772556094345731600,4.538731689453125,-0.002824432449415326,-0.0007295580580830574,-0.0036133290268480778
1772556094355724500,4.548724609375,-0.004573862999677658,0.0065027885138988495,-0.0029107872396707535
1772556094365717500,4.558717529296875,-0.002182526746764779,0.010632134974002838,0.0008816284826025367
1772556094375709400,4.56870947265625,0.0014548187609761953,0.01040496677160263,0.004482222255319357
1772556094385702700,4.57870263671875,0.0025372286327183247,0.009406013414263725,0.000257144623901695
1772556094395695400,4.5886953125,0.0028466880321502686,0.009329315274953842,0.003377836663275957
1772556094405687600,4.5986875,0.005865852348506451,0.008310618810355663,0.0028824550099670887
1772556094415680500,4.608680419921875,0.000108364038169384,0.007310069166123867,0.0003652349696494639
1772556094425673500,4.618673583984375,-0.0022971879225224257,0.008042857050895691,-0.0012953480472788215
1772556094435666700,4.628666748046875,-0.002593331504613161,0.003001493401825428,-0.0025478326715528965
1772556094445658400,4.638658447265625,-0.005856071133166552,-0.0016222866252064705,-0.006901596672832966
1772556094455651600,4.648651611328125,-0.0005510542541742325,-0.008613617159426212,-0.00837272685021162
1772556094465644500,4.65864453125,-0.002490430139005184,-0.01068239938467741,-0.007656104397028685
1772556094475637500,4.668637451171875,-0.00016176188364624977,-0.012813194654881954,-0.007994857616722584
1772556094485629400,4.67862939453125,0.004076759796589613,-0.016034021973609924,-0.008492042310535908
1772556094495622700,4.68862255859375,0.00541393319144845,-0.011882951483130455,-0.008608155883848667
1772556094505615400,4.698615478515625,0.005317136645317078,-0.005187307950109243,-0.006678231060504913
1772556094515607300,4.708607177734375,0.0012899045832455158,-0.00024341559037566185,-0.008055351674556732
1772556094525599500,4.718599609375,0.0005375002510845661,0.0034655313938856125,-0.00938723236322403
1772556094535592200,4.72859228515625,-0.002708893269300461,0.006374502554535866,-0.005241755396127701
1772556094545585400,4.73858544921875,-0.004503084346652031,0.004219356924295425,-0.004273028112947941
1772556094555577300,4.748577392578125,0.0007398808375000954,0.0031682075932621956,0.002092725597321987
1772556094565570300,4.7585703125,0.00224864250048995,0.0017550205811858177,0.0015661169309169054
1772556094575563500,4.7685634765625,0.002894459292292595,0.0017238613218069077,0.0017208466306328773
1772556094585556200,4.77855615234375,0.006896757986396551,-0.00040612975135445595,-0.000025890651158988476
1772556094595548400,4.78854833984375,0.010025706142187119,0.0024684867821633816,-0.0007052630535326898
1772556094605541400,4.798541259765625,0.007854269817471504,0.003379511646926403,-0.00413707597181201
1772556094615534300,4.808534423828125,0.007861725986003876,-0.001173695083707571,-0.006645507644861937
1772556094625527300,4.81852734375,0.00240808492526412,0.002772461622953415,-0.003710036166012287
1772556094635519200,4.828519287109375,0.001667459961026907,-0.00032053375616669655,-0.004211509134620428
1772556094645512400,4.838512451171875,-0.0018714299658313394,-0.0029777223244309425,-0.006124888546764851
1772556094655505400,4.84850537109375,0.0008167647756636143,-0.005233419593423605,-0.006011970341205597
1772556094665497300,4.858497314453125,0.0004729088395833969,-0.004172605462372303,-0.0012469461653381586
1772556094675490300,4.868490234375,-0.0033069157507270575,-0.001494796946644783,-0.0007779635488986969
1772556094685483500,4.8784833984375,-0.0032602488063275814,-0.001590633299201727,-0.0019832763355225325
1772556094695476200,4.888476318359375,-0.003428560681641102,-0.003190660383552313,-0.000643173698335886
1772556094705468400,4.898468505859375,-0.0045280177146196365,-0.003083293791860342,-0.0022918730974197388
1772556094715461400,4.90846142578125,-0.0021708535496145487,-0.003083560150116682,-0.0021347468718886375
1772556094725454300,4.918454345703125,-0.0010902048088610172,-0.0037872043903917074,-0.002486584009602666
1772556094735447300,4.928447265625,0.004495509434491396,-0.0047347573563456535,-0.0036189602687954903
1772556094745439200,4.938439208984375,0.00487519521266222,-0.005925610661506653,-0.005673754028975964
1772556094755432400,4.948432373046875,0.009461690671741962,-0.001617148518562317,-0.005088923964649439
1772556094765425400,4.95842529296875,0.00425576651468873,0.003807250875979662,-0.002643836662173271
1772556094775418400,4.96841845703125,0.00023519247770309448,0.006107422988861799,-0.0008262293413281441
1772556094785410300,4.978410400390625,-0.00680288951843977,0.008907856419682503,-0.00027905614115297794
1772556094795403300,4.9884033203125,-0.007839391939342022,0.0070377835072577,0.00008766114478930831
1772556094805396200,4.998396240234375,-0.00952240638434887,-0.0010089990682899952,0.0027824505232274532
1772556094815388400,5.008388427734375,-0.008228376507759094,-0.005488169379532337,0.0014194445684552193
1772556094825381400,5.01838134765625,-0.0012778732925653458,-0.009643119759857655,-0.0007104498217813671
1772556094835374300,5.028374267578125,-0.0015646957326680422,-0.010536876507103443,0.0018041068688035011
1772556094845367600,5.038367431640625,0.0007290623616427183,-0.011482104659080505,0.0017835621256381273
1772556094855359200,5.048359130859375,0.0019317460246384144,-0.004959756974130869,-0.0017419304931536317
1772556094865352400,5.0583525390625,0.002351869363337755,-0.001983216032385826,-0.0005387818091548979
1772556094875345400,5.068345458984375,0.002683965489268303,0.0008346745744347572,-0.0032027417328208685
1772556094885338400,5.07833837890625,0.0034979935735464096,0.002301805652678013,-0.0010267026955261827
1772556094895330300,5.088330322265625,0.0037768264301121235,0.00037420960143208504,-0.0006163095822557807
1772556094905323300,5.0983232421875,0.005713700782507658,-0.00198820186778903,0.0018754411721602082
1772556094915316200,5.108316162109375,0.005833809729665518,-0.0011218758299946785,0.0058350288309156895
1772556094925309400,5.118309326171875,0.005821948871016502,0.001780778169631958,0.0047043184749782085
1772556094935301400,5.12830126953125,0.0032927445136010647,0.001108064316213131,0.00441003916785121
1772556094945294300,5.13829443359375,0.0016625195275992155,0.002704138867557049,0.0019485432421788573
1772556094955287600,5.14828759765625,-0.00210878299549222,-0.0001174798235297203,0.0004158940864726901
1772556094965279200,5.158279296875,-0.004716840572655201,-0.0044550346210598946,-0.0022592865861952305
1772556094975272400,5.1682724609375,-0.002779124304652214,-0.012295380234718323,-0.004084351006895304
1772556094985265200,5.17826513671875,0.0002846808638423681,-0.01703425496816635,-0.004879369866102934
1772556094995258400,5.18825830078125,0.0009296985808759928,-0.01703425496816635,-0.007608577609062195
1772556095005250600,5.19825048828125,0.0032853498123586178,-0.014708412811160088,-0.010965687222778797
1772556095015243300,5.2082431640625,0.005583125166594982,-0.007782595697790384,-0.006861223839223385
1772556095025236500,5.218236572265625,0.005656667053699493,-0.0032435350585728884,-0.00600076001137495
1772556095035229400,5.2282294921875,0.001332758693024516,0.0020798579789698124,-0.002377795521169901
1772556095045221400,5.238221435546875,0.0003911072853952646,0.007110488135367632,-0.0005576227558776736
1772556095055214300,5.24821435546875,-0.0016938814660534263,0.00864952988922596,0.0026360400952398777
1772556095065207300,5.258207275390625,-0.0038525164127349854,0.006217338144779205,0.0044180285185575485
1772556095075199500,5.268199462890625,-0.004278622101992369,0.005934511311352253,0.0011782931396737695
1772556095085192400,5.2781923828125,-0.002856071572750807,0.0014871321618556976,0.003123893868178129
1772556095095185200,5.28818505859375,-0.0019205030985176563,-0.0021720509976148605,-0.0018711311277002096
1772556095105178400,5.298178466796875,-0.000110674649477005,-0.007633489556610584,-0.007531278766691685
1772556095115170600,5.308170654296875,0.0006371410563588142,-0.011602664366364479,-0.008580830879509449
1772556095125163300,5.318163330078125,0.0010720351710915565,-0.013848508708178997,-0.010052493773400784
1772556095135156500,5.328156494140625,-0.0013900571502745152,-0.013891119509935379,-0.012693017721176147
1772556095145149400,5.3381494140625,-0.003805459477007389,-0.011000949889421463,-0.011037791147828102
1772556095155141400,5.348141357421875,-0.005009208340197802,-0.006066645495593548,-0.00533809419721365
1772556095165134300,5.35813427734375,-0.00673211133107543,0.0008368422277271748,-0.004234682768583298
1772556095175127300,5.368127197265625,-0.005938489455729723,0.0067562502808868885,-0.0021821847185492516
1772556095185119500,5.378119384765625,-0.0073564606718719006,0.004837220534682274,0.003692812751978636
1772556095195112400,5.388112548828125,-0.0055175479501485825,0.009047412313520908,0.003200394567102194
1772556095205105400,5.39810546875,-0.002696665935218334,0.005841535050421953,0.003698172979056835
1772556095215098400,5.408098388671875,-0.0013669496402144432,0.0036521502770483494,0.003730663564056158
1772556095225090300,5.41809033203125,0.0010687813628464937,-0.0009991070255637169,0.0020999161060899496
1772556095235083300,5.428083251953125,0.004660586826503277,-0.005842598155140877,-0.0035260114818811417
1772556095245076500,5.438076416015625,0.004244392737746239,-0.008598086424171925,-0.005660141818225384
1772556095255069200,5.448069091796875,0.007834067568182945,-0.012340361252427101,-0.00991134624928236
1772556095265061400,5.458061279296875,0.008660079911351204,-0.009958701208233833,-0.006514780223369598
1772556095275054300,5.468054443359375,0.008539704605937004,-0.007900876924395561,-0.007237562444061041
1772556095285047300,5.47804736328125,0.007537147495895624,-0.0059729404747486115,-0.001386529766023159
1772556095295039500,5.48803955078125,0.005200490355491638,-0.0015278584323823452,-0.000448830658569932
1772556095305032200,5.4980322265625,0.006726234685629606,-0.0012433156371116638,0.0053452737629413605
1772556095315025400,5.508025390625,0.004459352232515812,0.0010185069404542446,0.010412204079329967
1772556095325018400,5.518018310546875,0.0016848514787852764,0.0027718152850866318,0.011086384765803814
1772556095335010300,5.52801025390625,-0.0047509437426924706,0.007960451766848564,0.010294893756508827
1772556095345003300,5.538003173828125,-0.0032810873817652464,0.009280668571591377,0.010085697285830975
1772556095354996500,5.54799658203125,-0.007214842364192009,0.011372314766049385,0.00334976427257061
1772556095364989200,5.5579892578125,-0.004344530403614044,0.007981395348906517,0.0015168095706030726
1772556095374981400,5.5679814453125,-0.0007205009460449219,0.001162104308605194,-0.00789986178278923
1772556095384974600,5.577974609375,0.001866617240011692,-0.004415546543896198,-0.005765537265688181
1772556095394967300,5.58796728515625,0.0005251830443739891,-0.00815888587385416,-0.01076722051948309
1772556095404960500,5.59796044921875,0.00015551759861409664,-0.003338417736813426,-0.010032853111624718
1772556095414952200,5.6079521484375,0.0015621993225067854,-0.0018300032243132591,-0.010205159895122051
1772556095424945400,5.6179453125,-0.001281010452657938,0.006707972381263971,-0.007012427318841219
1772556095434938400,5.6279384765625,-0.003953226376324892,0.012129636481404305,-0.0016091398429125547
1772556095444930300,5.637930419921875,-0.004763992968946695,0.009481383487582207,0.0051637813448905945
1772556095454923300,5.64792333984375,-0.005179712548851967,0.006158823147416115,0.010678920894861221
1772556095464916500,5.65791650390625,-0.0012059094151481986,0.0010980232618749142,0.009082653559744358
1772556095474909200,5.6679091796875,-0.0015704961260780692,0.0006000124849379063,0.010793467983603477
1772556095484901400,5.6779013671875,-0.0014641983434557915,-0.003329509636387229,0.00942033901810646
1772556095494894300,5.687894287109375,-0.001731047173961997,-0.0016535823233425617,0.002762170508503914
1772556095504887300,5.69788720703125,-0.0010121980449184775,0.00032331887632608414,-0.0001891111023724079
1772556095514881000,5.707881103515625,-0.005455149337649345,-0.0006335549987852573,-0.005118888802826405
1772556095524873000,5.717873046875,-0.0046743485145270824,-0.0016274177469313145,-0.0060208989307284355
1772556095534866200,5.7278662109375,-0.0034985628444701433,-0.006876774597913027,-0.007018252741545439
1772556095544859100,5.737859130859375,-0.002232600934803486,-0.012025952339172363,-0.0041994983330369
1772556095554852000,5.74785205078125,0.0012795759830623865,-0.012893343344330788,-0.003867934923619032
1772556095564844000,5.757843994140625,-0.0019404711201786995,-0.010669190436601639,-0.0022456692531704903
1772556095574837200,5.767837158203125,-0.0021316860802471638,-0.008500577881932259,0.0020537381060421467
1772556095584830000,5.777829833984375,-0.0013099827338010073,-0.0024350988678634167,0.0032448680140078068
1772556095594822100,5.787822265625,-0.0014258302981033921,0.0001172744669020176,0.002695724368095398
1772556095604815000,5.797815185546875,-0.0021483644377440214,-0.0012620976194739342,0.0021578993182629347
1772556095614808000,5.80780810546875,0.0030306847766041756,-0.0043146125972270966,0.0026260828599333763
1772556095624801300,5.81780126953125,0.002394517417997122,-0.0064528281800448895,0.001384550821967423
1772556095634793000,5.82779296875,0.00187200540676713,-0.005215789657086134,0.0028373051900416613
1772556095644786200,5.8377861328125,0.0012314156629145145,-0.009629455395042896,0.00038636670797131956
1772556095654779100,5.847779052734375,0.0015467337798327208,-0.007445663213729858,0.0019576316699385643
1772556095664771000,5.85777099609375,0.002361754421144724,0.0001556030474603176,-0.000379427510779351
1772556095674764000,5.867763916015625,0.00012310128659009933,0.00019155582413077354,0.0003806386957876384
1772556095684757000,5.877757080078125,-0.0000458364374935627,0.00279019633308053,0.0029368759132921696
1772556095694750000,5.88775,0.00098533951677382,-0.00023169256746768951,0.004774190951138735
1772556095704742100,5.8977421875,-0.0014297007583081722,0.0020614545792341232,0.0032763599883764982
1772556095714735000,5.907735107421875,0.00006726221181452274,0.003045758232474327,0.003299795789644122
1772556095724728000,5.91772802734375,0.001305650221183896,0.006533822976052761,0.00311483908444643
1772556095734721300,5.92772119140625,0.0037613511085510254,0.00830109603703022,0.00016272510401904583
1772556095744713000,5.937712890625,0.002596787177026272,0.008469654247164726,-0.0038559839595109224
1772556095754706200,5.9477060546875,0.0011746592354029417,0.0028589065186679363,-0.009051279164850712
1772556095764699100,5.95769921875,-0.00025247863959521055,-0.005080125294625759,-0.00670842919498682
1772556095774691000,5.967691162109375,0.00017682299949228764,-0.011401936411857605,-0.008799010887742043
1772556095784684300,5.977684326171875,-0.0028210170567035675,-0.011474750936031342,-0.011458810418844223
1772556095794677000,5.987677001953125,-0.004632499068975449,-0.012879569083452225,-0.011995702981948853
1772556095804670200,5.997670166015625,-0.0038600158877670765,-0.012969059869647026,-0.009377580136060715
1772556095814662100,6.007662109375,-0.004610228352248669,-0.011739477515220642,-0.006735724862664938
1772556095824655000,6.017655029296875,-0.002989143133163452,-0.006187467370182276,-0.00383301405236125
1772556095834648000,6.02764794921875,-0.0005611390806734562,-0.0051863850094377995,0.0010895730229094625
1772556095844641300,6.037641357421875,-0.002072278643026948,0.0014919866807758808,0.003090372309088707
1772556095854633200,6.04763330078125,0.00028674956411123276,0.0022424659691751003,0.006579912267625332
1772556095864626200,6.057626220703125,-0.000034613534808158875,0.003463148605078459,0.0058564976789057255
1772556095874619000,6.067618896484375,-0.003046116093173623,0.00371321989223361,0.003771774936467409
1772556095884611000,6.077611083984375,-0.0008374946191906929,-0.0009392858482897282,0.001969647128134966
1772556095894604300,6.087604248046875,-0.000599940656684339,-0.0046272315084934235,-0.002378762001171708
1772556095904597000,6.097596923828125,-0.0022038200404495,-0.007680618669837713,-0.005567431449890137
1772556095914590200,6.107590087890625,-0.00037023378536105156,-0.009334707632660866,-0.008970685303211212
1772556095924582000,6.117581787109375,0.0056408243253827095,-0.010736885480582714,-0.01079095620661974
1772556095934575000,6.1275751953125,0.001482564490288496,-0.004080846905708313,-0.008306226693093777
1772556095944568000,6.137568115234375,0.003979978617280722,-0.006281430367380381,-0.0029514420311897993
1772556095954561000,6.14756103515625,0.003604206256568432,-0.0008903932757675648,-0.0021040241699665785
1772556095964553200,6.15755322265625,0.001632302301004529,-0.0014027953147888184,0.0017061284743249416
1772556095974546200,6.167546142578125,0.003089850302785635,-0.0013439394533634186,0.0068777212873101234
1772556095984539100,6.1775390625,0.0035200067795813084,0.0016689901240170002,0.008354042656719685
1772556095994531000,6.187531005859375,-0.00046594650484621525,0.0027731372974812984,0.00925871916115284
1772556096004524000,6.19752392578125,0.0000677322968840599,0.003988215234130621,0.005390876438468695
1772556096014517000,6.20751708984375,-0.001401799963787198,0.006694785784929991,0.002164190635085106
1772556096024510200,6.21751025390625,0.0019163377583026886,0.0067570568062365055,0.0034770634956657887
1772556096034502100,6.227502197265625,0.002822078764438629,0.006902731489390135,-0.00006467453204095364
1772556096044495000,6.2374951171875,0.003308347426354885,0.0033817049115896225,-0.0024535644333809614
1772556096054488000,6.247488037109375,0.003277188166975975,0.003300212323665619,-0.0027182826306670904
1772556096064480000,6.25747998046875,0.003919239155948162,0.0029401774518191814,-0.005852289963513613
1772556096074473200,6.26747314453125,-0.0000019990839064121246,0.005860067438334227,-0.007768434472382069
1772556096084466200,6.277466064453125,-0.0026883482933044434,0.009766805917024612,-0.006460688076913357
1772556096094459100,6.287459228515625,-0.003562397789210081,0.006269010249525309,-0.004996481351554394
1772556096104451000,6.297451171875,-0.003858274780213833,-0.0005963528528809547,-0.005803152918815613
1772556096114444000,6.307444091796875,-0.0004560865927487612,-0.002140719909220934,-0.0041301557794213295
1772556096124437000,6.31743701171875,-0.0020234331022948027,-0.008380412124097347,-0.004366476554423571
1772556096134429200,6.32742919921875,0.0026927590370178223,-0.007785461843013763,-0.004972612019628286
1772556096144422100,6.337422119140625,0.0035307644866406918,-0.009922467172145844,-0.005245455540716648
1772556096154415000,6.3474150390625,0.001901975367218256,-0.003398255445063114,-0.0062073892913758755
1772556096164408300,6.357408203125,0.004422595724463463,-0.001902927178889513,-0.004849743098020554
1772556096174400000,6.36739990234375,0.002310975454747677,0.0011365385726094246,-0.006440183147788048
1772556096184393200,6.377393310546875,-0.0012393903452903032,0.0015901252627372742,-0.0049348981119692326
1772556096194386000,6.387385986328125,0.0018978132866322994,0.002651394344866276,-0.004204392898827791
1772556096204379100,6.397379150390625,0.0025134184397757053,0.0027918764390051365,-0.0010636262595653534
1772556096214371300,6.407371337890625,0.004276963882148266,0.002582817804068327,0.0021753101609647274
1772556096224364000,6.417364013671875,0.0006231185980141163,0.002656772267073393,0.0021638250909745693
1772556096234357000,6.42735693359375,0.0012135414872318506,0.002120944205671549,0.00035340827889740467
1772556096244349000,6.437348876953125,-0.0009009831119328737,0.004122366197407246,0.0006266810814850032
1772556096254342100,6.447342041015625,-0.00047301314771175385,0.004589218646287918,-0.0009075659909285605
1772556096264335000,6.457335205078125,-0.0004994403570890427,0.002508987672626972,-0.0030820704996585846
1772556096274328000,6.467328125,-0.002293878234922886,-0.001259651966392994,-0.0003451397060416639
1772556096284320000,6.477320068359375,-0.004867210052907467,-0.005222011357545853,-0.005988211836665869
1772556096294313200,6.487313232421875,-0.0036807721480727196,-0.008994645439088345,-0.00877574272453785
1772556096304306000,6.497305908203125,-0.00176887062843889,-0.010564454831182957,-0.007147351745516062
1772556096314299100,6.507299072265625,-0.003532948438078165,-0.0066802348010241985,-0.010629168711602688
1772556096324291300,6.517291259765625,0.00012068590149283409,-0.004423825070261955,-0.009611675515770912
1772556096334284000,6.527283935546875,-0.0014812054578214884,-0.0011566593311727047,-0.004670978523790836
1772556096344277200,6.53727734375,-0.0010021466296166182,-0.0010274089872837067,0.00038140459218993783
1772556096354269000,6.54726904296875,0.00014248001389205456,0.0017982046119868755,0.006154871545732021
1772556096364262100,6.55726220703125,-0.00023080792743712664,0.002928543370217085,0.00839252583682537
1772556096374255000,6.567255126953125,0.000018197577446699142,0.0034148371778428555,0.009626368060708046
1772556096384248000,6.577248046875,0.0037542590871453285,0.0034427070058882236,0.008922695182263851
1772556096394240300,6.587240234375,-0.000019972678273916245,0.0019028675742447376,0.006209998857229948
1772556096404233200,6.597233154296875,-0.0009610219858586788,0.002853239420801401,0.0007266513421200216
1772556096414226200,6.60722607421875,0.00033247540704905987,0.0002308250404894352,0.001724537811242044
1772556096424218000,6.617218017578125,-0.00221289973706007,-0.00031037861481308937,-0.0049408236518502235
1772556096434211000,6.627211181640625,-0.0003335068468004465,-0.007545121945440769,-0.005589569453150034
1772556096444204000,6.6372041015625,-0.0026197254192084074,-0.010513531975448132,-0.010545779019594193
1772556096454197200,6.647197265625,-0.0009975939756259322,-0.011501564644277096,-0.009888243861496449
1772556096464189000,6.65718896484375,-0.0031089913100004196,-0.006958658806979656,-0.007777323015034199
1772556096474182100,6.66718212890625,-0.002691141329705715,-0.004200423136353493,-0.007042557001113892
1772556096484175000,6.677175048828125,-0.0034097242169082165,0.0016204137355089188,-0.003020418109372258
1772556096494167000,6.6871669921875,-0.0024105061311274767,0.0020627640187740326,-0.0022475686855614185
1772556096504160300,6.69716015625,-0.0019701183773577213,0.008495349436998367,0.005115772131830454
1772556096514152400,6.70715234375,-0.003891322761774063,0.007594934199005365,0.003448899369686842
1772556096524145700,6.717145751953125,-0.0017532818019390106,0.005129482131451368,0.00857508648186922
1772556096534137600,6.7271376953125,0.0002981510479003191,0.0007155588828027248,0.005331622436642647
1772556096544130600,6.737130615234375,0.0006152444984763861,-0.0030267988331615925,0.004226613789796829
1772556096554123500,6.74712353515625,0.0008008668664842844,-0.0045336149632930756,0.0007594445487484336
1772556096564115500,6.757115478515625,0.0027393465861678123,-0.008395983837544918,-0.0051514445804059505
1772556096574108700,6.767108642578125,0.0037364340387284756,-0.008595720864832401,-0.005561305209994316
1772556096584101400,6.777101318359375,0.004226951859891415,-0.00827292911708355,-0.003963943105190992
1772556096594094600,6.787094482421875,0.006027515511959791,-0.005301639903336763,-0.004733596462756395
1772556096604086500,6.79708642578125,0.005524320062249899,-0.0018510529771447182,-0.0006718093645758927
1772556096614079500,6.80707958984375,0.004489149432629347,0.0025716586969792843,0.00714030722156167
1772556096624072400,6.817072509765625,0.004358493722975254,0.0020216647535562515,0.007028121501207352
1772556096634065700,6.827065673828125,0.000904373824596405,0.00505287479609251,0.00686913076788187
1772556096644057600,6.8370576171875,0.0015294542536139488,0.005204653833061457,0.009283286519348621
1772556096654050600,6.847050537109375,-0.0025553021114319563,0.006744227837771177,0.012030337937176228
1772556096664043500,6.85704345703125,-0.003506725188344717,0.007323536556214094,0.006407139357179403
1772556096674035500,6.867035400390625,-0.0036278991028666496,0.0020177210681140423,0.0026792462449520826
1772556096684028700,6.877028564453125,-0.0049736388027668,0.0012231217697262764,-0.0007952791056595743
1772556096694021400,6.887021484375,-0.0018356359796598554,-0.005937319248914719,-0.007229742128401995
1772556096704014600,6.8970146484375,-0.0006160682532936335,-0.004979965277016163,-0.008007985539734364
1772556096714006500,6.907006591796875,-0.0007444326765835285,-0.007124342489987612,-0.011689805425703526
1772556096723999500,6.91699951171875,-0.00008634733967483044,-0.0015142704360187054,-0.010587124153971672
1772556096733992700,6.92699267578125,-0.002441913355141878,0.004340422805398703,-0.009267261251807213
1772556096743984400,6.936984375,0.0006393459625542164,0.0055584292858839035,-0.007439401466399431
1772556096753977600,6.9469775390625,-0.0014333924045786262,0.007286288775503635,-0.004898745566606522
1772556096763970600,6.956970458984375,-0.00397025141865015,0.00490300077944994,-0.003288663923740387
1772556096773963500,6.966963623046875,-0.0009068173822015524,0.0013950848951935768,-0.0004143139813095331
1772556096783955500,6.97695556640625,-0.0007770656375214458,-0.002461342141032219,-0.0014155306853353977
1772556096793948400,6.986948486328125,0.002314331941306591,-0.006676060613244772,0.002859109081327915
1772556096803941400,6.99694140625,0.0053095449693500996,-0.00865896325558424,-0.0012852016370743513
1772556096813933600,7.00693359375,0.008028632961213589,-0.007916473783552647,-0.0023209049832075834
1772556096823926500,7.016926513671875,0.008879661560058594,-0.0071416315622627735,-0.002807098673656583
1772556096833919500,7.02691943359375,0.008104149252176285,-0.002763661090284586,-0.00445399759337306
1772556096843912700,7.03691259765625,0.005911685526371002,-0.0007027694955468178,-0.0016977253835648298
1772556096853904400,7.046904296875,0.0015254595782607794,0.010757876560091972,0.00548375491052866
1772556096863897600,7.056897705078125,-0.0016993263270705938,0.07135117053985596,0.05282517522573471
1772556096873890600,7.066890625,-0.0007027714746072888,0.14466266334056854,0.11519640684127808
1772556096883882500,7.076882568359375,-0.0072029451839625835,0.18590034544467926,0.15794993937015533
1772556096893875700,7.086875732421875,-0.0100844856351614,0.1753624826669693,0.16570691764354706
1772556096903868400,7.096868408203125,-0.011761273257434368,0.11536302417516708,0.12302466481924057
1772556096913861600,7.106861572265625,-0.011808677576482296,0.024150561541318893,0.047240156680345535
1772556096923853600,7.116853515625,-0.011274119839072227,-0.06551989912986755,-0.05066853016614914
1772556096933846500,7.126846435546875,-0.0012814064975827932,-0.1448618620634079,-0.1432674378156662
1772556096943839500,7.136839599609375,0.008328238502144814,-0.20399223268032074,-0.21022403240203857
1772556096953831400,7.14683154296875,0.017657823860645294,-0.2401595562696457,-0.23531821370124817
1772556096963824400,7.156824462890625,0.02514754794538021,-0.22952674329280853,-0.21012292802333832
1772556096973817600,7.166817626953125,0.03357831761240959,-0.18013522028923035,-0.13946686685085297
