time,seconds_elapsed,z,y,x
1772796807026264800,0.060264892578125,7.277911859104037,6.736856770700216,0.4661664361581206
1772796807036258000,0.070258056640625,6.496073499637842,6.323447819000482,0.5056273628003894
1772796807046250000,0.08025,5.44466007438898,5.332195724725723,0.4281434333644807
1772796807056242000,0.090241943359375,4.029783339348435,3.959283277450502,0.4288705055300146
1772796807066233900,0.10023388671875,1.8784066852152346,2.1147028739914298,0.8433831076227128
1772796807076226000,0.11022607421875,-1.4814613770604133,-0.1164420211225748,1.1313649869073181
1772796807086218800,0.12021875,-5.861842114886641,-2.3793854915574193,0.7054954898241907
1772796807096211000,0.1302109375,-10.648073936378955,-4.878709614181518,0.4272012571435421
1772796807106203000,0.140202880859375,-14.5458529438138,-6.843163766777515,1.2485177135825156
1772796807116195000,0.150195068359375,-15.54816068511009,-6.349791051524877,3.8131940138220783
1772796807126186800,0.160186767578125,-14.49986276153326,-3.7033635197937484,5.767757471522689
1772796807136180000,0.170179931640625,-12.38832302774787,-3.136275872249901,4.127768497282267
1772796807146172000,0.180171875,-10.44052657996416,-6.043402212607861,1.9574146093480287
1772796807156164600,0.19016455078125,-10.2253430295825,-8.576724758684634,1.2041558631561695
1772796807166156500,0.200156494140625,-11.615261264455318,-9.141216836777328,0.31024799856320023
1772796807176149500,0.2101494140625,-15.20813728761673,-6.6822787928164,-0.7887779494710266
1772796807186141400,0.220141357421875,-20.772446654736996,-1.8568360739201306,-0.7776984101172536
1772796807196133600,0.230133544921875,-26.207822183430192,1.1571788617953658,-0.03392462756410241
1772796807206125600,0.24012548828125,-25.855131027543543,0.7484761880904436,-0.051216538626700635
1772796807216117500,0.250117431640625,-20.147955158233643,0.28193302757441996,-0.6817139244813472
1772796807226110500,0.2601103515625,-12.561567132544516,0.19014964689016342,-1.2407462027981877
1772796807236102700,0.2701025390625,-5.0534161927461625,-0.08920037845373154,-1.7362943623937666
1772796807246094600,0.280094482421875,0.9769494281560182,0.47574295053780075,-2.118304990136623
1772796807256086500,0.29008642578125,4.9398102718323464,1.3682713434711098,-2.433057898903638
1772796807266078500,0.300078369140625,6.788500448697805,2.5256068571329116,-2.426346564696729
1772796807276071400,0.310071533203125,7.28831284160912,3.7806028268188236,-2.1109385530218483
1772796807286063400,0.3200634765625,6.943409855380654,4.588559377881884,-1.9695958993986247
1772796807296055600,0.3300556640625,6.913972748494148,4.551893488785624,-1.8909864730641244
1772796807306047500,0.340047607421875,7.6426511801809065,3.9691882931321856,-1.5463742864757775
1772796807316039700,0.350039794921875,9.334339946520329,3.5102667135357857,-1.4388409634739159
1772796807326032600,0.36003271484375,11.478799953132867,3.42712578125149,-1.4698668008565903
1772796807336024600,0.370024658203125,13.32806003884077,3.4320459942579267,-1.412078044232726
1772796807346016800,0.380016845703125,14.475425070369242,3.6976644313693043,-1.468949686011672
1772796807356008400,0.390008544921875,14.693549934899806,4.2114708628416055,-1.457019301982224
1772796807366001700,0.400001708984375,13.925861096817254,4.718445694728195,-1.564499433492124
1772796807375993600,0.40999365234375,12.687576023435591,5.178628964823484,-1.5935840736791491
1772796807385985500,0.419985595703125,11.649247705209255,5.474254417663812,-1.3057482518017292
1772796807395977500,0.4299775390625,10.837367843222617,5.683403364056349,-0.9664843674387782
1772796807405969700,0.4399697265625,10.259857878124713,5.571236536034942,-0.9809860632609575
1772796807415962400,0.44996240234375,10.126674565559625,4.9870975081861015,-1.4473950029380618
1772796807425954600,0.45995458984375,10.515616600000858,4.455524533876776,-1.850679304856062
1772796807435946500,0.469946533203125,10.673589485907554,3.980034973578155,-1.8934768285751342
1772796807445938700,0.479938720703125,10.308376702100038,3.2389526951313017,-1.4696189635753631
1772796807455930400,0.489930419921875,9.66457084879577,2.4018501290827987,-0.986795772453025
1772796807465923600,0.499923583984375,8.464253394758702,1.518456059719622,-0.2429658027332276
1772796807475915500,0.50991552734375,7.189939561140537,0.243133341319859,0.8785073202349245
1772796807485907500,0.519907470703125,5.439470689052343,-1.0155901244565844,1.4159867421090602
1772796807495899400,0.5298994140625,2.7675264387488365,-2.5510724300399423,0.8584815272290259
1772796807505891600,0.5398916015625,-1.1332155101448296,-4.1039632588028905,-0.18048815764077006
1772796807515884500,0.549884521484375,-6.245097920385002,-5.290511130684614,-0.21406179807642473
1772796807525876500,0.55987646484375,-12.07500175921917,-6.526172285303473,0.7549377853199839
1772796807535868700,0.56986865234375,-16.37451214004159,-5.758194108885526,2.303318881573528
1772796807545860600,0.579860595703125,-17.969491175210475,-4.22314814889282,3.9545018883928655
1772796807555853600,0.589853515625,-19.342379949349162,-6.391873120450973,4.677234855678678
1772796807565845500,0.599845458984375,-18.990846146804092,-9.039760787862539,4.730002861531078
1772796807575837700,0.609837646484375,-14.077729236108064,-6.836000451019406,3.8081212406024334
1772796807585829400,0.619829345703125,-9.372765246504544,-3.8681002007469534,2.2088971152096986
1772796807595821600,0.629821533203125,-11.621604496002197,-0.4820021570630371,0.6715691817596554
1772796807605814500,0.639814453125,-20.14913355436325,2.66647312541604,-1.2278252002961934
1772796807615806500,0.649806396484375,-29.377219111776352,4.132541995294392,-1.2687550304472446
1772796807625798400,0.65979833984375,-31.614549125266073,2.5852681296303865,0.910828750386089
1772796807635790600,0.66979052734375,-25.16077747478485,0.3005995879910886,2.345623799470067
1772796807645782500,0.679782470703125,-16.394546043288706,-0.8226448554985225,1.607649277780205
1772796807655775500,0.689775390625,-8.386013970780372,-1.5653803079798816,0.30804595847427846
1772796807665767400,0.699767333984375,-1.8451222552508115,-1.8336324545957148,-0.8256381190303712
1772796807675759600,0.709759521484375,2.7079449534893034,-1.3207944297641514,-2.1333160967856646
1772796807685751600,0.71975146484375,5.6678375461339945,-0.8081731164231896,-2.566364107196033
1772796807695744500,0.72974462890625,7.196538813275098,-0.05332008677721023,-2.3113757851704952
1772796807705736700,0.73973681640625,7.495560922816395,0.7994041190341115,-2.0529156953811643
1772796807715728600,0.749728759765625,7.648660065206885,1.1104390301913023,-1.843269320860505
1772796807725720600,0.759720458984375,8.492180097082256,1.0144937075220049,-1.215626812980324
1772796807735712500,0.76971240234375,10.059687187957763,0.872056098268926,-0.5136741103295237
1772796807745705700,0.779705810546875,11.930248420369624,0.9427426226496696,-0.3886738850243389
1772796807755697400,0.789697509765625,13.454198693591355,1.0901432611376047,-0.4569838895320892
1772796807765689600,0.799689697265625,14.393454058647155,1.510826295493543,-0.6662734865043312
1772796807775681500,0.809681640625,14.799993709099292,2.513255909603834,-1.0476137407049535
1772796807785673700,0.819673828125,14.557915137529372,3.5976737788319584,-1.1879549622006713
1772796807795666400,0.82966650390625,13.881737877452373,4.593709600251913,-1.0739132802180946
1772796807805658600,0.83965869140625,12.827931419587134,5.48332210573852,-0.8311497951239347
1772796807815650600,0.849650634765625,11.276475884324311,5.789519805997609,-0.7013144778124988
1772796807825642500,0.859642578125,9.849137727117538,5.631032540827989,-0.6536961828734725
1772796807835634400,0.869634521484375,9.015857934227585,5.196957233196497,-0.3371479151222855
1772796807845627600,0.879627685546875,8.953703383609652,4.591067853571475,0.07851670654974878
1772796807855619300,0.889619384765625,9.360490871343016,4.08149014571011,0.4434246987244114
1772796807865611500,0.899611572265625,9.673305359393357,3.385702468495071,0.7363057116948067
1772796807875603500,0.909603515625,9.71037632215917,2.609332019045949,0.7187687398299575
1772796807885595600,0.919595703125,9.445046638861298,1.9538339743822812,0.6281773454092443
1772796807895588600,0.929588623046875,8.877156735023856,1.3387483118668198,0.6011477745885029
1772796807905580500,0.93958056640625,7.818326311516762,0.8849363303691148,0.5736381651658564
1772796807915572700,0.94957275390625,5.887977257618307,0.5582163588240743,0.7037390746109187
1772796807925564400,0.959564453125,3.3187954626530405,-0.03461187917590141,0.41021746218204497
1772796807935557600,0.9695576171875,0.3109434334814548,-0.9334124842464924,-0.6623321284674107
1772796807945549600,0.979549560546875,-3.4930414379686114,-2.134016646270454,-1.1762397552918642
1772796807955541500,0.98954150390625,-7.718965773576498,-3.8325507484599948,-0.6078726258641108
1772796807965533400,0.999533447265625,-12.077744335925578,-5.549542006099224,0.5701727540776134
1772796807975525600,1.009525634765625,-15.358338370478153,-6.234275497597456,0.8111379575781523
1772796807985518300,1.019518310546875,-16.933891405165195,-6.076722298407554,0.3334877121143043
1772796807995510500,1.029510498046875,-17.511808197498322,-5.901034892112016,0.5806097577441484
1772796808005502500,1.03950244140625,-18.820566737031935,-7.13189536845088,1.484072290211171
1772796808015494700,1.04949462890625,-18.774493552643058,-9.140813516673445,3.0647657565265893
1772796808025486600,1.059486572265625,-14.023999984008073,-8.49254659230709,5.628427326765656
1772796808035479600,1.0694794921875,-8.908096063166857,-6.732654058313369,4.869812898759544
1772796808045471500,1.079471435546875,-8.768428064757584,-4.0946258138760925,1.7460272363789378
1772796808055463700,1.089463623046875,-15.593635319083928,-1.8203882114887235,-0.4787452010937035
1772796808065455400,1.099455322265625,-22.82521037442684,0.257602011655271,0.012929697265103459
1772796808075447600,1.109447509765625,-24.623847357356546,0.6995242333948611,2.2901247612185776
1772796808085440500,1.1194404296875,-20.129769513201712,-0.053459641378372905,3.932966932933032
1772796808095432400,1.129432373046875,-13.968796567702293,-0.9358110698208212,3.1535639839202165
1772796808105424600,1.139424560546875,-7.867723671892285,-0.7048653021618724,2.081838423004746
1772796808115416600,1.14941650390625,-2.7743133224099874,-0.4636572298161685,1.27180331210196
1772796808125409500,1.159409423828125,1.2867097893327475,-0.1890881551384926,0.3565409266499802
1772796808135401500,1.1694013671875,4.62267792058289,0.21501330838128924,-0.22711780686862765
1772796808145393700,1.1793935546875,7.455469150924682,0.6655877692624926,-0.5751194897647947
1772796808155385000,1.189385009765625,9.466928800323606,1.067852226613462,-0.8984352788895368
1772796808165377000,1.199376953125,10.79180085479021,1.047035502425581,-1.183342353838682
1772796808175370000,1.209369873046875,11.691001272833347,0.9615729953259229,-0.9612431788496673
1772796808185362200,1.219362060546875,12.140961547338962,0.9959227164342999,-0.6388719040334224
1772796808195354000,1.22935400390625,12.063727501010893,1.0235811232104897,-0.6524336886569857
1772796808205346000,1.239345947265625,12.375532519757748,1.4738056016102432,-0.7777875497054308
1772796808215338000,1.249337890625,12.701096014744042,2.5143679624989628,-1.3715110560446977
1772796808225331000,1.2593310546875,12.721440883636474,3.316525471894443,-2.2042307308338582
1772796808235323000,1.269322998046875,12.738709998345374,3.963160118883848,-2.152535176518559
1772796808245315000,1.279315185546875,12.679088765597342,4.493365311971306,-1.4166254784040153
1772796808255307000,1.28930712890625,12.264905906915663,4.801971242415905,-0.8168990053229034
1772796808265299200,1.29929931640625,11.720433119022845,4.8996036413893105,-0.3006590996259823
1772796808275292200,1.309292236328125,11.290213317775725,4.7173885868906975,0.03268796190861612
1772796808285284000,1.3192841796875,11.102203021001815,4.365113610589504,0.10251027067545801
1772796808295276300,1.3292763671875,11.074933905804157,3.9768160115316507,-0.051328474568575616
1772796808305268000,1.33926806640625,10.917623867720366,3.597477671737969,-0.29626309315674004
1772796808315260000,1.349260009765625,10.579717608511448,3.2763957060799003,-0.5004655230578035
1772796808325253000,1.359253173828125,10.393146404629945,2.7480054534599185,-0.40489206590820104
1772796808335245000,1.3692451171875,10.174040712368488,2.2160136692166326,-0.2859457703471184
1772796808345237000,1.379237060546875,9.46037455637455,1.8571239509508013,-0.17015096108689903
1772796808355229200,1.389229248046875,8.188839539819956,1.5339089187867938,0.13311748078726232
1772796808365221000,1.39922119140625,6.790693574827909,1.0833324120789765,0.3748122406713664
1772796808375214000,1.409214111328125,4.999560099396109,0.1210940847121179,0.2967608500784263
1772796808385206000,1.4192060546875,2.638673848864436,-1.665230821394175,-0.13101612459383905
1772796808395198200,1.4291982421875,0.5182166491299868,-3.8129213343605395,-0.6203711286377162
1772796808405190000,1.43918994140625,-1.2087667179524897,-5.418825960430502,-1.2375661114573477
1772796808415183000,1.44918310546875,-3.104938192439079,-6.099775257214904,-1.3269082364693283
1772796808425175000,1.459175048828125,-6.8456041456669565,-5.7273471352010965,-0.1830422625703737
1772796808435167000,1.4691669921875,-12.11181260974407,-4.122423629122972,1.9083045414812863
1772796808445159000,1.479158935546875,-16.92435551505685,-2.924650014349818,4.040751308086514
1772796808455151000,1.489151123046875,-19.913290662312505,-4.185122954142093,5.0904626055926085
1772796808465144000,1.49914404296875,-18.59562284013629,-3.6015608493983744,4.834671735012531
1772796808475136000,1.509135986328125,-13.604626570945978,-1.4579497147001326,3.144086838261783
1772796808485128200,1.519128173828125,-11.045524271446466,-0.8357008825570345,1.0880592944703995
1772796808495120100,1.5291201171875,-15.097936206710338,-0.23758842054381965,-0.582234363271296
1772796808505111800,1.53911181640625,-24.43900049304962,1.7955429624371229,-0.07542462228592485
1772796808515105000,1.54910498046875,-34.45435520280599,2.5670395222395657,2.2216059362657368
1772796808525097200,1.55909716796875,-38.92496800022125,-0.2044170224998146,2.587231246396899
1772796808535089000,1.5690888671875,-40.165893943500514,-10.731495731431245,-6.4044654755204915
1772796808545081000,1.5790810546875,-28.409456614160536,-1.8858757059216498,1.9211825816243886
1772796808555073000,1.589072998046875,-12.457162170696257,6.64936085807681,7.422812497469782
1772796808565066000,1.59906591796875,-3.386265070813894,1.2953653894752264,-2.54921131234318
1772796808575058000,1.609057861328125,2.5355565887391567,-0.4062530885957181,-5.514042238172888
1772796808585050000,1.619050048828125,7.346406134137511,2.5356506967633963,-2.9238772764116523
1772796808595042000,1.6290419921875,9.93809494446516,4.070757154771686,-2.0560756207168103
1772796808605034200,1.6390341796875,12.770858702278137,5.053268893229961,-1.8827949833020567
1772796808615027000,1.64902685546875,15.694148534190655,5.467790190085768,-0.9305107714556157
1772796808625019100,1.65901904296875,17.469374246394633,5.1959822506845,0.3367657839369029
1772796808635011000,1.669010986328125,18.19656857700348,4.837172027395665,1.2574817951522768
1772796808645003000,1.6790029296875,18.160432264739274,4.4346533030226825,1.4116193406797946
1772796808654996200,1.688996337890625,17.686717020636795,4.225933980219066,1.1600668383218347
1772796808664988200,1.69898828125,17.33222904446125,4.197327186676859,0.7852637308049947
1772796808674980000,1.70897998046875,17.12306606954336,4.1796886541336775,0.10249995021084322
1772796808684972000,1.718971923828125,16.62009316677451,3.66280676073879,-0.7874086338791996
1772796808694964000,1.7289638671875,15.569939970719814,2.782279186722636,-1.499544000109285
1772796808704957000,1.73895703125,13.900954619097709,1.8050392511874436,-1.9484017202004789
1772796808714949000,1.74894921875,11.84262157484293,1.3476263225883245,-2.301271009133011
1772796808724941000,1.758941162109375,9.864248787009716,0.9774018480986356,-2.901466122639179
1772796808734933200,1.768933349609375,8.288952941954136,0.42152299231141804,-3.6778929784506555
1772796808744925000,1.778925048828125,7.339770057123899,0.26317104395926,-4.913732996767759
1772796808754918100,1.788918212890625,6.933683995658159,-0.2762467986315489,-6.694879915714264
1772796808764910000,1.79891015625,6.474620961764455,-1.4368404373064636,-8.566872057712077
1772796808774902000,1.808902099609375,5.314527966088057,-2.4556015930145976,-9.713087334683538
1772796808784894000,1.81889404296875,4.892841015386582,-1.785868102249503,-8.151200421777368
1772796808794886100,1.82888623046875,5.068329099717736,0.9552350244760512,-2.217201125435531
1772796808804878800,1.83887890625,3.3383705162167545,1.5318728829145432,4.6785172967046496
1772796808814871000,1.84887109375,-0.28912732299268246,0.2821732660710811,8.467198216038941
1772796808824863000,1.858863037109375,-3.7746740212917325,0.13975392312705515,8.508031746208667
1772796808834855200,1.868855224609375,-5.48477639620006,0.2278796580865979,6.754152773416042
1772796808844846800,1.878846923828125,-5.795890510073304,-0.7729141715154051,4.202845073315501
1772796808854840000,1.888840087890625,-5.383486936023831,-2.1683836107745766,1.6343784408822655
1772796808864832300,1.898832275390625,-5.6047582818865775,-4.207673808646202,1.7516300248220562
1772796808874824000,1.908823974609375,-6.417479855394363,-6.329775852978229,3.5435905987277625
1772796808884816000,1.91881591796875,-7.331755677494407,-6.712731798747181,3.77934084405899
1772796808894808000,1.92880810546875,-8.387239128661156,-6.611713556727767,2.039591665036231
1772796808904801000,1.938801025390625,-9.246764538919924,-6.16155045312643,0.06661050711348653
1772796808914793000,1.94879296875,-11.008529881048203,-4.29873618157953,0.11596695095673203
1772796808924785200,1.95878515625,-15.429880342644452,-2.8981337633460758,-0.0636494653508067
1772796808934777000,1.968777099609375,-22.071866872560978,-0.8107875367052852,-0.751696319180727
1772796808944770000,1.97877001953125,-27.3393045861721,0.047313174512609836,-0.5485813191901893
1772796808954762000,1.988761962890625,-27.227289149320125,-0.9127637370366602,0.8405732378337532
1772796808964754200,1.998754150390625,-21.778860077786444,-2.0924695610038935,3.0355744410946963
1772796808974746000,2.00874609375,-13.558265801787375,-2.558607793980837,5.208874465483427
1772796808984738000,2.018738037109375,-5.692569251808524,-0.9611471711292863,7.663192448428273
1772796808994731000,2.02873095703125,0.4810673604309559,0.25700126928314565,7.41505939912498
1772796809004723200,2.03872314453125,4.568378175118565,-0.008975479746609926,5.1328550556421275
1772796809014715000,2.04871484375,6.708657096654177,0.8469128891840577,3.2852778084546324
1772796809024707000,2.05870703125,7.094602871888876,2.3397576839156446,1.7392593496792017
1772796809034699000,2.068698974609375,6.997964452388882,3.347646586345136,1.3901590578913687
1772796809044692000,2.07869189453125,7.609888143742084,3.7565374760985373,1.5502680790439247
1772796809054684200,2.08868408203125,9.5078377338171,3.8106636185616254,1.424389974925667
1772796809064676000,2.098676025390625,12.182172678649424,3.4624569146126505,1.2780464442752302
1772796809074668000,2.10866796875,15.089011726498603,2.847840330913663,0.7162522269643843
1772796809084660000,2.118659912109375,17.509554281091688,2.183759751343727,-0.4196960326125845
1772796809094653200,2.128653076171875,18.71197893654108,1.5895833136051893,-1.8091520933337508
1772796809104645000,2.13864501953125,18.850833280479907,1.173336800391972,-2.9248467059656975
1772796809114637000,2.148636962890625,18.680875357747077,0.9696747609779238,-3.3625919342815873
1772796809124629000,2.15862890625,17.96791764228344,0.9976081853032112,-3.56594768422544
1772796809134621200,2.16862109375,16.210317603141068,1.396360689010471,-3.43523894508034
1772796809144614000,2.17861376953125,13.846945965534449,1.532043417175859,-3.386949838207662
1772796809154606000,2.188606201171875,11.350262420547008,1.8242618380516766,-3.2674688877806064
1772796809164598000,2.198597900390625,8.936241376677154,2.256125314852595,-2.5707258095368744
1772796809174590200,2.208590087890625,7.319684131428599,2.4542571926683188,-1.8123504509836434
1772796809184582000,2.218581787109375,6.559249209997057,3.147251732033491,-1.4870076130107044
1772796809194575000,2.2285751953125,5.494304687523842,3.7491666550695895,-1.2521060934633015
1772796809204567300,2.2385673828125,3.9145197143554684,3.905189575952291,-1.0420686007332056
1772796809214559000,2.24855908203125,1.288752693337202,4.128317655597627,-0.7785412906821817
1772796809224551200,2.25855126953125,-2.4089655140459536,3.7562948995143173,-0.22628128297924993
1772796809234543000,2.268543212890625,-6.123712597641348,2.6086256243422627,0.5701185396723449
1772796809244536000,2.2785361328125,-8.807599799194932,0.7780871902391314,0.6691008919499815
1772796809254528000,2.288528076171875,-9.263476604267954,-1.0401347831264138,-0.06261752848718315
1772796809264520200,2.298520263671875,-8.607658826130628,-2.240074782153219,-0.42953996575679626
1772796809274512100,2.30851220703125,-8.443190148463845,-2.9129461325526234,0.6863235371686518
1772796809284504000,2.318504150390625,-10.032627331596613,-3.144558255165815,2.667501591680944
1772796809294497000,2.3284970703125,-12.794791366529465,-3.1374636207297444,3.6195860431715845
1772796809304489200,2.3384892578125,-14.881426960682868,-2.520640174636245,2.9065029477626085
1772796809314481000,2.34848095703125,-15.821307764160633,-1.9699805148020386,3.7709795506879686
1772796809324473000,2.35847314453125,-16.53945135782957,-3.462875724546611,4.9564054328024385
1772796809334465000,2.368465087890625,-16.642288631969688,-5.867126777291298,4.476560892164707
1772796809344458000,2.3784580078125,-14.310429738479852,-7.929234663909673,3.4331261907100674
1772796809354450000,2.388449951171875,-11.795988418483734,-8.614703483945132,2.8356583102107047
1772796809364442000,2.398442138671875,-13.054584458488225,-7.440727508866787,3.186342802450061
1772796809374434000,2.40843408203125,-17.467797206336257,-5.504731388992071,4.222475071936845
1772796809384427000,2.418427001953125,-20.108212345910072,-4.892158293819427,4.818040918207168
1772796809394419200,2.428419189453125,-18.233725464487076,-4.16983653768301,3.905712723043561
1772796809404411100,2.4384111328125,-13.920585202240943,-3.196245480044186,2.0244122160829603
1772796809414403300,2.4484033203125,-8.885999966692925,-2.270332557772845,0.305019888651371
1772796809424395000,2.45839501953125,-4.809890929499268,-1.2530363600507377,-0.9339565279953181
1772796809434388200,2.46838818359375,-1.7698229763776063,-0.6264660114467143,-1.5559285890236496
1772796809444380200,2.478380126953125,0.9060738109439611,-0.17977189913019537,-1.4486182611227034
1772796809454372000,2.4883720703125,3.047777212324738,0.33876214538589117,-0.9895126301962882
1772796809464364000,2.498364013671875,4.869895024085045,0.7037865670144557,-0.38563466345891356
1772796809474356200,2.508356201171875,6.179625038999319,1.2315817763507366,0.13036350590400397
1772796809484349000,2.518348876953125,7.085127187535166,1.779164659088105,-0.20114994699526578
1772796809494341000,2.528341064453125,7.965103265148401,2.099998933595419,-0.5116502763517201
1772796809504333000,2.5383330078125,9.019929713711141,2.2228497988469895,-0.826184939258173
1772796809514325200,2.5483251953125,10.547610990154743,2.0485132226385177,-0.8880660797622054
1772796809524317000,2.55831689453125,12.10804595068693,1.6964539349146186,-0.6595698241472244
1772796809534310100,2.56831005859375,13.370939395624399,1.2640849928095936,-0.3897416603863239
1772796809544302000,2.578302001953125,14.240529103779792,0.8714657311603426,-0.12919964975640177
1772796809554294000,2.5882939453125,14.570372468042374,0.6659831983208656,0.29436829238608475
1772796809564286000,2.598285888671875,14.568146608686446,0.7422596516631543,0.7876948304094373
1772796809574278100,2.608278076171875,14.397947862935066,1.050365669761598,0.7419746241766959
1772796809584271000,2.61827099609375,13.986355605268477,1.5135757403321564,0.3396013726890087
1772796809594263000,2.628262939453125,13.692974716484546,2.1373450600408015,-0.3904080153405666
1772796809604255200,2.638255126953125,13.602168071877955,3.0106396140635012,-1.252845513653755
1772796809614247200,2.6482470703125,13.156706277835369,3.6806986835211513,-1.768912145143002
1772796809624239000,2.658239013671875,12.247359728831052,3.9461692365944385,-1.8941537049233912
1772796809634232000,2.668232177734375,11.185109267747402,3.9762010945037005,-1.5987050699546932
1772796809644224300,2.678224365234375,10.24718310546875,3.857436475652456,-1.2636176675587891
1772796809654216000,2.6882158203125,9.70010042733848,3.7874312115341424,-0.898395166074857
1772796809664208100,2.6982080078125,9.031115124592185,3.865262346972525,-0.4082891244679689
1772796809674200000,2.708199951171875,7.59762487449646,3.9062235951751467,-0.27942097168825564
1772796809684193000,2.718193115234375,5.528367116123437,3.892692205689847,-0.508842671585083
1772796809694185000,2.72818505859375,3.128631787237525,4.177475946520269,-0.7734958438608794
1772796809704177200,2.73817724609375,0.6949135247290134,4.160671818974614,-0.55547348985672
1772796809714169000,2.748169189453125,-1.1298434033632279,3.451786175255477,-0.03169686851203441
1772796809724161000,2.7581611328125,-2.236606375390291,2.397898468847573,0.4265547028683126
1772796809734154000,2.768154052734375,-2.961303043964505,1.1200720970638096,0.7008597197823226
1772796809744146200,2.778146240234375,-3.6699499104917046,-0.3972111194841563,0.8598015968516468
1772796809754138000,2.78813818359375,-4.6609097438216205,-1.209287380825728,1.1383002660632133
1772796809764130000,2.798130126953125,-5.89947889484167,-0.9719251702532171,1.5071898386873304
1772796809774122000,2.8081220703125,-7.293561263656616,-0.7725038371488452,2.3483120156407353
1772796809784115200,2.818115234375,-9.695479781800508,-1.1988259003050625,3.869204947118461
1772796809794107100,2.828107177734375,-12.722204269224404,-1.885732351928204,5.345514640504121
1772796809804099000,2.83809912109375,-14.983131431400775,-1.9947845550604164,5.5422460038721555
1772796809814091300,2.84809130859375,-15.28489904025793,-1.3987214267924428,4.444190069913864
1772796809824084000,2.858083984375,-14.827800584435462,-2.178219360612333,2.9508921245872974
1772796809834076200,2.868076171875,-14.882278024554251,-4.1238355417475105,1.3734750495940447
1772796809844068000,2.878068115234375,-14.851988100230693,-5.792519572335482,0.4514541663251817
1772796809854060300,2.888060302734375,-14.2926591039896,-6.567575724315643,0.09751476394310593
1772796809864052000,2.898052001953125,-14.761948348343372,-6.112535954588651,0.6377301866523921
1772796809874045200,2.908045166015625,-17.086360432958603,-4.672757418003678,1.9915441118344663
1772796809884037000,2.918037109375,-20.75339357922077,-3.434100004178285,3.3888819753140207
1772796809894029000,2.928029052734375,-22.763152854442595,-2.625990600641072,3.7179043785825368
1772796809904021000,2.93802099609375,-21.925762119102476,-1.7052556655295192,3.075685794469714
1772796809914013200,2.94801318359375,-19.27367992261052,-1.3765623480848967,2.433985096751153
1772796809924006000,2.958005859375,-14.280935932970046,-1.5384645362645386,2.427342589996755
1772796809933998000,2.967998046875,-9.202266056501864,-1.237796997603774,1.9597439290784298
1772796809943990000,2.977989990234375,-4.610051078721881,-0.31414106047898527,0.9800894797474146
1772796809953982200,2.987982177734375,-0.3745055128097534,0.5964638180233538,0.8529366795182227
1772796809963974000,2.997973876953125,3.0240356867313385,1.372261436020583,1.061114588921517
1772796809973967000,3.007967041015625,4.9661459055721755,2.1142409555681048,0.5722758638367057
1772796809983959300,3.017959228515625,6.084063893342018,2.681955064447224,-0.0558251284006983
1772796809993951000,3.027950927734375,7.124345099201798,2.798290410324931,-0.3178992439687252
1772796810003943200,3.037943115234375,7.746462267789244,3.1844910371035335,-0.5269667956881224
1772796810013935000,3.04793505859375,8.047626650056243,3.5955443655878305,-0.5451683689415454
1772796810023928000,3.057927978515625,8.611489782595633,3.8670048067256806,-0.31843188954070206
1772796810033920000,3.067919921875,9.322188905477523,3.7840474143147467,-0.4920633131545037
1772796810043912200,3.077912109375,10.350850400692224,3.3494562661156055,-0.9867934343654662
1772796810053904100,3.087904052734375,11.637737300157546,2.790369846458733,-1.1981755466375499
1772796810063896000,3.09789599609375,12.655679832959175,2.1804969501554963,-1.3001974858067928
1772796810073889000,3.107888916015625,13.143266950547694,1.585066712963581,-1.1087163711171597
1772796810083881200,3.117881103515625,13.265034550607204,1.1342170884028075,-0.728099316624552
1772796810093873000,3.127872802734375,13.130318621647357,1.1702011327147483,-0.31835750913023947
1772796810103865000,3.137864990234375,12.961965796023607,1.538743937727809,-0.17566040869075805
1772796810113857000,3.14785693359375,12.415560578763484,2.0081571007221934,-0.4675273857804015
1772796810123850000,3.15785009765625,11.325594427758455,2.5326588214710353,-0.7907368284538387
1772796810133842000,3.167842041015625,10.147001898795367,2.9324338000938295,-1.1405998482424766
1772796810143834000,3.177834228515625,9.237743612596391,3.23666195384562,-1.4228348544381557
1772796810153826300,3.187826416015625,8.924747922760247,3.621284079261124,-1.4005238000392912
1772796810163818200,3.197818359375,8.731467576628923,3.807294142128527,-1.2453192098021506
1772796810173811500,3.2078115234375,8.675106222459673,3.7884228529199957,-0.9225003373488784
1772796810183803400,3.217803466796875,8.544253983190655,3.8136525712445377,-0.7866109806954861
1772796810193795300,3.22779541015625,7.979277920973301,3.695768826881051,-0.948156902783364
1772796810203787300,3.237787353515625,7.277827687951922,3.6333585479363797,-0.9860277837552129
1772796810213779500,3.247779541015625,6.737563457664847,3.624963644556701,-1.080684747114405
1772796810223772200,3.257772216796875,6.242240777388215,3.6793390856057404,-0.9846258080027996
1772796810233764400,3.267764404296875,5.808685109716653,3.6042519881784916,-0.7326813837178051
1772796810243756300,3.27775634765625,5.2680163902819155,3.1665769024893637,-0.5599631659587845
1772796810253748500,3.28774853515625,4.353303930330276,2.5179087038457393,-0.513184865507856
1772796810263740400,3.297740478515625,3.135292998692393,1.4988342444047331,-0.7881830523177981
1772796810273733400,3.3077333984375,1.9731769727557897,-0.04479074336290359,-1.388924255399406
1772796810283725300,3.317725341796875,0.606951163637638,-1.8523288256287573,-1.4186946858935057
1772796810293717500,3.327717529296875,-0.6427227342426777,-3.1841777333706616,-0.5551771372586488
1772796810303709200,3.337709228515625,-2.438987727344036,-3.3910260016053915,0.8870698352664709
1772796810313701400,3.347701416015625,-5.094240370565653,-3.774335875378549,2.1858125922203064
1772796810323694300,3.3576943359375,-8.323855913031101,-4.21424208112061,3.2577535494521257
1772796810333686300,3.367686279296875,-11.286943502324819,-3.9999987341985106,2.4879116249889135
1772796810343678200,3.37767822265625,-12.270318579614163,-4.234044805960357,0.8999176994670182
1772796810353670400,3.38767041015625,-11.907642620807886,-5.605487765204906,0.6186715581782162
1772796810363663400,3.397663330078125,-10.427552532100677,-6.266269303229451,1.7453566436409949
1772796810373655300,3.4076552734375,-7.472385798934102,-5.933828908210993,3.8316009003892537
1772796810383647500,3.4176474609375,-7.038120521688461,-4.836347559270262,5.39661938931942
1772796810393639400,3.427639404296875,-13.200931204009056,-3.355486486190557,4.266834145884215
1772796810403631400,3.43763134765625,-23.346882132446765,-2.3755618416160345,2.6093983622804284
1772796810413624300,3.447624267578125,-32.17753021427393,-2.2723674246013164,2.1902232482694086
1772796810423616500,3.457616455078125,-32.693064492452145,-3.0590935561090706,2.899420003764331
1772796810433608200,3.467608154296875,-23.87380991129875,-4.740778814828396,2.5944424929499625
1772796810443600400,3.477600341796875,-14.683089331161975,-5.1393508474022145,1.1244132680732757
1772796810453592300,3.48759228515625,-8.032024007254838,-5.116335882517695,-0.4588820878362283
1772796810463585300,3.497585205078125,-2.8818150812298056,-5.026778945711254,-1.114134377577901
1772796810473577200,3.5075771484375,1.1866478251248598,-4.126823909908532,-1.6363482796505093
1772796810483569400,3.5175693359375,3.9321664302051067,-2.6370953475013375,-2.156640273749828
1772796810493561300,3.527561279296875,4.87932160860002,-1.0003273811340332,-2.3204183388039468
1772796810503553300,3.53755322265625,4.174976823180914,0.5287253297932446,-1.9598484123662112
1772796810513546200,3.547546142578125,2.9115345121890304,1.7959826690286398,-1.2787469937600195
1772796810523538400,3.557538330078125,2.0666402693510055,2.861797544595599,-0.6089951636206359
1772796810533530000,3.567530029296875,2.546314714118838,3.5606548385143277,0.2575492585547268
1772796810543522300,3.577522216796875,4.145715657383203,3.9884377680033443,0.7527480932559818
1772796810553514200,3.58751416015625,6.486179882133007,3.921068989868462,0.6119030869565903
1772796810563507200,3.597507080078125,9.127106478360295,3.5630832347050307,0.3413240317631513
1772796810573499400,3.60749951171875,11.538162827205657,3.1105005027413366,0.24227122633149845
1772796810583491300,3.6174912109375,13.387528126853704,2.4471491142287847,0.29704012367753313
1772796810593483500,3.6274833984375,14.627267490696907,1.918574444952607,0.3510629701629281
1772796810603475500,3.637475341796875,15.26789179135561,1.7467942752286791,0.3575593464449048
1772796810613468400,3.647468505859375,15.44672509446144,1.8922969711408018,0.07654712350983173
1772796810623460400,3.65746044921875,15.067619394379854,2.429220951089263,-0.09410984173729084
1772796810633452300,3.667452392578125,14.04640353899598,3.041615182563662,-0.177166246676445
1772796810643444200,3.6774443359375,12.820417975217103,3.593765957738459,-0.3603731982892379
1772796810653436400,3.6874365234375,11.624398510634899,4.249427960792183,-0.4054191219896078
1772796810663429400,3.697429443359375,10.443795226371288,4.616648285029829,-0.37724958735350517
1772796810673421300,3.70742138671875,9.591957448005676,4.6723628657281395,-0.31394846051633357
1772796810683413200,3.717413330078125,9.298494726157188,4.767267593303322,-0.09542855051988736
1772796810693405400,3.727405517578125,9.287558906123042,4.672508996200561,0.13905333710964768
1772796810703397400,3.7373974609375,9.276561711290478,4.247377165742218,0.28321881133494897
1772796810713390300,3.747390380859375,9.310550490131973,3.7276480662226676,0.42987325283177197
1772796810723382300,3.75738232421875,9.371276469251512,3.5315263591855763,0.21670652216523884
1772796810733374500,3.76737451171875,8.81230520040691,3.0881808266445994,-0.2859233027869835
1772796810743366100,3.7773662109375,7.6547320785969495,2.372923017545044,-0.5686796659756451
1772796810753358300,3.7873583984375,5.754724971470236,1.4237617600247263,-0.5438707303464413
1772796810763351600,3.7973515625,3.048516632515192,-0.27565730830579993,-0.38457748255617913
1772796810773343200,3.80734326171875,-0.30805531082451343,-2.2483906289473174,-0.7769698766469955
1772796810783335400,3.81733544921875,-4.217218466582894,-3.544273904816806,-0.99713925261721
1772796810793327400,3.827327392578125,-7.927163702854513,-4.233659313774108,-0.4627329545781016
1772796810803319600,3.837319580078125,-11.495609633636475,-4.650644370394945,0.3961453534161672
1772796810813312300,3.847312255859375,-14.519212774169445,-3.930751887232065,1.9788035804659128
1772796810823304400,3.857304443359375,-16.56124934813976,-2.069564486234635,3.2095275709435342
1772796810833296400,3.86729638671875,-17.513353673374652,-3.006699059744179,2.6911250438526273
1772796810843288300,3.877288330078125,-16.537655706584452,-6.394746630060673,1.3275164314955472
1772796810853280300,3.8872802734375,-13.480886794030665,-7.481317877930402,-0.18504026798717677
1772796810863273500,3.8972734375,-11.715265945518016,-6.690537502595782,-1.2719644940130412
1772796810873265200,3.90726513671875,-16.061732138782737,-4.965038821113109,-0.5298549914103001
1772796810883257300,3.91725732421875,-24.106515089845654,-2.396293663999438,1.2235035377047956
1772796810893249300,3.927249267578125,-31.555690109062194,-0.3808637957952916,3.113793114545941
1772796810903242200,3.9372421875,-32.56202169904709,-0.7461537364922464,3.868742298042774
1772796810913234200,3.947234130859375,-26.388610127735138,-2.043509861393273,3.4803146428644656
1772796810923226400,3.957226318359375,-17.78924800530672,-2.481965576066077,2.0062381153583524
1772796810933218300,3.96721826171875,-9.38390681824386,-2.781895155841112,-0.07819529257565737
1772796810943210200,3.977210205078125,-2.416449732321501,-2.5954712514758107,-1.4424692369736731
1772796810953203500,3.987203369140625,2.5729870324671267,-1.923127285951376,-2.4968074636280537
1772796810963195400,3.9971953125,5.232227868542075,-1.268538903478533,-2.779235873503983
1772796810973187300,4.007187255859375,6.1513505461513995,-0.42637978469282384,-2.326654895105958
1772796810983179300,4.01717919921875,6.4655567808210845,0.6252947757102548,-1.7857853924021123
1772796810993171500,4.02717138671875,6.777919433450698,1.627639195755124,-1.5018176441296933
1772796811003164400,4.037164306640625,7.281119130712747,2.2859126964814958,-1.2274766791194676
1772796811013156400,4.04715625,8.398149229732155,2.4239006328493353,-1.0613874145135282
1772796811023148300,4.057148193359375,10.434590175652504,2.226467697083205,-1.035024308244884
1772796811033140500,4.067140380859375,12.569237228780985,1.9644855706475675,-1.028603043025732
1772796811043132400,4.07713232421875,14.371613982760906,1.5406551781766116,-1.1222415500573812
1772796811053125400,4.08712548828125,15.56188876621127,1.3631453787595034,-1.3425247616656124
1772796811063117300,4.097117431640625,15.891270358180998,1.3321755093477665,-1.4684320918783544
1772796811073109500,4.107109619140625,15.591553252112865,1.3220504211746156,-1.5232076381608843
1772796811083101200,4.11710107421875,14.830704489183425,1.4364225041553378,-1.1895873126428573
1772796811093093400,4.12709326171875,14.131142846387624,1.6270096656799315,-0.5758785645037889
1772796811103086300,4.13708642578125,13.80923378225565,1.9327637138247489,-0.1437115747116506
1772796811113078300,4.147078369140625,13.559946886742114,2.440908174012601,-0.06421601319238543
1772796811123070200,4.1570703125,12.870765183663368,2.955555147962272,-0.14563026781454683
1772796811133062400,4.1670625,11.717376069539785,3.27224589292407,-0.24448460979834197
1772796811143054300,4.177054443359375,10.377891552352905,3.431920906573534,-0.008338716213032603
1772796811153047300,4.18704736328125,9.344829191830753,3.478414946722984,0.14514781805984675
1772796811163039200,4.197039306640625,9.046402710095048,3.6396313445955513,-0.030647505589574575
1772796811173031400,4.207031494140625,8.956460573363303,3.8829064324736593,-0.214672897445783
1772796811183023000,4.217023193359375,8.40613964396417,4.181183276605606,0.09627119362279772
1772796811193015300,4.227015380859375,6.787647046738862,4.073639139948785,0.5988041706044227
1772796811203008500,4.237008544921875,4.799511574304104,3.7045688039302824,0.6319887934561819
1772796811213000200,4.247000244140625,2.4203683670699596,2.6458792501986026,0.43817141783870756
1772796811222992100,4.2569921875,0.2502835053354502,0.7021801547311246,0.24841288915798065
1772796811232984300,4.266984375,-1.5070137514680624,-1.0109561810456216,-0.08583791628330946
1772796811242976300,4.276976318359375,-3.243166513434052,-1.978558373533189,-0.06018704993724823
1772796811252969200,4.28696923828125,-5.189593426430225,-2.460144204880297,0.32366438336670394
1772796811262961400,4.29696142578125,-7.8688336789608,-2.5967677210271356,0.22008564320951698
1772796811272953300,4.306953369140625,-11.42629468986988,-2.486879067070782,0.1746171467155218
1772796811282945300,4.3169453125,-14.491585931575298,-2.0792412461183964,0.6195409614238888
1772796811292937200,4.326937255859375,-15.809105285191535,-0.7693152702406049,0.6739419022403657
1772796811302930400,4.336930419921875,-16.18536202558279,-0.16597689027264714,1.8604370210215448
1772796811312922000,4.346922119140625,-17.37239621967673,-2.47796803086251,3.13981252194345
1772796811322914300,4.356914306640625,-18.402205715882776,-4.142077008619904,1.810984861718863
1772796811332906200,4.36690625,-19.48140263559222,-4.240084670646488,-1.3644453554421663
1772796811342898400,4.3768984375,-23.098481372117995,-3.3533187867626544,-2.2000736111544072
1772796811352891100,4.38689111328125,-28.537263494384288,-1.2598499855883418,0.3200206200368702
1772796811362883300,4.39688330078125,-32.440929806292054,-0.6652203241895884,2.30786105504781
1772796811372875300,4.406875244140625,-29.04507740744352,-2.215451359158754,2.9680367361336946
1772796811382867500,4.416867431640625,-20.31647983329296,-3.1796301530688997,2.2987796307086943
1772796811392859100,4.426859130859375,-12.194806534773111,-3.1476144278660416,1.148084870235622
1772796811402852400,4.436852294921875,-6.42151480999887,-2.659485166224837,0.9535781971797347
1772796811412844300,4.44684423828125,-2.650883926618099,-1.589493881756067,1.2027768298879264
1772796811422836200,4.456836181640625,0.18453999031484125,-0.36078956053778527,1.0625238711975513
1772796811432828200,4.466828125,2.841211852684617,0.5225934029094874,0.8733269949875772
1772796811442820400,4.4768203125,5.450760729351639,1.181999999319017,1.1588007639087736
1772796811452813300,4.486813232421875,6.6126131359159945,1.7954200667098164,1.076436807346344
1772796811462805200,4.49680517578125,6.626298546919227,2.483307346063852,0.5597459064789116
1772796811472797400,4.50679736328125,7.515394919577241,2.4457230269484223,0.24894787281751632
1772796811482789400,4.516789306640625,8.958557837903498,2.261652699971944,-0.4046400273758918
1772796811492781300,4.52678125,10.33067855027914,2.3220590917482973,-1.5305027636051176
1772796811502774300,4.536774169921875,11.921521508556603,2.267587789109349,-2.282460217940062
1772796811512766500,4.546766357421875,13.219995969963072,2.260855704375356,-2.6249840539470313
1772796811522758100,4.556758056640625,13.962062875533103,2.2172680531919,-2.65009891372025
1772796811532750300,4.566750244140625,14.306888704872131,1.8144538530036807,-2.569896080714464
1772796811542742300,4.5767421875,14.701777665019035,1.4617157892353831,-2.4733698894172904
1772796811552735200,4.5867353515625,14.907269842469692,1.4834882067129016,-2.3102289532229303
1772796811562727200,4.59672705078125,14.875404047131537,1.4937341447867452,-1.9292184424333274
1772796811572719400,4.60671923828125,14.414361237597465,1.3534636504396795,-1.3638871370375156
1772796811582711300,4.616711181640625,13.610972140580415,1.5614606503181159,-1.0182215689387173
1772796811592703200,4.626703125,12.434377507436274,1.9889868285670875,-0.7640978278532624
1772796811602696200,4.6366962890625,11.398162820363044,2.404207651994377,-0.5171033541258424
1772796811612688400,4.6466884765625,10.420666864240168,2.8028967350766063,-0.5339546818140893
1772796811622680000,4.65668017578125,9.351640625411271,3.109347241052985,-0.7634189787436276
1772796811632672300,4.66667236328125,8.497385264509916,3.454194405440986,-0.8505369979653506
1772796811642664200,4.676664306640625,7.5982111499518155,3.7501544970631597,-0.4842915831744671
1772796811652657200,4.6866572265625,6.610963030621409,3.8300165538072584,0.2670191707547754
1772796811662649300,4.6966494140625,5.752421370702981,3.8599651173472402,0.8979298135854303
1772796811672641300,4.706641357421875,4.91725766376257,3.738126790139079,1.3495055604636668
1772796811682633500,4.716633544921875,3.7526644340574737,3.393448552577197,1.5490256777673959
1772796811692626200,4.726626220703125,2.569012283617258,2.5950819598972794,1.2069944475829602
1772796811702618400,4.736618408203125,1.7430816844463348,1.2960557098269463,1.0341209296643734
1772796811712610300,4.7466103515625,1.4966180296599865,-0.24943667924776672,0.8723494551923126
1772796811722602200,4.756602294921875,1.1958084521800278,-1.576712287724763,0.36158600814510133
1772796811732594200,4.76659423828125,-0.21962299413383005,-2.6116058091968295,-0.5924989329803735
1772796811742587400,4.77658740234375,-2.9208243185818192,-3.084102325159311,-1.2360776264652609
1772796811752579300,4.786579345703125,-6.446736345016956,-2.847682802264392,-0.7760949935086071
1772796811762571300,4.7965712890625,-9.668256843832134,-2.5517653807401657,1.1073083309501408
1772796811772563200,4.806563232421875,-12.11808102248907,-1.8980572882331908,3.3446742925360797
1772796811782555400,4.816555419921875,-14.780119964849948,-1.2261977452248334,3.1802520843595263
1772796811792548000,4.826548095703125,-15.54611135136485,-2.0524473472170532,1.3861048140645027
1772796811802540300,4.836540283203125,-13.860877460253239,-3.259724265003204,0.798890032032132
1772796811812532200,4.8465322265625,-12.104564538311958,-4.102286265501379,-0.9946740315474569
1772796811822524400,4.8565244140625,-13.424358851122856,-3.671190850463509,-3.6233760831043123
1772796811832516000,4.86651611328125,-18.62099927345514,-1.9472886443920432,-3.923385157856345
1772796811842509300,4.87650927734375,-25.430798530769348,0.49898763252496714,-0.6348537544332444
1772796811852501500,4.88650146484375,-30.345690049922464,0.40937962311841547,3.1000092116042968
1772796811862493200,4.8964931640625,-27.54918067779541,-0.8361047871828079,4.196711392866074
1772796811872485400,4.9064853515625,-19.996774416685103,-1.5699296418473123,3.2371316171839832
1772796811882477300,4.916477294921875,-11.90660801706314,-2.3901465395465493,1.7848766069941222
1772796811892470300,4.92647021484375,-5.279084896785021,-2.4141300572022795,0.9986335097629576
1772796811902462200,4.936462158203125,-1.21258949111104,-1.6642608073182403,0.11797756012678146
1772796811912454400,4.946454345703125,0.8668664206713438,-0.5090611366413533,-0.06135740889087319
1772796811922446300,4.9564462890625,1.4903338348239659,0.5107717399515211,0.3741780709536746
1772796811932438300,4.966438232421875,1.9129127659291028,1.3487554727487265,0.3404635424762964
1772796811942431200,4.97643115234375,3.3182536108613014,1.9564263289630413,0.5841106420045719
1772796811952423400,4.98642333984375,5.4188166080802675,2.2328837016053495,0.7270442546136677
1772796811962415000,4.9964150390625,7.5840633821338415,2.492761403107643,0.608723178278841
1772796811972407300,5.0064072265625,9.601259529358147,2.3263342848494646,0.07961332441372797
1772796811982399200,5.016399169921875,11.477626233178377,1.7749191304728387,-0.3127032096955925
1772796811992392200,5.02639208984375,13.070835336065292,1.1948562660217283,-0.46089697132259605
1772796812002384100,5.036384033203125,14.08795836917758,0.7103444642253219,-0.665166475110501
1772796812012376300,5.046376220703125,14.459625443691014,0.25468992360085246,-0.6696727004885673
1772796812022368300,5.0563681640625,14.305838903558254,0.11413082157075405,-0.508733512122184
1772796812032360200,5.066360107421875,13.752940817147493,0.327685309445858,-0.47304392071217294
1772796812042353400,5.076353515625,12.9337018245697,0.7431745745509862,-0.5201369496680796
1772796812052345300,5.086345458984375,12.00597323117852,1.193870762115717,-0.33003450292050834
1772796812062337300,5.096337158203125,11.2213309202075,1.5412636654637752,-0.05420554610854014
1772796812072329200,5.1063291015625,10.71464747248292,1.8923025240987539,0.2124182138541713
1772796812082321400,5.1163212890625,10.388670135998725,2.168794383532554,0.55141931909509
1772796812092314400,5.126314453125,10.144043048989772,2.4252486864574254,0.7134368042174726
1772796812102306300,5.136306396484375,9.954361019611358,2.6015727832213043,0.9380998383451252
1772796812112298200,5.14629833984375,9.727982121476531,2.725480610179901,0.8991698767744004
1772796812122290400,5.15629052734375,9.218696966820955,2.7674174254164097,0.4585023312710225
1772796812132282400,5.166282470703125,8.444255147346853,2.8680764787346122,0.11010394067484885
1772796812142275300,5.176275390625,7.744249267914891,2.902883588221669,0.11114185062153265
1772796812152267300,5.186267333984375,7.215426469096541,2.8542975442290306,0.0391911743567558
1772796812162259500,5.196259521484375,6.541811168462037,2.7529063772439955,-0.12230967104695736
1772796812172251400,5.20625146484375,5.617495013862848,2.092624020913243,-0.14116439271317793
1772796812182243600,5.21624365234375,4.638113974645734,0.570758006619662,-0.12974957525674252
1772796812192236500,5.226236572265625,3.536756076532602,-1.2344925492309033,-0.0634552762192674
1772796812202228500,5.236228515625,2.279705512404442,-2.5441098975509404,-0.05947555893333628
1772796812212220400,5.246220458984375,0.19027999527156353,-2.6822522938281295,0.32017464155480263
1772796812222212600,5.256212646484375,-3.3406384611487385,-2.4482648203857242,1.1732933996416628
1772796812232204500,5.26620458984375,-8.158771733814477,-2.5377456232160327,1.5216516408905385
1772796812242197500,5.276197509765625,-12.330808411890267,-2.094806625649333,1.5040896807149051
1772796812252189700,5.286189697265625,-15.81295494635701,-0.3060642831377685,1.1534859255615622
1772796812262181600,5.296181640625,-18.22542876078486,0.3093896281681955,0.6234869956359267
1772796812272173600,5.306173583984375,-18.99686321513653,-1.3939292240798473,0.6864008401885628
1772796812282165500,5.31616552734375,-16.570643783950803,-2.60757669981122,1.7591161427937447
1772796812292158700,5.32615869140625,-12.916046925413609,-2.2984910230256617,1.674565343711525
1772796812302150400,5.336150390625,-14.147192648434638,-1.4044719531431793,1.2554811228543519
1772796812312142600,5.346142578125,-21.708275552475452,0.012715396927297114,1.6588338138334453
1772796812322134500,5.356134521484375,-30.721409030175206,0.76195518980138,3.265879572762549
1772796812332126700,5.366126708984375,-33.82060020339489,-0.3076948800142854,5.429413989940286
1772796812342119400,5.376119384765625,-29.57367458081245,-1.9220342300176618,5.963296410235762
1772796812352111600,5.386111572265625,-20.308464869141577,-2.8550808035612105,3.889268660981953
1772796812362103600,5.396103515625,-10.48713167927265,-3.756110775119066,0.9821636556729674
1772796812372095500,5.406095458984375,-3.494896125924587,-4.022589043930172,-1.4324968551442026
1772796812382087400,5.41608740234375,1.247892275160551,-2.9010815072357654,-2.175043507055193
1772796812392080600,5.42608056640625,4.242551060760021,-1.8380013173297047,-2.2059682221509513
1772796812402072300,5.436072265625,5.839225793930888,-1.1298887038096785,-2.3085367623522877
1772796812412064500,5.446064453125,6.865034237802028,-0.2561731478959322,-2.153981283673644
1772796812422056400,5.456056396484375,7.585563265302777,0.7842956894904375,-1.8026305826105176
1772796812432048600,5.466048583984375,8.21973269073367,1.4885976586811243,-1.7218239384926854
1772796812442041600,5.47604150390625,9.04315276838839,1.9885997289456425,-1.7455648795641958
1772796812452033500,5.486033447265625,10.063070400655269,2.479652330687642,-1.9029725328035652
1772796812462025700,5.496025634765625,10.975415546953677,2.7627953185737133,-1.964133688469976
1772796812472017400,5.506017333984375,11.594987707233429,2.717617621719837,-1.5969678708985446
1772796812482009600,5.516009521484375,12.079965519106388,2.3153081561833617,-1.1157979268759488
1772796812492002600,5.52600244140625,12.547533931016922,1.847813247900456,-0.5472245342863723
1772796812501994500,5.535994384765625,12.82227090960741,1.4566874396793543,0.19004322737362234
1772796812511986400,5.545986328125,13.0497457862854,1.117511452795565,0.6839090233728289
1772796812521978600,5.555978515625,13.391466635346411,1.0851730715095995,0.8714068405799568
1772796812531970600,5.565970458984375,13.534746979033946,1.3688323383547365,0.8231706329382955
1772796812541963500,5.575963623046875,13.317695296692847,1.8249293620496987,0.7476153334774076
1772796812551955500,5.58595556640625,12.85298519682288,2.4456333028383552,0.6256942964218557
1772796812561947600,5.59594775390625,11.95908873040676,2.887040706923604,0.34603604537900534
1772796812571939600,5.605939697265625,10.78296054573059,3.141843443249166,0.009041238459199666
1772796812581931500,5.615931640625,9.54353507014215,3.281612271684408,-0.34665048748292027
1772796812591924700,5.6259248046875,8.465537589350342,3.316397169339657,-0.5617774123065173
1772796812601916700,5.635916748046875,7.586217345297336,3.217614139026403,-0.681338515297696
1772796812611908400,5.645908447265625,6.78302757024467,3.0771734026789663,-0.5613719002455473
1772796812621900500,5.655900634765625,5.996831600090861,2.886148726519942,-0.47588579307459294
1772796812631892500,5.665892578125,5.270607575818896,2.7117233029842374,-0.5503983785495161
1772796812641885400,5.675885498046875,4.590775300365686,2.4624644645214078,-0.48890086706820873
1772796812651877600,5.685877685546875,3.526953644442558,2.2052106817819177,-0.5358234713606536
1772796812661869600,5.69586962890625,1.5285615664094685,1.4105331528782843,-1.0008291931763291
1772796812671861800,5.70586181640625,-0.31091771451830863,-0.10676686867401003,-1.2759496181264518
1772796812681854500,5.7158544921875,-1.3728595480442047,-1.3733629675216972,-1.0501980581097303
1772796812691846700,5.7258466796875,-2.2588234678953887,-2.2882184892058373,-0.09471386291189118
1772796812701838600,5.735838623046875,-3.902659180691838,-3.0578660601407286,0.9894933409739285
1772796812711830500,5.74583056640625,-6.552747573018074,-3.931947234496474,1.5097548668697476
1772796812721822500,5.755822509765625,-10.561242040622234,-4.17296957501173,1.8747699361480772
1772796812731815700,5.765815673828125,-14.702142406678199,-2.640084007923305,2.17335730753392
1772796812741807400,5.775807373046875,-17.042528305494784,-1.4668267025083304,2.1695165603272617
1772796812751799600,5.785799560546875,-16.42900594677329,-2.8551307801827788,1.5151447432145475
1772796812761791500,5.79579150390625,-12.480781531214713,-3.259265707580745,1.4716319108329712
1772796812771783700,5.80578369140625,-8.59077783395648,-3.528543251721561,1.3476574483789503
1772796812781776600,5.815776611328125,-10.371885005414486,-3.7026360823020337,-0.3413497507262975
1772796812791768600,5.8257685546875,-18.5061933291018,-2.307579607757926,-2.035317787109315
1772796812801760500,5.835760498046875,-28.596475561809537,-0.46484234794750806,-1.0608970006480813
1772796812811752400,5.84575244140625,-33.917469509041304,-0.8638117092758416,1.1990212767466901
1772796812821744400,5.855744384765625,-31.031748068022726,-2.3028765446335075,1.8998421258233487
1772796812831737600,5.865737548828125,-22.59700367634296,-3.2287270691931247,1.251273442031443
1772796812841729500,5.8757294921875,-13.430780408602953,-3.7021608660057184,0.315479067617096
1772796812851721500,5.885721435546875,-5.962896012741327,-3.9695296539157625,-0.5124073783293366
1772796812861713700,5.895713623046875,-0.8423913201063871,-3.475427455344796,-0.6926618002794682
1772796812871705600,5.90570556640625,2.314035652029514,-2.459759881737828,-0.5369419174639508
1772796812881698600,5.915698486328125,4.096609973430633,-1.3203259354695678,-0.40239465960189696
1772796812891690500,5.9256904296875,5.065705180954933,-0.1950947020769119,-0.36771607186533506
1772796812901682700,5.9356826171875,6.021378596848249,0.6706830465748905,-0.5173210154645145
1772796812911674600,5.945674560546875,7.329979899993538,1.5725576522633433,-0.48802671458218244
1772796812921666600,5.95566650390625,8.972000672322512,2.1451550031393767,-0.21512286970298736
1772796812931659500,5.965659423828125,10.556278280735015,2.3487077369600535,0.1801946180542931
1772796812941651500,5.9756513671875,11.803234151828288,2.525807640402019,0.4796274272883311
1772796812951643400,5.985643310546875,12.685085960185527,2.6562074597284195,0.3493004174698144
1772796812961635600,5.995635498046875,13.418937995117902,2.5909698484033346,-0.0645813211071305
1772796812971627500,6.00562744140625,14.071892200517654,2.4098753223672507,-0.39316414564829316
1772796812981620500,6.015620361328125,14.574508544933796,2.2890607852488754,-0.5765695424426347
1772796812991612400,6.0256123046875,14.87191094431877,2.3533269211933017,-0.6021526407821104
1772796813001604600,6.0356044921875,15.049842914670705,2.5179683250784874,-0.2920994158723391
1772796813011596500,6.045596435546875,14.951089110451935,2.7879923036724326,0.2533581635404378
1772796813021588500,6.05558837890625,14.328162963569163,3.278134074179828,0.5541817330131307
1772796813031581700,6.065581787109375,13.225861062604189,3.8410532038673755,0.588693732011132
1772796813041573600,6.07557373046875,11.874618303084373,4.267335081143677,0.6003465046755969
1772796813051565600,6.085565673828125,10.396392839205264,4.623968837176263,0.5656095012826845
1772796813061557500,6.0955576171875,9.0739442124933,4.7980333184450865,0.64757901516743
1772796813071549700,6.1055498046875,8.00848472623527,4.8817196096524595,0.7041832381818444
1772796813081542400,6.11554248046875,6.966914649608731,4.78491547819674,0.5053504820877686
1772796813091534600,6.12553466796875,5.898018174639344,4.573529858793318,0.37699287264607845
1772796813101526500,6.135526611328125,5.1634121064692735,4.441048264756798,0.22309145569568498
1772796813111518700,6.145518798828125,4.872162384495139,4.070862368711829,0.030974915479612536
1772796813121510400,6.155510498046875,4.954003632357717,3.6092797532126304,-0.11042982989465817
1772796813131503600,6.165503662109375,5.08270015489757,2.959694147463143,-0.25520395580390465
1772796813141495600,6.17549560546875,4.725908577954769,1.6345494135349987,-0.34524131480474024
1772796813151487500,6.185487548828125,3.961730962863564,-0.2673758021727204,-0.8601514332026242
1772796813161479000,6.19547900390625,3.1594431050866842,-1.5857944427162407,-1.3098784834742545
1772796813171470800,6.205470947265625,2.1173031196177003,-2.11249250446558,-1.0900529525056482
1772796813181464000,6.215464111328125,0.2702373290836811,-2.7317943233713504,-0.041304143356159326
1772796813191455700,6.225455810546875,-2.529272393903136,-3.915335999174416,0.7998757551338523
1772796813201448000,6.235447998046875,-5.872623036620021,-4.61761449971348,0.3018842575067654
1772796813211439900,6.24543994140625,-9.74342577432394,-3.3790257672101256,-1.0486398688822984
1772796813221432000,6.25543212890625,-13.913816438758372,-2.549440444923937,-1.684074491943419
1772796813231424800,6.2654248046875,-16.27122829117775,-4.177573561675846,-1.2074367845229803
1772796813241417000,6.2754169921875,-15.627116732925176,-4.649325396750867,-0.34891313518527894
1772796813251409000,6.285408935546875,-12.77019936158657,-4.370426330044865,0.3535790811697021
1772796813261400800,6.29540087890625,-12.06287877522707,-3.780313488483429,0.7057266682315617
1772796813271392800,6.305392822265625,-16.82931342483759,-2.2987379835240542,-0.06881668452140875
1772796813281386000,6.315385986328125,-25.151817923259735,-0.4067068237125873,-0.28564364559538663
1772796813291378000,6.3253779296875,-30.94689887051582,0.3184600927218795,1.7840213053390384
1772796813301369900,6.335369873046875,-29.49630024923086,-1.100789012183994,3.781182672533393
1772796813311362000,6.345362060546875,-22.95641215778589,-2.779558237326145,3.5670357717230914
1772796813321354000,6.35535400390625,-15.489194116878508,-3.9204593335375186,2.367636747705191
1772796813331347000,6.365346923828125,-9.134228877586127,-4.489997296842932,1.1666329188391567
1772796813341339000,6.3753388671875,-4.03824078657031,-4.525394773438572,0.46386469855438917
1772796813351331000,6.3853310546875,-0.3490250345945358,-4.081167489627004,0.1393653256682679
1772796813361322800,6.39532275390625,2.094478124347329,-2.9781472112596035,-0.3281648000584915
1772796813371315000,6.40531494140625,3.226821527832746,-1.7923852290585636,-0.6934736281190067
1772796813381308000,6.415307861328125,3.3268910908252,-0.6221368962012231,-0.9466963287115097
1772796813391299800,6.4252998046875,3.3996196424275635,0.49556686429604885,-1.3850390845291316
1772796813401291800,6.435291748046875,3.758439510327577,1.602684348849207,-1.5260720876812934
1772796813411284000,6.445283935546875,4.5450943301647895,2.498432434481382,-1.4978095775321125
1772796813421276000,6.45527587890625,5.743821300140023,3.144364193898439,-1.7860114562429488
1772796813431268900,6.465268798828125,7.01693511031866,3.5008860139891502,-2.047508575640619
1772796813441260800,6.4752607421875,8.185254082548617,3.384908980029821,-2.204111196107417
1772796813451253000,6.4852529296875,9.376681543165445,2.9780533954963087,-2.073274592798948
1772796813461245000,6.495244873046875,10.499428850787877,2.715118790641427,-1.7007039935745298
1772796813471236900,6.50523681640625,11.463428196477889,2.4477573092550036,-1.430931505523622
1772796813481230000,6.51522998046875,12.263853767514227,2.0733789299562573,-1.077927484295517
1772796813491222000,6.525221923828125,12.827926743412018,1.8120555596902965,-0.6422795205198228
1772796813501214000,6.5352138671875,13.232655545049905,1.8990715798422693,-0.10824475920684636
1772796813511206000,6.545205810546875,13.35409581285119,2.2109332972124216,0.2309715596873313
1772796813521198000,6.555197998046875,12.914153074491024,2.5754493309274316,0.21653723001293837
1772796813531190800,6.565190673828125,12.055241412216425,3.0090605281785128,0.014340002454444766
1772796813541183000,6.575182861328125,11.190359443360567,3.3887969273790715,-0.21229374722428618
1772796813551175000,6.5851748046875,10.54774776827693,3.6454984830632804,-0.1822111089758575
1772796813561167000,6.5951669921875,10.086065491795539,3.82622709839642,0.06817234960272908
1772796813571158800,6.60515869140625,9.535562191566825,3.780945064385235,0.21973770655468106
1772796813581152000,6.615152099609375,8.922153814613818,3.4746097092211246,0.119666243866086
1772796813591144000,6.62514404296875,8.46302472974658,3.253053408937156,-0.1606617596644908
1772796813601135900,6.635135986328125,8.108584684365987,2.9829864679843188,-0.4873081545166671
1772796813611127800,6.6451279296875,7.650604185011982,2.528377490890026,-0.6139100428648293
1772796813621120000,6.6551201171875,6.8316481010288,1.9604227051228285,-0.9352154420152305
1772796813631112700,6.66511279296875,5.315613423237204,1.2850580766029656,-0.9133010587837547
1772796813641105000,6.67510498046875,3.284921250101924,0.40670667758211493,-0.5598650028139353
1772796813651096800,6.685096923828125,0.4738292258709669,-0.7183214344538748,-0.7735858602318912
1772796813661089000,6.695089111328125,-3.512522968029976,-2.080076381768286,-1.4103352922186254
1772796813671080700,6.705080810546875,-8.104355083972216,-3.504713463322818,-1.3655258441552518
1772796813681074000,6.715073974609375,-12.460776854062079,-5.633062000828981,-0.9300209421120583
1772796813691066000,6.725066162109375,-15.766878254836797,-7.260130118697881,0.02390204991735518
1772796813701057800,6.735057861328125,-17.961441139745713,-7.077627187168598,1.1557536512978375
1772796813711050000,6.745050048828125,-18.568619097876546,-6.3099582228302955,1.8232628901422023
1772796813721042000,6.7550419921875,-16.254688659787178,-7.1775301614224905,2.7061265058904884
1772796813731035000,6.765034912109375,-10.883943716436624,-7.888966950929165,4.054829517799615
1772796813741026800,6.77502685546875,-5.658755245012045,-7.015292019286751,4.830787002533674
1772796813751019000,6.78501904296875,-4.177350566574931,-5.619877525085211,3.785073834753036
1772796813761011000,6.795010986328125,-9.569058218455314,-4.3661844546914095,-0.10174524111971259
1772796813771003000,6.8050029296875,-19.3319438955307,-0.6738140380769968,-1.9820318948626516
1772796813780995800,6.814995849609375,-26.513901225745677,0.727163935470581,0.23712248353250323
1772796813790988000,6.824988037109375,-26.413075875949858,-0.2504537473358214,3.2698557829171415
1772796813800980000,6.83497998046875,-21.318523370695114,-1.99912769883126,3.576604102796316
1772796813810972000,6.844971923828125,-14.376131167924404,-3.7027871812105175,2.2361386117480695
1772796813820964900,6.85496484375,-8.347120468762517,-3.6624551708221436,1.2131465404719113
1772796813830957000,6.86495703125,-4.856601242747902,-2.8069129849806425,0.9052306381180882
1772796813840948700,6.87494873046875,-2.9232997687846423,-1.6064682513020931,0.7302399819150567
1772796813850941000,6.88494091796875,-1.11318452950716,-0.6781713565036654,0.6584979571320116
1772796813860932900,6.894932861328125,1.121523318785429,-0.40551615262329577,0.8682065101686864
1772796813870925000,6.904925048828125,3.974254928871989,-0.08329948384687304,0.6285366802409291
1772796813880918000,6.91491796875,6.694666565224528,0.1299780867829919,-0.09654504212811589
1772796813890910000,6.924909912109375,8.9302254773885,0.28335955324620005,-0.48198593658059835
1772796813900902100,6.934902099609375,10.943694713044167,0.5275973486766219,-0.580858837134391
1772796813910893800,6.944893798828125,12.583023762071132,1.0214502486616373,-0.5018417798470706
1772796813920886000,6.954885986328125,13.28306003664136,1.4929358340159058,-0.7549765098951756
1772796813930879000,6.96487890625,13.394424316108227,1.9356369311735033,-1.3081255023270844
1772796813940871000,6.974870849609375,12.858851458507775,2.0514427002191544,-1.9001108597621321
1772796813950862800,6.98486279296875,13.166467793393135,1.9865575555935502,-2.169481050622463
1772796813960855000,6.99485498046875,14.064987827956676,2.2709923368558287,-2.0687901408612728
1772796813970847000,7.004846923828125,14.720038128852844,2.6584511470019816,-1.9262147305727004
