time,seconds_elapsed,z,y,x
1772796807026264800,0.060264892578125,1.5249687433242798,0.6737332940101624,-0.32007917761802673
1772796807036258000,0.070258056640625,1.4743198156356812,0.41864213347435,-0.29841938614845276
1772796807046250000,0.08025,1.4069156646728516,0.15812285244464874,-0.36586883664131165
1772796807056242000,0.090241943359375,1.3628661632537842,-0.0717681273818016,-0.5011627078056335
1772796807066233900,0.10023388671875,1.361395001411438,-0.08715594559907913,-0.5582205653190613
1772796807076226000,0.11022607421875,1.396954894065857,0.2390168309211731,-0.41345593333244324
1772796807086218800,0.12021875,1.4763962030410767,0.8171541094779968,-0.008650993928313255
1772796807096211000,0.1302109375,1.6912651062011719,1.405310869216919,0.521675705909729
1772796807106203000,0.140202880859375,2.140432596206665,1.9005277156829834,0.8923375606536865
1772796807116195000,0.150195068359375,2.5082485675811768,2.3533153533935547,1.025521159172058
1772796807126186800,0.160186767578125,2.4374094009399414,2.2121777534484863,0.7527734637260437
1772796807136180000,0.170179931640625,2.1182703971862793,1.5168395042419434,-0.12721669673919678
1772796807146172000,0.180171875,1.7965949773788452,0.7665648460388184,-1.3600584268569946
1772796807156164600,0.19016455078125,1.3156263828277588,0.18664182722568512,-2.7359917163848877
1772796807166156500,0.200156494140625,0.8014622330665588,-0.008127727545797825,-3.7966442108154297
1772796807176149500,0.2101494140625,0.47649797797203064,0.0016782982274889946,-3.8155696392059326
1772796807186141400,0.220141357421875,0.5154681205749512,0.0018584304489195347,-2.748528242111206
1772796807196133600,0.230133544921875,0.6482658982276917,-0.30807414650917053,-1.4477168321609497
1772796807206125600,0.24012548828125,0.7584565877914429,-0.4927062392234802,-0.38431552052497864
1772796807216117500,0.250117431640625,0.7865915894508362,-0.568044126033783,0.26618820428848267
1772796807226110500,0.2601103515625,0.7456552386283875,-0.6413796544075012,0.4805372655391693
1772796807236102700,0.2701025390625,0.6665705442428589,-0.5972811579704285,0.3598228394985199
1772796807246094600,0.280094482421875,0.6086042523384094,-0.2938733994960785,0.06038755178451538
1772796807256086500,0.29008642578125,0.6371123194694519,0.24241319298744202,-0.17207711935043335
1772796807266078500,0.300078369140625,0.7108014822006226,0.6639314889907837,-0.14071641862392426
1772796807276071400,0.310071533203125,0.7545036673545837,0.8942243456840515,0.17987704277038574
1772796807286063400,0.3200634765625,0.7447379231452942,0.8845522999763489,0.6480584740638733
1772796807296055600,0.3300556640625,0.7308905124664307,0.6793301701545715,1.1033213138580322
1772796807306047500,0.340047607421875,0.7061159014701843,0.4156770706176758,1.3607237339019775
1772796807316039700,0.350039794921875,0.6738412976264954,0.2754019796848297,1.343865156173706
1772796807326032600,0.36003271484375,0.6422819495201111,0.2507386803627014,1.0866084098815918
1772796807336024600,0.370024658203125,0.5963190197944641,0.22288042306900024,0.6759532690048218
1772796807346016800,0.380016845703125,0.551425576210022,0.1923883855342865,0.21244403719902039
1772796807356008400,0.390008544921875,0.5398405194282532,0.22074146568775177,-0.20223703980445862
1772796807366001700,0.400001708984375,0.5697913765907288,0.18347440659999847,-0.47332412004470825
1772796807375993600,0.40999365234375,0.6210527420043945,0.08597847074270248,-0.6073389053344727
1772796807385985500,0.419985595703125,0.688880980014801,0.04959077015519142,-0.6685119271278381
1772796807395977500,0.4299775390625,0.7246618866920471,0.044261518865823746,-0.6625065207481384
1772796807405969700,0.4399697265625,0.6760264039039612,0.011827236041426659,-0.6587145924568176
1772796807415962400,0.44996240234375,0.5687095522880554,-0.02830553613603115,-0.7395130395889282
1772796807425954600,0.45995458984375,0.44950950145721436,-0.07819955796003342,-0.8801419734954834
1772796807435946500,0.469946533203125,0.37514179944992065,-0.17446084320545197,-1.0233042240142822
1772796807445938700,0.479938720703125,0.37248900532722473,-0.19079507887363434,-1.1674795150756836
1772796807455930400,0.489930419921875,0.4463673233985901,-0.1893986612558365,-1.3082689046859741
1772796807465923600,0.499923583984375,0.5571843981742859,-0.39178532361984253,-1.4523972272872925
1772796807475915500,0.50991552734375,0.614628255367279,-0.726489245891571,-1.5855993032455444
1772796807485907500,0.519907470703125,0.5440050363540649,-1.0274168252944946,-1.5996719598770142
1772796807495899400,0.5298994140625,0.33238497376441956,-1.0423427820205688,-1.4096050262451172
1772796807505891600,0.5398916015625,0.16079674661159515,-0.6529558300971985,-1.014011263847351
1772796807515884500,0.549884521484375,0.23236174881458282,0.16684028506278992,-0.4843554198741913
1772796807525876500,0.55987646484375,0.5501431822776794,1.0561972856521606,0.008743619546294212
1772796807535868700,0.56986865234375,0.8951991200447083,1.7594918012619019,0.34050452709198
1772796807545860600,0.579860595703125,1.0961880683898926,2.0460824966430664,0.6548707485198975
1772796807555853600,0.589853515625,1.2828189134597778,1.5819779634475708,0.7707129716873169
1772796807565845500,0.599845458984375,1.1835150718688965,0.8073450326919556,-0.04889681935310364
1772796807575837700,0.609837646484375,0.9053230285644531,0.39437341690063477,-1.9127750396728516
1772796807585829400,0.619829345703125,0.5903170704841614,0.5633870363235474,-3.6974377632141113
1772796807595821600,0.629821533203125,0.1981053352355957,0.6859614253044128,-4.167039394378662
1772796807605814500,0.639814453125,-0.027239147573709488,0.33999764919281006,-3.0055718421936035
1772796807615806500,0.649806396484375,0.039217907935380936,-0.12326933443546295,-1.3283244371414185
1772796807625798400,0.65979833984375,0.2134634554386139,-0.4085112512111664,-0.0992264375090599
1772796807635790600,0.66979052734375,0.36113545298576355,-0.4907003939151764,0.6504598259925842
1772796807645782500,0.679782470703125,0.4311389923095703,-0.5438398718833923,0.9426829218864441
1772796807655775500,0.689775390625,0.41511982679367065,-0.7004507780075073,0.8914825916290283
1772796807665767400,0.699767333984375,0.2877674698829651,-0.9169629812240601,0.6818907260894775
1772796807675759600,0.709759521484375,0.13864535093307495,-1.025042176246643,0.4486076533794403
1772796807685751600,0.71975146484375,0.01664273627102375,-0.9957540035247803,0.3588440418243408
1772796807695744500,0.72974462890625,-0.0786057561635971,-0.873166561126709,0.5392205119132996
1772796807705736700,0.73973681640625,-0.17252783477306366,-0.6835835576057434,0.9018212556838989
1772796807715728600,0.749728759765625,-0.23262950778007507,-0.4743509888648987,1.2761008739471436
1772796807725720600,0.759720458984375,-0.22261537611484528,-0.2611621618270874,1.519296646118164
1772796807735712500,0.76971240234375,-0.1956857591867447,-0.06662651896476746,1.5649904012680054
1772796807745705700,0.779705810546875,-0.12400802224874496,0.1557704508304596,1.4256603717803955
1772796807755697400,0.789697509765625,-0.04129024222493172,0.4251691699028015,1.1569511890411377
1772796807765689600,0.799689697265625,0.013576880097389221,0.7112565636634827,0.8230926394462585
1772796807775681500,0.809681640625,0.0425584651529789,0.9391552805900574,0.5064294934272766
1772796807785673700,0.819673828125,0.039897676557302475,1.0128364562988281,0.20145194232463837
1772796807795666400,0.82966650390625,0.02355784922838211,0.9110610485076904,-0.04071594029664993
1772796807805658600,0.83965869140625,-0.01377077680081129,0.6627718210220337,-0.15241098403930664
1772796807815650600,0.849650634765625,-0.07330548018217087,0.27008897066116333,-0.1460670679807663
1772796807825642500,0.859642578125,-0.10952389985322952,-0.1524972766637802,-0.09195861965417862
1772796807835634400,0.869634521484375,-0.11443637311458588,-0.4483491778373718,-0.06690280139446259
1772796807845627600,0.879627685546875,-0.07701876759529114,-0.5457550287246704,-0.1134873703122139
1772796807855619300,0.889619384765625,-0.006669234484434128,-0.5399416089057922,-0.2096405327320099
1772796807865611500,0.899611572265625,0.059170033782720566,-0.522129237651825,-0.3366316556930542
1772796807875603500,0.909603515625,0.09238844364881516,-0.5598252415657043,-0.4861321747303009
1772796807885595600,0.919595703125,0.08216702938079834,-0.6985988020896912,-0.676417350769043
1772796807895588600,0.929588623046875,0.03919319435954094,-0.848946213722229,-0.8469922542572021
1772796807905580500,0.93958056640625,0.04325919970870018,-0.9817962646484375,-0.8526932001113892
1772796807915572700,0.94957275390625,0.08657365292310715,-0.9326508045196533,-0.7497005462646484
1772796807925564400,0.959564453125,0.07895248383283615,-0.7020605206489563,-0.5250269174575806
1772796807935557600,0.9695576171875,0.06627903133630753,-0.2278527021408081,-0.2108708769083023
1772796807945549600,0.979549560546875,0.04266376048326492,0.28240156173706055,0.18824997544288635
1772796807955541500,0.98954150390625,0.07153988629579544,0.7912610769271851,0.6673071384429932
1772796807965533400,0.999533447265625,0.06657988578081131,1.0326889753341675,1.1116218566894531
1772796807975525600,1.009525634765625,-0.018435673788189888,0.9038766026496887,1.374475359916687
1772796807985518300,1.019518310546875,-0.23799672722816467,0.48728063702583313,1.4019819498062134
1772796807995510500,1.029510498046875,-0.47812703251838684,-0.11172901839017868,1.5162012577056885
1772796808005502500,1.03950244140625,-0.4943055808544159,-0.5430289506912231,1.5962406396865845
1772796808015494700,1.04949462890625,-0.28593504428863525,-0.23606157302856445,0.8684530854225159
1772796808025486600,1.059486572265625,-0.02091425284743309,0.7562352418899536,-0.9241828322410583
1772796808035479600,1.0694794921875,0.08455730974674225,1.6924750804901123,-2.991384744644165
1772796808045471500,1.079471435546875,-0.04955904930830002,1.8526017665863037,-4.081988334655762
1772796808055463700,1.089463623046875,-0.2072639912366867,1.1675081253051758,-3.7433714866638184
1772796808065455400,1.099455322265625,-0.26131048798561096,0.31201767921447754,-2.593597650527954
1772796808075447600,1.109447509765625,-0.29879260063171387,-0.36121267080307007,-1.5020227432250977
1772796808085440500,1.1194404296875,-0.3622661232948303,-0.6933157444000244,-0.6386696696281433
1772796808095432400,1.129432373046875,-0.31801584362983704,-0.7737767696380615,-0.030688341706991196
1772796808105424600,1.139424560546875,-0.20234040915966034,-0.6545308232307434,0.3798069953918457
1772796808115416600,1.14941650390625,-0.04956552013754845,-0.4439229667186737,0.6370129585266113
1772796808125409500,1.159409423828125,0.11288051307201385,-0.20873743295669556,0.7616972327232361
1772796808135401500,1.1694013671875,0.2616928815841675,-0.07498310506343842,0.8327751159667969
1772796808145393700,1.1793935546875,0.3530033230781555,-0.020306862890720367,0.8663761019706726
1772796808155385000,1.189385009765625,0.36517104506492615,-0.05301341041922569,0.8898031711578369
1772796808165377000,1.199376953125,0.3324439227581024,-0.09111140668392181,0.902801513671875
1772796808175370000,1.209369873046875,0.2781559228897095,-0.08199115097522736,0.9792678356170654
1772796808185362200,1.219362060546875,0.1591048240661621,-0.02667910046875477,1.0489046573638916
1772796808195354000,1.22935400390625,0.03274821117520332,-0.06979195028543472,1.017062783241272
1772796808205346000,1.239345947265625,-0.10211452096700668,-0.17381110787391663,0.9504834413528442
1772796808215338000,1.249337890625,-0.23584622144699097,-0.22954097390174866,0.8576133847236633
1772796808225331000,1.2593310546875,-0.2827707827091217,-0.19243107736110687,0.6785247325897217
1772796808235323000,1.269322998046875,-0.21483144164085388,-0.09657672047615051,0.4410405457019806
1772796808245315000,1.279315185546875,-0.09974325448274612,0.018067598342895508,0.2202112376689911
1772796808255307000,1.28930712890625,0.012829098850488663,0.12583081424236298,0.04470252990722656
1772796808265299200,1.29929931640625,0.09852197021245956,0.15442858636379242,-0.07707661390304565
1772796808275292200,1.309292236328125,0.11605729162693024,0.07118162512779236,-0.18563398718833923
1772796808285284000,1.3192841796875,0.07382804155349731,-0.07759202271699905,-0.2884620428085327
1772796808295276300,1.3292763671875,-0.0008155638352036476,-0.256197988986969,-0.3688620626926422
1772796808305268000,1.33926806640625,-0.09850175678730011,-0.4285014271736145,-0.4304252564907074
1772796808315260000,1.349260009765625,-0.18964897096157074,-0.5735800862312317,-0.4980490207672119
1772796808325253000,1.359253173828125,-0.26324203610420227,-0.6559962034225464,-0.6200648546218872
1772796808335245000,1.3692451171875,-0.28862571716308594,-0.680298924446106,-0.7495844960212708
1772796808345237000,1.379237060546875,-0.2579030692577362,-0.6686168909072876,-0.8230372667312622
1772796808355229200,1.389229248046875,-0.19390037655830383,-0.6205090284347534,-0.8166115880012512
1772796808365221000,1.39922119140625,-0.12966899573802948,-0.5376936197280884,-0.7264232635498047
1772796808375214000,1.409214111328125,-0.105523981153965,-0.5245139002799988,-0.5145842432975769
1772796808385206000,1.4192060546875,-0.13090144097805023,-0.581872284412384,-0.3051958382129669
1772796808395198200,1.4291982421875,-0.2069903463125229,-0.5103501677513123,-0.3193414807319641
1772796808405190000,1.43918994140625,-0.3266145586967468,-0.25540676712989807,-0.6480003595352173
1772796808415183000,1.44918310546875,-0.44158270955085754,0.03347403556108475,-0.9314253926277161
1772796808425175000,1.459175048828125,-0.4137479364871979,0.32114917039871216,-0.8215509057044983
1772796808435167000,1.4691669921875,-0.1805650144815445,0.5850990414619446,-0.33195674419403076
1772796808445159000,1.479158935546875,0.30267804861068726,0.7359785437583923,0.17713595926761627
1772796808455151000,1.489151123046875,0.8112672567367554,0.8646113872528076,0.17039522528648376
1772796808465144000,1.49914404296875,0.8967094421386719,1.037063717842102,-0.8839672207832336
1772796808475136000,1.509135986328125,0.6238776445388794,1.1134915351867676,-2.798274517059326
1772796808485128200,1.519128173828125,0.1133270263671875,0.7908750176429749,-4.457803726196289
1772796808495120100,1.5291201171875,-0.33879008889198303,0.18059484660625458,-4.7386474609375
1772796808505111800,1.53911181640625,-0.5522738695144653,-0.5009908080101013,-3.391326665878296
1772796808515105000,1.54910498046875,-0.8153063058853149,-0.8260027766227722,-0.9305809140205383
1772796808525097200,1.55909716796875,-1.9620481729507446,0.6243463754653931,1.62623131275177
1772796808535089000,1.5690888671875,-0.7660372257232666,0.5525350570678711,2.6615185737609863
1772796808545081000,1.5790810546875,0.31515440344810486,-0.4915304183959961,3.276564121246338
1772796808555073000,1.589072998046875,0.16907814145088196,-0.22226114571094513,3.2991151809692383
1772796808565066000,1.59906591796875,-0.04231351613998413,0.21283654868602753,2.724830150604248
1772796808575058000,1.609057861328125,-0.07843423634767532,-0.045977432280778885,2.3405227661132812
1772796808585050000,1.619050048828125,-0.16082294285297394,-0.3635154664516449,2.3632466793060303
1772796808595042000,1.6290419921875,-0.2672492563724518,-0.4594731628894806,2.370786666870117
1772796808605034200,1.6390341796875,-0.29532676935195923,-0.35732951760292053,2.1641159057617188
1772796808615027000,1.64902685546875,-0.23583310842514038,-0.08360075950622559,1.8807334899902344
1772796808625019100,1.65901904296875,-0.15118201076984406,0.0997539833188057,1.6162173748016357
1772796808635011000,1.669010986328125,-0.08113875240087509,0.054403554648160934,1.4167492389678955
1772796808645003000,1.6790029296875,-0.0348748080432415,-0.13372261822223663,1.249237298965454
1772796808654996200,1.688996337890625,-0.030028654262423515,-0.39925867319107056,1.0475960969924927
1772796808664988200,1.69898828125,-0.06775091588497162,-0.5031766891479492,0.7330746054649353
1772796808674980000,1.70897998046875,-0.13523781299591064,-0.43186870217323303,0.34024107456207275
1772796808684972000,1.718971923828125,-0.24369663000106812,-0.25533753633499146,-0.060188598930835724
1772796808694964000,1.7289638671875,-0.3425406515598297,0.08343812823295593,-0.37790346145629883
1772796808704957000,1.73895703125,-0.3882024884223938,0.5384055972099304,-0.5362569689750671
1772796808714949000,1.74894921875,-0.3962114155292511,0.966867983341217,-0.5188843607902527
1772796808724941000,1.758941162109375,-0.40731281042099,1.2668453454971313,-0.3781587481498718
1772796808734933200,1.768933349609375,-0.4631728529930115,1.4322584867477417,-0.18608358502388
1772796808744925000,1.778925048828125,-0.6543499827384949,1.5005077123641968,-0.06078923121094704
1772796808754918100,1.788918212890625,-1.004489541053772,1.4938585758209229,-0.044290948659181595
1772796808764910000,1.79891015625,-1.3735320568084717,1.444231629371643,-0.08852354437112808
1772796808774902000,1.808902099609375,-1.522625207901001,1.3297984600067139,-0.34632977843284607
1772796808784894000,1.81889404296875,-1.3732776641845703,1.0717946290969849,-0.8127706050872803
1772796808794886100,1.82888623046875,-1.0695295333862305,0.6514466404914856,-1.1470310688018799
1772796808804878800,1.83887890625,-0.7668939828872681,0.00942605547606945,-1.082763433456421
1772796808814871000,1.84887109375,-0.5139138698577881,-0.7066553831100464,-0.6078546643257141
1772796808824863000,1.858863037109375,-0.3118143081665039,-1.1422455310821533,-0.05442993342876434
1772796808834855200,1.868855224609375,-0.2720320224761963,-1.1793864965438843,0.2836360037326813
1772796808844846800,1.878846923828125,-0.3857590854167938,-1.0214817523956299,0.2522954046726227
1772796808854840000,1.888840087890625,-0.36843550205230713,-0.7149714231491089,0.011323024518787861
1772796808864832300,1.898832275390625,-0.17174026370048523,-0.28914690017700195,-0.2883033752441406
1772796808874824000,1.908823974609375,0.12747067213058472,0.22669380903244019,-0.6281165480613708
1772796808884816000,1.91881591796875,0.3373437523841858,0.8276221752166748,-1.2699592113494873
1772796808894808000,1.92880810546875,0.39320915937423706,1.0315473079681396,-2.243943691253662
1772796808904801000,1.938801025390625,0.2481018751859665,0.6851092576980591,-3.3348474502563477
1772796808914793000,1.94879296875,-0.18921074271202087,0.008372840471565723,-4.045394420623779
1772796808924785200,1.95878515625,-0.573918342590332,-0.7939189672470093,-3.702261447906494
1772796808934777000,1.968777099609375,-0.7730056047439575,-1.6222845315933228,-2.2322988510131836
1772796808944770000,1.97877001953125,-0.7362618446350098,-2.1807799339294434,-0.45253145694732666
1772796808954762000,1.988761962890625,-0.5558677911758423,-2.044872522354126,0.8710518479347229
1772796808964754200,1.998754150390625,-0.21948587894439697,-1.6103545427322388,1.477127194404602
1772796808974746000,2.00874609375,0.28407901525497437,-1.3076937198638916,1.63200843334198
1772796808984738000,2.018738037109375,0.5988603830337524,-0.9380850791931152,1.4615424871444702
1772796808994731000,2.02873095703125,0.682578980922699,-0.4070523679256439,1.075783610343933
1772796809004723200,2.03872314453125,0.6931872963905334,-0.017112720757722855,0.8005756139755249
1772796809014715000,2.04871484375,0.6141108870506287,0.10278572142124176,0.8187617659568787
1772796809024707000,2.05870703125,0.5519925355911255,-0.056456923484802246,1.075981616973877
1772796809034699000,2.068698974609375,0.539038896560669,-0.29391342401504517,1.4168212413787842
1772796809044692000,2.07869189453125,0.5459241271018982,-0.49175700545310974,1.6996232271194458
1772796809054684200,2.08868408203125,0.5567229390144348,-0.605050802230835,1.8042469024658203
1772796809064676000,2.098676025390625,0.5193869471549988,-0.6321020722389221,1.655372977256775
1772796809074668000,2.10866796875,0.4062867760658264,-0.6359705924987793,1.2852939367294312
1772796809084660000,2.118659912109375,0.26591402292251587,-0.49067923426628113,0.8395493626594543
1772796809094653200,2.128653076171875,0.16000650823116302,-0.16398818790912628,0.38987430930137634
1772796809104645000,2.13864501953125,0.13362336158752441,0.31794825196266174,-0.13159114122390747
1772796809114637000,2.148636962890625,0.1503157913684845,0.8532865047454834,-0.6643104553222656
1772796809124629000,2.15862890625,0.17020516097545624,1.2649304866790771,-1.06098210811615
1772796809134621200,2.16862109375,0.14022064208984375,1.4688870906829834,-1.245772123336792
1772796809144614000,2.17861376953125,0.11264822632074356,1.4548813104629517,-1.2116037607192993
1772796809154606000,2.188606201171875,0.1092500388622284,1.363120198249817,-1.0102183818817139
1772796809164598000,2.198597900390625,0.08639971911907196,1.2189918756484985,-0.8360495567321777
1772796809174590200,2.208590087890625,-0.00409289263188839,0.8803932666778564,-0.7748972773551941
1772796809184582000,2.218581787109375,-0.12508706748485565,0.3499676585197449,-0.7722570300102234
1772796809194575000,2.2285751953125,-0.2248418927192688,-0.10909631103277206,-0.8402184844017029
1772796809204567300,2.2385673828125,-0.2675895392894745,-0.34247440099716187,-0.8411629796028137
1772796809214559000,2.24855908203125,-0.2508081793785095,-0.445429265499115,-0.5955390930175781
1772796809224551200,2.25855126953125,-0.16041943430900574,-0.5894287824630737,-0.051668036729097366
1772796809234543000,2.268543212890625,-0.09504548460245132,-0.7777989506721497,0.6374973058700562
1772796809244536000,2.2785361328125,-0.09035695344209671,-0.6854256987571716,1.1520562171936035
1772796809254528000,2.288528076171875,-0.07180510461330414,-0.21504251658916473,1.2874031066894531
1772796809264520200,2.298520263671875,0.04786226898431778,0.5889658331871033,1.087812066078186
1772796809274512100,2.30851220703125,0.2545235753059387,1.210853099822998,0.903867244720459
1772796809284504000,2.318504150390625,0.4231868088245392,1.360931634902954,0.8913165330886841
1772796809294497000,2.3284970703125,0.458394855260849,1.016411304473877,0.8919357061386108
1772796809304489200,2.3384892578125,0.4630128741264343,0.6300754547119141,0.9198632836341858
1772796809314481000,2.34848095703125,0.40638741850852966,0.49364277720451355,0.9977588653564453
1772796809324473000,2.35847314453125,0.2735469341278076,0.47661063075065613,1.0089646577835083
1772796809334465000,2.368465087890625,0.06705580651760101,0.5267235636711121,0.5280315279960632
1772796809344458000,2.3784580078125,-0.12786434590816498,0.5554986596107483,-0.5963479280471802
1772796809354450000,2.388449951171875,-0.2101517617702484,0.37379249930381775,-1.550369381904602
1772796809364442000,2.398442138671875,-0.12084328383207321,0.2709188163280487,-1.5914109945297241
1772796809374434000,2.40843408203125,0.042243633419275284,0.11412600427865982,-1.0796889066696167
1772796809384427000,2.418427001953125,0.1588662713766098,0.06504170596599579,-0.48974382877349854
1772796809394419200,2.428419189453125,0.16144661605358124,0.20804600417613983,-0.1151084154844284
1772796809404411100,2.4384111328125,0.11686629801988602,0.24080124497413635,-0.05389232933521271
1772796809414403300,2.4484033203125,0.05887649208307266,0.04638222977519035,-0.09851359575986862
1772796809424395000,2.45839501953125,-0.01660972647368908,-0.29327911138534546,-0.13748854398727417
1772796809434388200,2.46838818359375,-0.08193546533584595,-0.7041284441947937,-0.14868472516536713
1772796809444380200,2.478380126953125,-0.10542134195566177,-1.0625921487808228,-0.1254383772611618
1772796809454372000,2.4883720703125,-0.08342815935611725,-1.2951092720031738,-0.15047448873519897
1772796809464364000,2.498364013671875,-0.05408817529678345,-1.3838495016098022,-0.1567523330450058
1772796809474356200,2.508356201171875,-0.046256884932518005,-1.3169838190078735,-0.05687074363231659
1772796809484349000,2.518348876953125,-0.05005000904202461,-1.1132457256317139,0.1503143012523651
1772796809494341000,2.528341064453125,-0.09112793952226639,-0.8243444561958313,0.3714487850666046
1772796809504333000,2.5383330078125,-0.16028809547424316,-0.49385446310043335,0.4772641658782959
1772796809514325200,2.5483251953125,-0.19993376731872559,-0.11981933563947678,0.46466103196144104
1772796809524317000,2.55831689453125,-0.2160486876964569,0.20774894952774048,0.36378970742225647
1772796809534310100,2.56831005859375,-0.21138575673103333,0.41917890310287476,0.2058999389410019
1772796809544302000,2.578302001953125,-0.16116726398468018,0.5350576043128967,0.033776137977838516
1772796809554294000,2.5882939453125,-0.03981553018093109,0.550069272518158,-0.12199161946773529
1772796809564286000,2.598285888671875,0.13199184834957123,0.590408980846405,-0.27136993408203125
1772796809574278100,2.608278076171875,0.3152780532836914,0.7529739141464233,-0.38427677750587463
1772796809584271000,2.61827099609375,0.4260992705821991,0.9600321054458618,-0.48409798741340637
1772796809594263000,2.628262939453125,0.3988857567310333,1.0599589347839355,-0.6416753530502319
1772796809604255200,2.638255126953125,0.3005175292491913,0.9477947354316711,-0.8381732106208801
1772796809614247200,2.6482470703125,0.18401169776916504,0.6742745041847229,-0.9974744915962219
1772796809624239000,2.658239013671875,0.10666996240615845,0.36059460043907166,-1.0486054420471191
1772796809634232000,2.668232177734375,0.05068578943610191,0.12788251042366028,-1.017822265625
1772796809644224300,2.678224365234375,0.04087057709693909,0.02121848054230213,-1.023507833480835
1772796809654216000,2.6882158203125,0.07181837409734726,0.028230318799614906,-1.1079680919647217
1772796809664208100,2.6982080078125,0.10925278812646866,0.1440708339214325,-1.1521129608154297
1772796809674200000,2.708199951171875,0.13280844688415527,0.25508418679237366,-1.05582594871521
1772796809684193000,2.718193115234375,0.14345434308052063,0.35631063580513,-0.7880518436431885
1772796809694185000,2.72818505859375,0.19992560148239136,0.42061132192611694,-0.3630499541759491
1772796809704177200,2.73817724609375,0.31787875294685364,0.45473894476890564,0.12339707463979721
1772796809714169000,2.748169189453125,0.4582534432411194,0.4704097807407379,0.5456284880638123
1772796809724161000,2.7581611328125,0.5673126578330994,0.44018736481666565,0.8295129537582397
1772796809734154000,2.768154052734375,0.6329542398452759,0.24401545524597168,0.99580979347229
1772796809744146200,2.778146240234375,0.6965815424919128,0.08844491839408875,1.1078828573226929
1772796809754138000,2.78813818359375,0.8006166219711304,0.12157464027404785,1.1146161556243896
1772796809764130000,2.798130126953125,0.9570477604866028,0.3232238292694092,1.0249409675598145
1772796809774122000,2.8081220703125,1.1638123989105225,0.597905158996582,0.9864810109138489
1772796809784115200,2.818115234375,1.328838586807251,0.7097987532615662,1.084800124168396
1772796809794107100,2.828107177734375,1.304091453552246,0.40904346108436584,1.2973238229751587
1772796809804099000,2.83809912109375,1.0695369243621826,-0.05164133757352829,1.5070983171463013
1772796809814091300,2.84809130859375,0.6420665383338928,-0.40441858768463135,1.4844987392425537
1772796809824084000,2.858083984375,0.28273215889930725,-0.42140907049179077,1.189883828163147
1772796809834076200,2.868076171875,0.02213199995458126,-0.2682461440563202,0.6968532204627991
1772796809844068000,2.878068115234375,-0.18640239536762238,0.08928346633911133,-0.05144919082522392
1772796809854060300,2.888060302734375,-0.254331111907959,0.539038896560669,-0.9043850898742676
1772796809864052000,2.898052001953125,-0.17316894233226776,0.8583858609199524,-1.4933412075042725
1772796809874045200,2.908045166015625,0.0037461796309798956,0.9887635707855225,-1.5399256944656372
1772796809884037000,2.918037109375,0.1703391671180725,1.0584732294082642,-1.132315754890442
1772796809894029000,2.928029052734375,0.1802152395248413,0.9015812277793884,-0.4588494300842285
1772796809904021000,2.93802099609375,0.05618321895599365,0.5566496849060059,0.22096635401248932
1772796809914013200,2.94801318359375,-0.08693106472492218,0.20795640349388123,0.4992738664150238
1772796809924006000,2.958005859375,-0.2479858100414276,-0.1691816747188568,0.6300556659698486
1772796809933998000,2.967998046875,-0.4790528416633606,-0.6119170188903809,0.6810749173164368
1772796809943990000,2.977989990234375,-0.6375634670257568,-1.0843260288238525,0.6434180736541748
1772796809953982200,2.987982177734375,-0.6696678996086121,-1.4238202571868896,0.53858482837677
1772796809963974000,2.997973876953125,-0.6079322695732117,-1.460152268409729,0.3960745334625244
1772796809973967000,3.007967041015625,-0.44347670674324036,-1.335821270942688,0.2587294578552246
1772796809983959300,3.017959228515625,-0.2307407259941101,-1.2107510566711426,0.185055673122406
1772796809993951000,3.027950927734375,-0.06353842467069626,-1.1007217168807983,0.1849888265132904
1772796810003943200,3.037943115234375,0.0675746276974678,-1.0422892570495605,0.29889151453971863
1772796810013935000,3.04793505859375,0.17583052814006805,-1.022903561592102,0.4767323434352875
1772796810023928000,3.057927978515625,0.19713228940963745,-0.941798746585846,0.6451997756958008
1772796810033920000,3.067919921875,0.12164764851331711,-0.8186120986938477,0.7500444054603577
1772796810043912200,3.077912109375,0.016461074352264404,-0.7230675220489502,0.7696446776390076
1772796810053904100,3.087904052734375,-0.08960091322660446,-0.6354721784591675,0.6925538778305054
1772796810063896000,3.09789599609375,-0.1619560271501541,-0.528636634349823,0.5789106488227844
1772796810073889000,3.107888916015625,-0.15795595943927765,-0.3460872769355774,0.46869951486587524
1772796810083881200,3.117881103515625,-0.08380614221096039,-0.0770065113902092,0.3347637951374054
1772796810093873000,3.127872802734375,-0.011375083588063717,0.21571297943592072,0.14143617451190948
1772796810103865000,3.137864990234375,0.050145283341407776,0.45931321382522583,-0.062779501080513
1772796810113857000,3.14785693359375,0.09658628702163696,0.5729380249977112,-0.17683203518390656
1772796810123850000,3.15785009765625,0.11939290165901184,0.5433624982833862,-0.16456812620162964
1772796810133842000,3.167842041015625,0.09913796186447144,0.38995134830474854,-0.06559252738952637
1772796810143834000,3.177834228515625,0.060900043696165085,0.10112204402685165,0.00320799695327878
1772796810153826300,3.187826416015625,0.01623484119772911,-0.19782471656799316,0.021436534821987152
1772796810163818200,3.197818359375,-0.01422815304249525,-0.3492681384086609,0.005582158919423819
1772796810173811500,3.2078115234375,-0.028769278898835182,-0.3485381603240967,-0.03748594969511032
1772796810183803400,3.217803466796875,-0.0556047298014164,-0.2854488492012024,-0.08551894128322601
1772796810193795300,3.22779541015625,-0.09565094858407974,-0.25240832567214966,-0.0747523084282875
1772796810203787300,3.237787353515625,-0.17693470418453217,-0.31833410263061523,-0.0075766537338495255
1772796810213779500,3.247779541015625,-0.26800602674484253,-0.5408854484558105,0.07013572007417679
1772796810223772200,3.257772216796875,-0.34205594658851624,-0.7978930473327637,0.13552433252334595
1772796810233764400,3.267764404296875,-0.38311895728111267,-0.9314723610877991,0.19354315102100372
1772796810243756300,3.27775634765625,-0.3624313771724701,-0.8682931661605835,0.29144641757011414
1772796810253748500,3.28774853515625,-0.27191558480262756,-0.6330271363258362,0.4577794671058655
1772796810263740400,3.297740478515625,-0.1765117198228836,-0.26924094557762146,0.5865327715873718
1772796810273733400,3.3077333984375,-0.07296216487884521,0.0777583122253418,0.6308273077011108
1772796810283725300,3.317725341796875,0.015801453962922096,0.30076321959495544,0.535184919834137
1772796810293717500,3.327717529296875,0.03578714653849602,0.4959222972393036,0.4140813648700714
1772796810303709200,3.337709228515625,0.0006338306702673435,0.6326237320899963,0.381936639547348
1772796810313701400,3.347701416015625,0.024899756535887718,0.6398427486419678,0.5773388743400574
1772796810323694300,3.3576943359375,0.056541457772254944,0.5915435552597046,0.9493061304092407
1772796810333686300,3.367686279296875,0.10764113068580627,0.4244930148124695,1.180532693862915
1772796810343678200,3.37767822265625,0.1934012770652771,0.2263539582490921,1.0886006355285645
1772796810353670400,3.38767041015625,0.2855519652366638,0.2154533714056015,0.5337662696838379
1772796810363663400,3.397663330078125,0.2839681804180145,0.5307728052139282,-0.8535613417625427
1772796810373655300,3.4076552734375,0.2836427390575409,0.8452921509742737,-2.8160603046417236
1772796810383647500,3.4176474609375,0.1536870300769806,0.8182046413421631,-4.142148494720459
1772796810393639400,3.427639404296875,-0.05731787905097008,0.4785357415676117,-4.026273250579834
1772796810403631400,3.43763134765625,-0.15826857089996338,-0.14322322607040405,-2.3139312267303467
1772796810413624300,3.447624267578125,-0.03949344903230667,-0.7564941048622131,-0.16826237738132477
1772796810423616500,3.457616455078125,0.023626353591680527,-0.9809120893478394,0.8049383759498596
1772796810433608200,3.467608154296875,0.07705122977495193,-0.706574559211731,1.0031219720840454
1772796810443600400,3.477600341796875,0.09723319858312607,-0.27858322858810425,0.8695343732833862
1772796810453592300,3.48759228515625,0.08933266252279282,0.03909085690975189,0.6132240295410156
1772796810463585300,3.497585205078125,0.03972405195236206,0.16001509130001068,0.21945160627365112
1772796810473577200,3.5075771484375,-0.01416767481714487,0.11650542914867401,-0.28906941413879395
1772796810483569400,3.5175693359375,-0.0485549122095108,0.03600434958934784,-0.7338520288467407
1772796810493561300,3.527561279296875,-0.08788607269525528,-0.044234029948711395,-0.8861818909645081
1772796810503553300,3.53755322265625,-0.15476109087467194,-0.22219747304916382,-0.6822513341903687
1772796810513546200,3.547546142578125,-0.22909976541996002,-0.4203941822052002,-0.19845989346504211
1772796810523538400,3.557538330078125,-0.23844356834888458,-0.5526003241539001,0.4085244834423065
1772796810533530000,3.567530029296875,-0.2063218504190445,-0.5698328614234924,0.9843771457672119
1772796810543522300,3.577522216796875,-0.18150125443935394,-0.5564624071121216,1.3879834413528442
1772796810553514200,3.58751416015625,-0.17483137547969818,-0.4910479784011841,1.5544624328613281
1772796810563507200,3.597507080078125,-0.1653909534215927,-0.38041454553604126,1.4863712787628174
1772796810573499400,3.60749951171875,-0.16029392182826996,-0.2606639266014099,1.2548307180404663
1772796810583491300,3.6174912109375,-0.12949499487876892,-0.1812054067850113,0.9588660597801208
1772796810593483500,3.6274833984375,-0.08991535007953644,-0.13817644119262695,0.6163127422332764
1772796810603475500,3.637475341796875,-0.06874732673168182,-0.11714477092027664,0.24630139768123627
1772796810613468400,3.647468505859375,-0.031758151948451996,-0.0970701277256012,-0.09801176935434341
1772796810623460400,3.65746044921875,0.018959064036607742,-0.05210990831255913,-0.36304107308387756
1772796810633452300,3.667452392578125,0.051181450486183167,0.0551542304456234,-0.5472306609153748
1772796810643444200,3.6774443359375,0.08544810116291046,0.17614170908927917,-0.6494344472885132
1772796810653436400,3.6874365234375,0.11342167854309082,0.22691594064235687,-0.6617526412010193
1772796810663429400,3.697429443359375,0.11638452857732773,0.21510228514671326,-0.6283822655677795
1772796810673421300,3.70742138671875,0.10602643340826035,0.14197638630867004,-0.5869996547698975
1772796810683413200,3.717413330078125,0.08702640235424042,0.034137800335884094,-0.5695582628250122
1772796810693405400,3.727405517578125,0.08715902268886566,-0.08837772905826569,-0.5602603554725647
1772796810703397400,3.7373974609375,0.1118355393409729,-0.1905270516872406,-0.5751966238021851
1772796810713390300,3.747390380859375,0.13645221292972565,-0.22412575781345367,-0.6382077932357788
1772796810723382300,3.75738232421875,0.14411170780658722,-0.18085700273513794,-0.7251924276351929
1772796810733374500,3.76737451171875,0.12963290512561798,-0.17310720682144165,-0.8030440807342529
1772796810743366100,3.7773662109375,0.1774153858423233,-0.1616480052471161,-0.8489660620689392
1772796810753358300,3.7873583984375,0.28622815012931824,-0.06079170107841492,-0.8171594142913818
1772796810763351600,3.7973515625,0.3519963026046753,0.2433396428823471,-0.7008942365646362
1772796810773343200,3.80734326171875,0.39067497849464417,0.6689093708992004,-0.4879130423069
1772796810783335400,3.81733544921875,0.4738759696483612,1.0699046850204468,-0.2704254388809204
1772796810793327400,3.827327392578125,0.579962432384491,1.2679107189178467,-0.027101730927824974
1772796810803319600,3.837319580078125,0.7350379824638367,1.3305675983428955,0.2639869749546051
1772796810813312300,3.847312255859375,0.9170621037483215,1.3446292877197266,0.6079493761062622
1772796810823304400,3.857304443359375,1.00575590133667,0.9852786660194397,0.8108944892883301
1772796810833296400,3.86729638671875,0.9849401116371155,0.4525540769100189,0.5478397011756897
1772796810843288300,3.877288330078125,0.7724322080612183,0.14867307245731354,-0.5715949535369873
1772796810853280300,3.8872802734375,0.3631402850151062,0.17585621774196625,-2.390960931777954
1772796810863273500,3.8972734375,0.023312674835324287,0.383006751537323,-3.788045644760132
1772796810873265200,3.90726513671875,-0.17099660634994507,0.5433745980262756,-3.9186084270477295
1772796810883257300,3.91725732421875,-0.13401764631271362,0.4492218792438507,-2.7251815795898438
1772796810893249300,3.927249267578125,0.02395707368850708,0.08533073216676712,-1.0353059768676758
1772796810903242200,3.9372421875,0.15988405048847198,-0.16828487813472748,0.33623409271240234
1772796810913234200,3.947234130859375,0.24636514484882355,-0.26143771409988403,1.1686594486236572
1772796810923226400,3.957226318359375,0.2294733077287674,-0.2809697091579437,1.418305516242981
1772796810933218300,3.96721826171875,0.18573328852653503,-0.3561646044254303,1.2402702569961548
1772796810943210200,3.977210205078125,0.11335832625627518,-0.4445187449455261,0.8031882643699646
1772796810953203500,3.987203369140625,0.08681539446115494,-0.3899329900741577,0.3756507933139801
1772796810963195400,3.9971953125,0.14327211678028107,-0.16380219161510468,0.14230124652385712
1772796810973187300,4.007187255859375,0.21221975982189178,0.03263896331191063,0.16929557919502258
1772796810983179300,4.01717919921875,0.214809387922287,0.13595348596572876,0.40605518221855164
1772796810993171500,4.02717138671875,0.14968471229076385,0.12172845751047134,0.7898070812225342
1772796811003164400,4.037164306640625,0.06410962343215942,0.02719956450164318,1.1756919622421265
1772796811013156400,4.04715625,-0.029534578323364258,-0.0899994969367981,1.4015491008758545
1772796811023148300,4.057148193359375,-0.11209367215633392,-0.11038854718208313,1.4242619276046753
1772796811033140500,4.067140380859375,-0.17511151731014252,-0.015038326382637024,1.2391191720962524
1772796811043132400,4.07713232421875,-0.20855630934238434,0.15970642864704132,0.9067419171333313
1772796811053125400,4.08712548828125,-0.1883503645658493,0.3561326563358307,0.5538483262062073
1772796811063117300,4.097117431640625,-0.10872118920087814,0.4794025421142578,0.2476084679365158
1772796811073109500,4.107109619140625,0.00025030155666172504,0.5270411968231201,0.02845161035656929
1772796811083101200,4.11710107421875,0.13798807561397552,0.5237913727760315,-0.09096863865852356
1772796811093093400,4.12709326171875,0.2746862769126892,0.5163140296936035,-0.20512530207633972
1772796811103086300,4.13708642578125,0.3715582489967346,0.5099837183952332,-0.3896050453186035
1772796811113078300,4.147078369140625,0.39973369240760803,0.46524524688720703,-0.6218105554580688
1772796811123070200,4.1570703125,0.36477628350257874,0.34713608026504517,-0.798120379447937
1772796811133062400,4.1670625,0.3475475013256073,0.20432141423225403,-0.8073559999465942
1772796811143054300,4.177054443359375,0.36674776673316956,0.1418924331665039,-0.7277418971061707
1772796811153047300,4.18704736328125,0.3840316832065582,0.18965862691402435,-0.7060347199440002
1772796811163039200,4.197039306640625,0.3717573881149292,0.2745043933391571,-0.7619048953056335
1772796811173031400,4.207031494140625,0.36301904916763306,0.35276085138320923,-0.8536049723625183
1772796811183023000,4.217023193359375,0.4050368070602417,0.3957168459892273,-0.8645428419113159
1772796811193015300,4.227015380859375,0.465315580368042,0.21287910640239716,-0.7622079253196716
1772796811203008500,4.237008544921875,0.5180851817131042,-0.16432784497737885,-0.5805426836013794
1772796811213000200,4.247000244140625,0.5149088501930237,-0.8106778264045715,-0.3784928619861603
1772796811222992100,4.2569921875,0.4651687443256378,-1.3536025285720825,-0.21328039467334747
1772796811232984300,4.266984375,0.4240330159664154,-1.446042776107788,-0.1281452476978302
1772796811242976300,4.276976318359375,0.41586601734161377,-1.0039492845535278,-0.07526866346597672
1772796811252969200,4.28696923828125,0.43387672305107117,-0.045126885175704956,-0.020433371886610985
1772796811262961400,4.29696142578125,0.4932235777378082,0.9794850945472717,0.05542556941509247
1772796811272953300,4.306953369140625,0.5954476594924927,1.4867680072784424,0.23226478695869446
1772796811282945300,4.3169453125,0.6033207178115845,1.5465643405914307,0.29258623719215393
1772796811292937200,4.326937255859375,0.5251092314720154,1.1782723665237427,0.05843924731016159
1772796811302930400,4.336930419921875,0.47831395268440247,0.7202211618423462,-0.4101542532444
1772796811312922000,4.346922119140625,0.31858474016189575,0.23735621571540833,-1.1121437549591064
1772796811322914300,4.356914306640625,0.007205146364867687,0.1538873165845871,-2.007436990737915
1772796811332906200,4.36690625,-0.15574727952480316,0.6815606951713562,-2.656576633453369
1772796811342898400,4.3768984375,0.030924124643206596,1.2228405475616455,-2.419649124145508
1772796811352891100,4.38689111328125,0.3915664553642273,1.5345520973205566,-1.0619670152664185
1772796811362883300,4.39688330078125,0.5913710594177246,1.5475902557373047,0.22398608922958374
1772796811372875300,4.406875244140625,0.5284315347671509,1.5064215660095215,0.8430604934692383
1772796811382867500,4.416867431640625,0.29560649394989014,1.4728525876998901,0.9768968224525452
1772796811392859100,4.426859130859375,0.014896534383296967,1.1112309694290161,0.9735116958618164
1772796811402852400,4.436852294921875,-0.1899103969335556,0.35296931862831116,1.0262932777404785
1772796811412844300,4.44684423828125,-0.2919691205024719,-0.44722962379455566,1.0374301671981812
1772796811422836200,4.456836181640625,-0.35538342595100403,-1.105708122253418,0.9456568956375122
1772796811432828200,4.466828125,-0.3788602650165558,-1.5364594459533691,0.8474330902099609
1772796811442820400,4.4768203125,-0.3546307384967804,-1.63064444065094,0.8116149306297302
1772796811452813300,4.486813232421875,-0.2905518710613251,-1.4095230102539062,0.887027382850647
1772796811462805200,4.49680517578125,-0.1859840601682663,-1.140270709991455,1.0295689105987549
1772796811472797400,4.50679736328125,-0.08368884027004242,-0.9418693780899048,1.1991208791732788
1772796811482789400,4.516789306640625,-0.04170627146959305,-0.8056095242500305,1.300705909729004
1772796811492781300,4.52678125,-0.0670638233423233,-0.6876232028007507,1.3031911849975586
1772796811502774300,4.536774169921875,-0.13369715213775635,-0.5980682373046875,1.2226473093032837
1772796811512766500,4.546766357421875,-0.24595925211906433,-0.5142814517021179,1.0819506645202637
1772796811522758100,4.556758056640625,-0.3893325626850128,-0.39397358894348145,0.8987428545951843
1772796811532750300,4.566750244140625,-0.501062273979187,-0.24082452058792114,0.668927788734436
1772796811542742300,4.5767421875,-0.5474436283111572,-0.08974820375442505,0.42189598083496094
1772796811552735200,4.5867353515625,-0.5107628703117371,-0.04558686539530754,0.16209182143211365
1772796811562727200,4.59672705078125,-0.40041404962539673,-0.056160878390073776,-0.06738084554672241
1772796811572719400,4.60671923828125,-0.28213027119636536,-0.06336552649736404,-0.2666279077529907
1772796811582711300,4.616711181640625,-0.15276622772216797,-0.09328380972146988,-0.4208700358867645
1772796811592703200,4.626703125,-0.013418183661997318,-0.06907407194375992,-0.5481240749359131
1772796811602696200,4.6366962890625,0.10917928814888,0.04364090412855148,-0.6128526926040649
1772796811612688400,4.6466884765625,0.1731329709291458,0.20007018744945526,-0.6066040992736816
1772796811622680000,4.65668017578125,0.15146715939044952,0.25226089358329773,-0.6041643619537354
1772796811632672300,4.66667236328125,0.09068530797958374,0.17723886668682098,-0.5869273543357849
1772796811642664200,4.676664306640625,0.0648241937160492,0.04509233683347702,-0.5294668674468994
1772796811652657200,4.6866572265625,0.07392607629299164,-0.05707318335771561,-0.4809983968734741
1772796811662649300,4.6966494140625,0.13929882645606995,-0.14812496304512024,-0.4077521562576294
1772796811672641300,4.706641357421875,0.2249884307384491,-0.3106726109981537,-0.2585517466068268
1772796811682633500,4.716633544921875,0.2770763635635376,-0.5933226943016052,-0.04203520715236664
1772796811692626200,4.726626220703125,0.28649064898490906,-0.9434282183647156,0.1884360909461975
1772796811702618400,4.736618408203125,0.2302098125219345,-1.253861665725708,0.34258654713630676
1772796811712610300,4.7466103515625,0.1213991791009903,-1.3640512228012085,0.3456403911113739
1772796811722602200,4.756602294921875,-0.009594005532562733,-1.2192941904067993,0.24956202507019043
1772796811732594200,4.76659423828125,-0.06422556191682816,-0.6233197450637817,0.17462626099586487
1772796811742587400,4.77658740234375,0.008808959275484085,0.15793706476688385,0.14841315150260925
1772796811752579300,4.786579345703125,0.18874330818653107,0.5591045022010803,0.14905071258544922
1772796811762571300,4.7965712890625,0.3879903256893158,0.5323120951652527,0.15953297913074493
1772796811772563200,4.806563232421875,0.3196016848087311,-0.08472047746181488,0.36303073167800903
1772796811782555400,4.816555419921875,0.09521811455488205,-0.7073757648468018,0.5348120331764221
1772796811792548000,4.826548095703125,-0.014066828414797783,-0.649071991443634,0.13152770698070526
1772796811802540300,4.836540283203125,-0.20046953856945038,-0.33946508169174194,-1.0300073623657227
1772796811812532200,4.8465322265625,-0.5238372087478638,-0.0380684956908226,-2.4808661937713623
1772796811822524400,4.8565244140625,-0.8431147933006287,0.19844700396060944,-3.401283025741577
1772796811832516000,4.86651611328125,-0.8832411766052246,0.34459513425827026,-3.1992809772491455
1772796811842509300,4.87650927734375,-0.5875715613365173,0.36459097266197205,-1.8821443319320679
1772796811852501500,4.88650146484375,-0.28503382205963135,0.28319650888442993,-0.6122036576271057
1772796811862493200,4.8964931640625,-0.1378277689218521,0.3998992145061493,0.12584468722343445
1772796811872485400,4.9064853515625,-0.141797736287117,0.5678005814552307,0.29659032821655273
1772796811882477300,4.916477294921875,-0.19225211441516876,0.5321105718612671,0.1429525911808014
1772796811892470300,4.92647021484375,-0.3547435700893402,0.22425048053264618,-0.0408523865044117
1772796811902462200,4.936462158203125,-0.567314088344574,-0.29028379917144775,-0.06460891664028168
1772796811912454400,4.946454345703125,-0.6960366368293762,-0.6874391436576843,0.17193491756916046
1772796811922446300,4.9564462890625,-0.6926984786987305,-0.7844313979148865,0.5263105630874634
1772796811932438300,4.966438232421875,-0.5514963865280151,-0.7185370922088623,0.876838207244873
1772796811942431200,4.97643115234375,-0.3635557293891907,-0.6061974763870239,1.1448198556900024
1772796811952423400,4.98642333984375,-0.19318293035030365,-0.4744336009025574,1.3122570514678955
1772796811962415000,4.9964150390625,-0.10036163777112961,-0.39374497532844543,1.3726036548614502
1772796811972407300,5.0064072265625,-0.05939449742436409,-0.39814531803131104,1.3259106874465942
1772796811982399200,5.016399169921875,-0.08237683773040771,-0.4421384930610657,1.1768100261688232
1772796811992392200,5.02639208984375,-0.1652301847934723,-0.46721693873405457,0.9737085700035095
1772796812002384100,5.036384033203125,-0.24900202453136444,-0.4427810311317444,0.7381511926651001
1772796812012376300,5.046376220703125,-0.30415260791778564,-0.3748041093349457,0.5171892642974854
1772796812022368300,5.0563681640625,-0.3395569622516632,-0.2943483293056488,0.3401874601840973
1772796812032360200,5.066360107421875,-0.364934504032135,-0.15428735315799713,0.2160085290670395
1772796812042353400,5.076353515625,-0.3628108501434326,-0.025671962648630142,0.13494981825351715
1772796812052345300,5.086345458984375,-0.35162797570228577,-0.017688073217868805,0.08543287217617035
1772796812062337300,5.096337158203125,-0.3084619343280792,-0.06098473072052002,0.057932671159505844
1772796812072329200,5.1063291015625,-0.24171672761440277,-0.07046238332986832,0.027722837403416634
1772796812082321400,5.1163212890625,-0.1692657768726349,-0.04074065387248993,-0.03542393073439598
1772796812092314400,5.126314453125,-0.08739913254976273,-0.02817506343126297,-0.11469078809022903
1772796812102306300,5.136306396484375,-0.021555636078119278,-0.055602267384529114,-0.21304219961166382
1772796812112298200,5.14629833984375,-0.015030093491077423,-0.12225426733493805,-0.28694117069244385
1772796812122290400,5.15629052734375,-0.039115749299526215,-0.2189813256263733,-0.29600635170936584
1772796812132282400,5.166282470703125,-0.06638571619987488,-0.2756771147251129,-0.2500724196434021
1772796812142275300,5.176275390625,-0.10492817312479019,-0.2637842297554016,-0.15596307814121246
1772796812152267300,5.186267333984375,-0.14851824939250946,-0.2585551142692566,-0.02839607186615467
1772796812162259500,5.196259521484375,-0.15918895602226257,-0.28613340854644775,0.09587354958057404
1772796812172251400,5.20625146484375,-0.15554414689540863,-0.29758420586586,0.1820470541715622
1772796812182243600,5.21624365234375,-0.14296376705169678,-0.2570553421974182,0.19108262658119202
1772796812192236500,5.226236572265625,-0.10610002279281616,-0.14988520741462708,0.05433330312371254
1772796812202228500,5.236228515625,-0.03693177551031113,0.10787256807088852,-0.15440094470977783
1772796812212220400,5.246220458984375,0.06789663434028625,0.4742593467235565,-0.26647821068763733
1772796812222212600,5.256212646484375,0.18219435214996338,0.8545013666152954,-0.17007702589035034
1772796812232204500,5.26620458984375,0.2858254015445709,1.1526737213134766,0.050820477306842804
1772796812242197500,5.276197509765625,0.40082496404647827,1.1868326663970947,0.306967169046402
1772796812252189700,5.286189697265625,0.42697614431381226,0.9282745718955994,0.5413411259651184
1772796812262181600,5.296181640625,0.459644615650177,0.5017884969711304,0.7837830185890198
1772796812272173600,5.306173583984375,0.5059942603111267,0.28701335191726685,0.46338263154029846
1772796812282165500,5.31616552734375,0.3964995741844177,0.28387293219566345,-0.9139889478683472
1772796812292158700,5.32615869140625,0.2520316243171692,0.4287944436073303,-2.5917232036590576
1772796812302150400,5.336150390625,0.1949872523546219,0.5185731053352356,-3.343050956726074
1772796812312142600,5.346142578125,0.26672986149787903,0.5211736559867859,-2.731773853302002
1772796812322134500,5.356134521484375,0.4634857475757599,0.3988145887851715,-1.2165783643722534
1772796812332126700,5.366126708984375,0.6501366496086121,0.11721539497375488,0.49146926403045654
1772796812342119400,5.376119384765625,0.6730164289474487,-0.09886734187602997,1.429394006729126
1772796812352111600,5.386111572265625,0.5055326819419861,-0.37443286180496216,1.5252909660339355
1772796812362103600,5.396103515625,0.31972792744636536,-0.6181793212890625,1.2764259576797485
1772796812372095500,5.406095458984375,0.22426559031009674,-0.7283012866973877,0.9376095533370972
1772796812382087400,5.41608740234375,0.20310665667057037,-0.6800420880317688,0.6407155394554138
1772796812392080600,5.42608056640625,0.1948913335800171,-0.39331793785095215,0.4661884307861328
1772796812402072300,5.436072265625,0.2403201013803482,-0.032372795045375824,0.39959028363227844
1772796812412064500,5.446064453125,0.3298875391483307,0.3095209002494812,0.41669097542762756
1772796812422056400,5.456056396484375,0.36378127336502075,0.48362407088279724,0.4753168225288391
1772796812432048600,5.466048583984375,0.3449748456478119,0.4520057141780853,0.5570854544639587
1772796812442041600,5.47604150390625,0.29116490483283997,0.3585413098335266,0.5951154828071594
1772796812452033500,5.486033447265625,0.208987757563591,0.32282087206840515,0.568615198135376
1772796812462025700,5.496025634765625,0.1336224377155304,0.34118524193763733,0.5147058963775635
1772796812472017400,5.506017333984375,0.047617506235837936,0.33414116501808167,0.4524073302745819
1772796812482009600,5.516009521484375,-0.01550980657339096,0.2585831582546234,0.385197252035141
1772796812492002600,5.52600244140625,-0.03133217990398407,0.16481457650661469,0.3389328122138977
1772796812501994500,5.535994384765625,-0.014990335330367088,0.08428074419498444,0.2940891981124878
1772796812511986400,5.545986328125,0.03735809028148651,0.040295444428920746,0.2087026834487915
1772796812521978600,5.555978515625,0.11390380561351776,0.036378152668476105,0.07883550971746445
1772796812531970600,5.565970458984375,0.19528229534626007,0.039678603410720825,-0.08725599199533463
1772796812541963500,5.575963623046875,0.2713230550289154,0.1424805074930191,-0.30143246054649353
1772796812551955500,5.58595556640625,0.32582011818885803,0.3097565770149231,-0.4920996129512787
1772796812561947600,5.59594775390625,0.36131322383880615,0.40006783604621887,-0.6162825226783752
1772796812571939600,5.605939697265625,0.37049153447151184,0.39164480566978455,-0.659648597240448
1772796812581931500,5.615931640625,0.35192692279815674,0.292826771736145,-0.6181758046150208
1772796812591924700,5.6259248046875,0.33216309547424316,0.19307087361812592,-0.5314220190048218
1772796812601916700,5.635916748046875,0.3533433675765991,0.13169343769550323,-0.4162890315055847
1772796812611908400,5.645908447265625,0.38907021284103394,0.022598115727305412,-0.3009214401245117
1772796812621900500,5.655900634765625,0.40610185265541077,-0.15879133343696594,-0.19366472959518433
1772796812631892500,5.665892578125,0.40139123797416687,-0.33702927827835083,-0.12485849857330322
1772796812641885400,5.675885498046875,0.37939244508743286,-0.5238093733787537,-0.01834690012037754
1772796812651877600,5.685877685546875,0.29849839210510254,-0.6759485602378845,0.260688453912735
1772796812661869600,5.69586962890625,0.18737098574638367,-0.7262498140335083,0.6328010559082031
1772796812671861800,5.70586181640625,0.12497446686029434,-0.5843473076820374,0.9101817607879639
1772796812681854500,5.7158544921875,0.1486123502254486,-0.3729219138622284,0.9927945137023926
1772796812691846700,5.7258466796875,0.17310065031051636,-0.14710554480552673,0.8806559443473816
1772796812701838600,5.735838623046875,0.13951922953128815,0.08891943842172623,0.6597030162811279
1772796812711830500,5.74583056640625,0.1444101184606552,0.4043370485305786,0.5853886008262634
1772796812721822500,5.755822509765625,0.25045499205589294,0.7283428311347961,0.8003032207489014
1772796812731815700,5.765815673828125,0.370783269405365,0.9129065871238708,1.224517583847046
1772796812741807400,5.775807373046875,0.46651318669319153,0.6071428656578064,1.4482730627059937
1772796812751799600,5.785799560546875,0.5628213286399841,0.061166100203990936,0.8636054396629333
1772796812761791500,5.79579150390625,0.5362054109573364,-0.1983872354030609,-0.7938124537467957
1772796812771783700,5.80578369140625,0.3430343568325043,-0.03976855427026749,-2.7302310466766357
1772796812781776600,5.815776611328125,0.06482397019863129,0.2713071405887604,-3.7751810550689697
1772796812791768600,5.8257685546875,-0.03740013763308525,0.25832635164260864,-3.2883048057556152
1772796812801760500,5.835760498046875,0.04509972035884857,-0.2018963098526001,-1.6028083562850952
1772796812811752400,5.84575244140625,0.09903565794229507,-0.7086188793182373,0.20294082164764404
1772796812821744400,5.855744384765625,0.06796719878911972,-0.8446100950241089,1.3021756410598755
1772796812831737600,5.865737548828125,-0.01627551019191742,-0.6659204959869385,1.638039469718933
1772796812841729500,5.8757294921875,-0.11679699271917343,-0.4335068464279175,1.4666128158569336
1772796812851721500,5.885721435546875,-0.1601892113685608,-0.23807582259178162,1.1069406270980835
1772796812861713700,5.895713623046875,-0.15778979659080505,-0.1244901567697525,0.7787970304489136
1772796812871705600,5.90570556640625,-0.11647804826498032,-0.08561226725578308,0.6029969453811646
1772796812881698600,5.915698486328125,-0.057311318814754486,-0.10123495012521744,0.6192406415939331
1772796812891690500,5.9256904296875,-0.02929113246500492,-0.1727008819580078,0.7600587606430054
1772796812901682700,5.9356826171875,-0.03760834038257599,-0.2965068817138672,0.9064390659332275
1772796812911674600,5.945674560546875,-0.08279179781675339,-0.4113604724407196,0.9913246631622314
1772796812921666600,5.95566650390625,-0.13405558466911316,-0.4246029853820801,1.0110692977905273
1772796812931659500,5.965659423828125,-0.16309362649917603,-0.3531479835510254,1.0000689029693604
1772796812941651500,5.9756513671875,-0.19571992754936218,-0.25701743364334106,0.9750722050666809
1772796812951643400,5.985643310546875,-0.22631672024726868,-0.18649615347385406,0.9311825037002563
1772796812961635600,5.995635498046875,-0.25419649481773376,-0.1279975324869156,0.8544467687606812
1772796812971627500,6.00562744140625,-0.25941041111946106,-0.0923876091837883,0.7511515021324158
1772796812981620500,6.015620361328125,-0.2404833883047104,-0.06071016564965248,0.5888192057609558
1772796812991612400,6.0256123046875,-0.20001159608364105,-0.042917586863040924,0.33390411734580994
1772796813001604600,6.0356044921875,-0.14587195217609406,-0.07165361940860748,0.020457733422517776
1772796813011596500,6.045596435546875,-0.10444089025259018,-0.09506306797266006,-0.28049251437187195
1772796813021588500,6.05558837890625,-0.0723109021782875,-0.07292164862155914,-0.5182772278785706
1772796813031581700,6.065581787109375,-0.035787515342235565,-0.03198060393333435,-0.6717381477355957
1772796813041573600,6.07557373046875,0.0037328635808080435,0.04045107960700989,-0.733205258846283
1772796813051565600,6.085565673828125,0.06880294531583786,0.15538139641284943,-0.737323522567749
1772796813061557500,6.0955576171875,0.13654208183288574,0.25072696805000305,-0.7092466950416565
1772796813071549700,6.1055498046875,0.17221805453300476,0.25252223014831543,-0.6349924206733704
1772796813081542400,6.11554248046875,0.18333593010902405,0.16123811900615692,-0.47823190689086914
1772796813091534600,6.12553466796875,0.1745682656764984,-0.020186003297567368,-0.2543221116065979
1772796813101526500,6.135526611328125,0.13926005363464355,-0.2757582664489746,-0.01662236638367176
1772796813111518700,6.145518798828125,0.07609574496746063,-0.53664231300354,0.16803723573684692
1772796813121510400,6.155510498046875,0.019985225051641464,-0.7291716933250427,0.27685028314590454
1772796813131503600,6.165503662109375,-0.015867846086621284,-0.7952348589897156,0.38459327816963196
1772796813141495600,6.17549560546875,-0.08617360889911652,-0.8311749696731567,0.5236479043960571
1772796813151487500,6.185487548828125,-0.18110224604606628,-0.8769235610961914,0.6063560843467712
1772796813161479000,6.19547900390625,-0.2788810133934021,-0.8963748216629028,0.5507644414901733
1772796813171470800,6.205470947265625,-0.310042142868042,-0.7550196051597595,0.4371659755706787
1772796813181464000,6.215464111328125,-0.34397774934768677,-0.6029504537582397,0.2899504005908966
1772796813191455700,6.225455810546875,-0.38749805092811584,-0.5725363492965698,0.09516601264476776
1772796813201448000,6.235447998046875,-0.3943362534046173,-0.31231147050857544,-0.014914454892277718
1772796813211439900,6.24543994140625,-0.3212551176548004,0.20885024964809418,0.12304873764514923
1772796813221432000,6.25543212890625,-0.13800814747810364,0.6250460743904114,0.3232211172580719
1772796813231424800,6.2654248046875,0.07943656295537949,0.9205238223075867,0.18011347949504852
1772796813241417000,6.2754169921875,0.19712625443935394,1.1909977197647095,-0.7128825783729553
1772796813251409000,6.285408935546875,0.31856027245521545,1.381089687347412,-2.111647367477417
1772796813261400800,6.29540087890625,0.2610648572444916,1.287569284439087,-3.193159341812134
1772796813271392800,6.305392822265625,0.10584516078233719,0.8711983561515808,-3.13850736618042
1772796813281386000,6.315385986328125,0.06166928634047508,0.4634983539581299,-2.0706427097320557
1772796813291378000,6.3253779296875,0.11343155801296234,0.08951039612293243,-0.853367269039154
1772796813301369900,6.335369873046875,0.1404234766960144,-0.05404107645153999,-0.06032974645495415
1772796813311362000,6.345362060546875,0.15729832649230957,0.036685362458229065,0.25821948051452637
1772796813321354000,6.35535400390625,0.1396103799343109,0.1342114955186844,0.2798185646533966
1772796813331347000,6.365346923828125,0.12032030522823334,0.16791273653507233,0.14396141469478607
1772796813341339000,6.3753388671875,0.1360597461462021,0.08983726799488068,-0.047996003180742264
1772796813351331000,6.3853310546875,0.16888932883739471,0.003570292145013809,-0.2360130399465561
1772796813361322800,6.39532275390625,0.20519085228443146,0.018312230706214905,-0.3527389168739319
1772796813371315000,6.40531494140625,0.20548699796199799,0.09434974193572998,-0.29266253113746643
1772796813381308000,6.415307861328125,0.1583004891872406,0.15382467210292816,-0.12091118097305298
1772796813391299800,6.4252998046875,0.10423805564641953,0.20137646794319153,0.10472114384174347
1772796813401291800,6.435291748046875,0.07101821154356003,0.2875369191169739,0.33816763758659363
1772796813411284000,6.445283935546875,0.02356334775686264,0.4105560779571533,0.5269050598144531
1772796813421276000,6.45527587890625,-0.033388495445251465,0.5399396419525146,0.6693305373191833
1772796813431268900,6.465268798828125,-0.10550050437450409,0.6383506059646606,0.7820916771888733
1772796813441260800,6.4752607421875,-0.16942304372787476,0.6437941193580627,0.8668225407600403
1772796813451253000,6.4852529296875,-0.20925621688365936,0.6254529356956482,0.9079167246818542
1772796813461245000,6.495244873046875,-0.23239007592201233,0.6399036049842834,0.8946734070777893
1772796813471236900,6.50523681640625,-0.22616946697235107,0.6453825235366821,0.8296927809715271
1772796813481230000,6.51522998046875,-0.16907528042793274,0.6388896107673645,0.7047549486160278
1772796813491222000,6.525221923828125,-0.07377646118402481,0.6931741237640381,0.5236434936523438
1772796813501214000,6.5352138671875,0.025351982563734055,0.7679082751274109,0.2798430621623993
1772796813511206000,6.545205810546875,0.10761995613574982,0.8291394114494324,0.047750454396009445
1772796813521198000,6.555197998046875,0.14494457840919495,0.8145202398300171,-0.09778395295143127
1772796813531190800,6.565190673828125,0.12981195747852325,0.6876150369644165,-0.18280963599681854
1772796813541183000,6.575182861328125,0.09771600365638733,0.4758060574531555,-0.23380210995674133
1772796813551175000,6.5851748046875,0.09494951367378235,0.30274051427841187,-0.26994946599006653
1772796813561167000,6.5951669921875,0.1289830356836319,0.220391646027565,-0.28415507078170776
1772796813571158800,6.60515869140625,0.19357214868068695,0.16994471848011017,-0.2699367105960846
1772796813581152000,6.615152099609375,0.25591301918029785,0.13102492690086365,-0.25015535950660706
1772796813591144000,6.62514404296875,0.28369033336639404,0.05418633297085762,-0.23971925675868988
1772796813601135900,6.635135986328125,0.29554125666618347,-0.07163204252719879,-0.2589077651500702
1772796813611127800,6.6451279296875,0.27668073773384094,-0.18434181809425354,-0.31513187289237976
1772796813621120000,6.6551201171875,0.26155611872673035,-0.2482132762670517,-0.33320438861846924
1772796813631112700,6.66511279296875,0.2517852485179901,-0.3614162504673004,-0.25535860657691956
1772796813641105000,6.67510498046875,0.20675338804721832,-0.4631117582321167,-0.04271848127245903
1772796813651096800,6.685096923828125,0.1067492887377739,-0.364607036113739,0.27288690209388733
1772796813661089000,6.695089111328125,0.05147482827305794,0.018343012779951096,0.5796172618865967
1772796813671080700,6.705080810546875,0.013050742447376251,0.5299128293991089,0.8244866132736206
1772796813681074000,6.715073974609375,-0.009325736202299595,0.8904520273208618,1.0873337984085083
1772796813691066000,6.725066162109375,-0.08540159463882446,0.8175855278968811,1.4955910444259644
1772796813701057800,6.735057861328125,-0.2701646089553833,0.31120234727859497,2.018523931503296
1772796813711050000,6.745050048828125,-0.43864497542381287,-0.4404487907886505,2.2703230381011963
1772796813721042000,6.7550419921875,-0.4466733932495117,-0.8973482251167297,1.8213415145874023
1772796813731035000,6.765034912109375,-0.26231181621551514,-0.6565814018249512,0.38855811953544617
1772796813741026800,6.77502685546875,-0.009007155895233154,0.0746624767780304,-1.7886039018630981
1772796813751019000,6.78501904296875,-0.012942775152623653,0.4260021150112152,-3.3794124126434326
1772796813761011000,6.795010986328125,-0.19578774273395538,0.4562793970108032,-3.5531482696533203
1772796813771003000,6.8050029296875,-0.26522380113601685,0.190454363822937,-2.714743137359619
1772796813780995800,6.814995849609375,-0.11436255276203156,-0.16430121660232544,-1.5498168468475342
1772796813790988000,6.824988037109375,-0.009973561391234398,-0.24588662385940552,-0.6160212159156799
1772796813800980000,6.83497998046875,0.0021580688189715147,-0.21142834424972534,-0.16867248713970184
1772796813810972000,6.844971923828125,-0.05954231321811676,-0.3263522684574127,-0.006480385549366474
1772796813820964900,6.85496484375,-0.07764413952827454,-0.3877759277820587,0.1395293027162552
1772796813830957000,6.86495703125,-0.04306326061487198,-0.3494375944137573,0.3621184229850769
1772796813840948700,6.87494873046875,0.055536095052957535,-0.2232048511505127,0.643494188785553
1772796813850941000,6.88494091796875,0.1770593374967575,-0.07731688767671585,0.9065473675727844
1772796813860932900,6.894932861328125,0.25428178906440735,0.07102661579847336,1.0784703493118286
1772796813870925000,6.904925048828125,0.2477642148733139,0.11237911880016327,1.1633421182632446
1772796813880918000,6.91491796875,0.24087095260620117,0.04522703215479851,1.1848806142807007
1772796813890910000,6.924909912109375,0.22207729518413544,0.001690206117928028,1.074723243713379
1772796813900902100,6.934902099609375,0.22307920455932617,-0.037682075053453445,0.8871260285377502
1772796813910893800,6.944893798828125,0.17073610424995422,0.07997424900531769,0.7484530806541443
1772796813920886000,6.954885986328125,0.07824789732694626,0.0369209460914135,0.6273429989814758
1772796813930879000,6.96487890625,-0.0293925441801548,0.07566248625516891,0.6815103888511658
1772796813940871000,6.974870849609375,-0.1393015831708908,0.11524048447608948,0.7109620571136475
1772796813950862800,6.98486279296875,-0.21626080572605133,0.09590193629264832,0.6088213324546814
1772796813960855000,6.99485498046875,-0.23967452347278595,0.07937872409820557,0.4307006597518921
1772796813970847000,7.004846923828125,-0.2629457712173462,0.0868864357471466,0.2131771445274353
