time,seconds_elapsed,z,y,x
1772720922969548500,0.088548583984375,0,0,0
1772720922988144400,0.107144287109375,-0.0047855377197265625,0.019134826958179474,-0.0024252980947494507
1772720923006740200,0.125740234375,0.0009565353393554688,-0.010286182165145874,-0.017052240669727325
1772720923025336000,0.144336181640625,0.012645721435546875,0.0030212625861167908,-0.006999306380748749
1772720923043932200,0.16293212890625,0.005713462829589844,-0.011289946734905243,-0.005213513970375061
1772720923062528000,0.181528076171875,0.0024995803833007812,-0.004206374287605286,-0.0013029873371124268
1772720923081123800,0.200123779296875,-0.005986213684082031,0.015242181718349457,-0.019273310899734497
1772720923099719700,0.2187197265625,-0.0028753280639648438,-0.008907563984394073,-0.005474857985973358
1772720923118315500,0.2373154296875,0.009990692138671875,0.013086609542369843,-0.003836691379547119
1772720923136911400,0.255911376953125,0.0055370330810546875,-0.0036276504397392273,-0.00744687020778656
1772720923155507200,0.274507080078125,-0.015045166015625,0.002699032425880432,-0.0011971667408943176
1772720923174103000,0.29310302734375,0.012845039367675781,0.006135955452919006,0.001673959195613861
1772720923192699000,0.311698974609375,0.00004673004150390625,-0.0063871294260025024,-0.006362982094287872
1772720923211294700,0.330294677734375,-0.0046977996826171875,0.0005597248673439026,0.0036797598004341125
1772720923229890600,0.348890625,0.00325775146484375,-0.010920628905296326,-0.007108546793460846
1772720923248486700,0.367486572265625,0.00412750244140625,0.009399749338626862,0.009293906390666962
1772720923267082500,0.38608251953125,-0.0005092620849609375,-0.002468317747116089,-0.0063589587807655334
1772720923285678300,0.40467822265625,0.011176109313964844,-0.04077012836933136,0.014940015971660614
1772720923304274200,0.423274169921875,-0.013712882995605469,0.01366085559129715,-0.0074856579303741455
1772720923322870000,0.4418701171875,-0.0016279220581054688,-0.0030788779258728027,-0.010382384061813354
1772720923341465900,0.4604658203125,-0.00035190582275390625,0.0410749614238739,-0.01830548793077469
1772720923360061700,0.479061767578125,0.0006647109985351562,-0.017286725342273712,-0.018775753676891327
1772720923378657500,0.497657470703125,0.0006084442138671875,0.0025196969509124756,-0.0018482431769371033
1772720923397253400,0.51625341796875,0.00531768798828125,0.013795807957649231,0.008449174463748932
1772720923415849200,0.53484912109375,0.006344795227050781,-0.023758716881275177,0.01155371218919754
1772720923434445000,0.553445068359375,-0.0022563934326171875,0.0075841546058654785,0.012546390295028687
1772720923453041000,0.572041015625,0.009654998779296875,-0.010062508285045624,-0.001882314682006836
1772720923471636700,0.59063671875,0.0045185089111328125,0.013771787285804749,0.0028080567717552185
1772720923490232800,0.60923291015625,0.0033111572265625,0.011033080518245697,-0.004227049648761749
1772720923508828700,0.62782861328125,0.00078582763671875,-0.004345275461673737,0.005037054419517517
1772720923527424500,0.646424560546875,-0.007376670837402344,-0.0008734166622161865,-0.009344026446342468
1772720923546020000,0.66502001953125,-0.0014066696166992188,-0.010246194899082184,0.011013656854629517
1772720923564616200,0.6836162109375,0.015073776245117188,0.0027628764510154724,0.013309776782989502
1772720923583212000,0.7022119140625,0.0031042098999023438,0.01110636442899704,-0.011700578033924103
1772720923601808000,0.720807861328125,0.0019626617431640625,0.00011780858039855957,0.002929702401161194
1772720923620403700,0.73940380859375,-0.011003494262695312,-0.006891772150993347,0.02165844291448593
1772720923638999600,0.75799951171875,0.004283905029296875,0.0025900304317474365,-0.003522999584674835
1772720923657595400,0.776595458984375,-0.007660865783691406,0.011788494884967804,-0.014890022575855255
1772720923676191200,0.795191162109375,-0.0028591156005859375,0.019538693130016327,0.005583442747592926
1772720923694787000,0.813787109375,-0.0039234161376953125,-0.02085283398628235,0.0065030306577682495
1772720923713383000,0.8323828125,-0.005106925964355469,0.00449245423078537,0.0004516616463661194
1772720923731978800,0.850978759765625,-0.0027818679809570312,-0.00980234146118164,0.006219498813152313
1772720923750574600,0.86957470703125,-0.012200355529785156,-0.007220111787319183,-0.0021607428789138794
1772720923769170400,0.88817041015625,-0.007228851318359375,-0.017810262739658356,-0.004633404314517975
1772720923787766300,0.906766357421875,-0.005047798156738281,0.05046401917934418,-0.0008176565170288086
1772720923806362400,0.9253623046875,0.0070018768310546875,-0.04220403730869293,-0.0009584203362464905
1772720923824958200,0.943958251953125,-0.003582000732421875,0.005912125110626221,0.0036701932549476624
1772720923843554000,0.962553955078125,0.0013780593872070312,-0.012044213712215424,0.008320838212966919
1772720923862150000,0.98114990234375,0.0025472640991210938,-0.001902759075164795,-0.0012385249137878418
1772720923880745700,0.999745849609375,-0.005730628967285156,0.00026658177375793457,0.00001634657382965088
1772720923899341600,1.018341552734375,0.0013589859008789062,-0.005617521703243256,0.0021778419613838196
1772720923917937400,1.0369375,-0.0022745132446289062,0.0026764944195747375,0.002181120216846466
1772720923936533200,1.055533203125,-0.0020618438720703125,0.01324261724948883,-0.020175062119960785
1772720923955129000,1.074129150390625,-0.006777763366699219,-0.0057576000690460205,-0.021322093904018402
1772720923973725000,1.092724853515625,0.019130706787109375,-0.0033068060874938965,0.008270256221294403
1772720923992320800,1.11132080078125,0.003459930419921875,-0.004385799169540405,-0.0035375654697418213
1772720924010916600,1.12991650390625,-0.018907546997070312,-0.01730918139219284,-0.0014155656099319458
1772720924029512400,1.148512451171875,0.007305145263671875,0.010020419955253601,-0.011871084570884705
1772720924048108500,1.167108642578125,0.0036325454711914062,0.01574331521987915,0.0012138411402702332
1772720924066704400,1.185704345703125,0.0058841705322265625,-0.006790094077587128,0.001187354326248169
1772720924085300200,1.20430029296875,-0.0036249160766601562,-0.00664481520652771,-0.009594716131687164
1772720924103896000,1.22289599609375,0.009279251098632812,-0.004156090319156647,0.00927397608757019
1772720924122492000,1.241491943359375,-0.0015172958374023438,0.013248689472675323,-0.008363261818885803
1772720924141087700,1.260087646484375,-0.0073699951171875,0.0061191171407699585,-0.008124664425849915
1772720924159683600,1.27868359375,0.005695343017578125,-0.0010367855429649353,-0.013654150068759918
1772720924178279400,1.297279541015625,-0.003551483154296875,-0.01752948760986328,0.011214517056941986
1772720924196875300,1.315875244140625,-0.00807952880859375,0.007574416697025299,0.003986164927482605
1772720924215471000,1.33447119140625,0.0025987625122070312,-0.0031647905707359314,-0.011268064379692078
1772720924234067000,1.35306689453125,0.001434326171875,0.019331559538841248,-0.0054149329662323
1772720924252662800,1.371662841796875,0.0061893463134765625,-0.004395507276058197,0.0039733052253723145
1772720924271258600,1.390258544921875,0.013319015502929688,-0.0006871521472930908,0.00395318865776062
1772720924289854700,1.408854736328125,0.0048770904541015625,-0.0006805509328842163,0.013267524540424347
1772720924308450300,1.4274501953125,0.011932373046875,0.0049818530678749084,-0.002412065863609314
1772720924327046100,1.446046142578125,-0.0012254714965820312,0.0013308823108673096,-0.0011927857995033264
1772720924345642000,1.46464208984375,0.0044422149658203125,-0.010384008288383484,-0.015198297798633575
1772720924364237800,1.48323779296875,-0.001468658447265625,-0.007829137146472931,0.012175969779491425
1772720924382834000,1.501833984375,-0.006205558776855469,0.005213834345340729,0.01165904849767685
1772720924401429800,1.5204296875,0.01031494140625,-0.0020437315106391907,0.0019807815551757812
1772720924420025600,1.539025634765625,0.00311279296875,0.005026392638683319,-0.009765438735485077
1772720924438621400,1.557621337890625,0.0018749237060546875,-0.0012818649411201477,-0.004837952554225922
1772720924457217300,1.57621728515625,-0.006541252136230469,0.008113019168376923,-0.016451813280582428
1772720924475813000,1.594813232421875,0.004027366638183594,-0.002817794680595398,-0.008082397282123566
1772720924494409000,1.613408935546875,0.013503074645996094,-0.001318901777267456,-0.01252826303243637
1772720924513004800,1.6320048828125,0.002742767333984375,-0.0038524940609931946,0.0018451213836669922
1772720924531600600,1.6506005859375,0.0012798309326171875,0.001028694212436676,0.018189221620559692
1772720924550196500,1.669196533203125,0.009530067443847656,0.012484237551689148,-0.015123650431632996
1772720924568792300,1.687792236328125,-0.00815582275390625,-0.0006265118718147278,-0.0008607730269432068
1772720924587388200,1.70638818359375,-0.001140594482421875,0.01133185625076294,0.0037038326263427734
1772720924605984000,1.72498388671875,0.0027217864990234375,0.0005282983183860779,0.010662123560905457
1772720924624580000,1.743580078125,-0.007876396179199219,0.007714509963989258,-0.001285754144191742
1772720924643176000,1.762176025390625,0.0028162002563476562,0.0003725811839103699,-0.011797770857810974
1772720924661771800,1.780771728515625,0.00746917724609375,0.008375592529773712,0.0012219399213790894
1772720924680367600,1.79936767578125,0.0050830841064453125,-0.003522031009197235,0.008202515542507172
1772720924698963500,1.81796337890625,0.0013856887817382812,0.0013667494058609009,-0.00024256110191345215
1772720924717559300,1.836559326171875,-0.010483741760253906,-0.00788327306509018,-0.0012443065643310547
1772720924736155100,1.855155029296875,-0.0030975341796875,-0.006599128246307373,-0.0022880882024765015
1772720924754751000,1.8737509765625,-0.0031900405883789062,-0.009822152554988861,-0.0033051669597625732
1772720924773346800,1.892346923828125,-0.002101898193359375,0.0032186657190322876,-0.002187013626098633
1772720924791942700,1.910942626953125,0.021595001220703125,-0.0030177459120750427,0.010785020887851715
1772720924810538500,1.92953857421875,0.0023546218872070312,0.0017076432704925537,-0.0011112242937088013
1772720924829134300,1.94813427734375,0.000041961669921875,-0.013719432055950165,-0.0011175647377967834
1772720924847730200,1.966730224609375,-0.006999015808105469,0.008663184940814972,-0.005914144217967987
1772720924866326000,1.985325927734375,-0.0011997222900390625,-0.007772944867610931,-0.007140390574932098
1772720924884922000,2.003922119140625,0.007251739501953125,0.0008559897541999817,0.002446122467517853
1772720924903517700,2.022517578125,0.00605010986328125,0.0008515343070030212,-0.008056730031967163
1772720924922113500,2.041113525390625,0.008066177368164062,-0.0018373727798461914,-0.0007500946521759033
1772720924940709400,2.05970947265625,0.00203704833984375,-0.007589071989059448,-0.0020218640565872192
1772720924959305200,2.07830517578125,0.006674766540527344,-0.01564832031726837,0.00048595666885375977
1772720924977901300,2.0969013671875,-0.002880096435546875,-0.0021120309829711914,-0.004378966987133026
1772720924996497200,2.1154970703125,-0.017213821411132812,0.002682626247406006,0.00038836896419525146
1772720925015093000,2.134093017578125,0.0008258819580078125,0.0012476146221160889,0.0004907175898551941
1772720925033688800,2.152688720703125,-0.0063190460205078125,-0.0047084614634513855,0.0018103569746017456
1772720925052284700,2.17128466796875,-0.0052490234375,0.005938291549682617,-0.0019058436155319214
1772720925070880500,2.189880615234375,-0.0015249252319335938,0.0012783557176589966,0.0051034241914749146
1772720925089476400,2.208476318359375,-0.011002540588378906,0.005940571427345276,0.0004893019795417786
1772720925108072200,2.227072265625,0.007966995239257812,-0.003799155354499817,0.011035546660423279
1772720925126668000,2.24566796875,0.0019197463989257812,0.007918104529380798,-0.009366631507873535
1772720925145263900,2.264263916015625,-0.003948211669921875,-0.002778671681880951,-0.012671045958995819
1772720925163859700,2.282859619140625,-0.002758026123046875,0.004371769726276398,-0.006469614803791046
1772720925182455600,2.30145556640625,-0.0027265548706054688,0.006802558898925781,-0.001622721552848816
1772720925201051400,2.320051513671875,0.005440711975097656,0.0031917840242385864,0.0030677244067192078
1772720925219647200,2.338647216796875,-0.006267547607421875,0.004271276295185089,0.007730215787887573
1772720925238243000,2.3572431640625,-0.008296966552734375,-0.0018705949187278748,0.000429496169090271
1772720925256839200,2.375839111328125,0.003429412841796875,0.011208854615688324,0.0029453039169311523
1772720925275435000,2.39443505859375,0.01268768310546875,0.004972107708454132,0.007516682147979736
1772720925294030800,2.41303076171875,-0.012277603149414062,-0.004479765892028809,-0.00806359201669693
1772720925312626700,2.431626708984375,-0.0014410018920898438,0.01934065669775009,0.010905683040618896
1772720925331222500,2.450222412109375,-0.0037279129028320312,-0.024354591965675354,0.0011978745460510254
1772720925349818400,2.468818359375,0.0023965835571289062,0.017332591116428375,0.00814519077539444
1772720925368414200,2.487414306640625,0.0048465728759765625,0.003948435187339783,0.004514418542385101
1772720925387010000,2.506010009765625,0.008392333984375,-0.009127676486968994,-0.004890769720077515
1772720925405606000,2.52460595703125,-0.015139579772949219,0.01187991350889206,-0.0011896193027496338
1772720925424201700,2.54320166015625,0.0002613067626953125,-0.011818364262580872,0.0014636069536209106
1772720925442797600,2.561797607421875,0.0059604644775390625,-0.012875616550445557,-0.004357151687145233
1772720925461393400,2.580393310546875,0.007038116455078125,0.001165039837360382,0.006401225924491882
1772720925479989200,2.5989892578125,0.01419830322265625,-0.002567090094089508,0.00026260316371917725
1772720925498585000,2.617585205078125,0.0057277679443359375,-0.0023804157972335815,0.004922434687614441
1772720925517181000,2.636180908203125,-0.0026378631591796875,0.008313074707984924,-0.01039549708366394
1772720925535776800,2.65477685546875,-0.0037078857421875,-0.007084369659423828,-0.0018581598997116089
1772720925554372600,2.67337255859375,0.0010013580322265625,-0.011479713022708893,0.011024333536624908
1772720925572968400,2.691968505859375,-0.012875556945800781,-0.006778813898563385,0.0011951997876167297
1772720925591564300,2.710564208984375,0.006119728088378906,-0.006509833037853241,0.020098470151424408
1772720925610160000,2.72916015625,-0.0011234283447265625,-0.0007427781820297241,-0.014524415135383606
1772720925628756200,2.747756103515625,-0.0012025833129882812,-0.011401012539863586,0.007259368896484375
1772720925647352000,2.76635205078125,-0.005927085876464844,0.008917264640331268,0.0014563649892807007
1772720925665948000,2.784947998046875,0.0069942474365234375,-0.009860590100288391,-0.00007494539022445679
1772720925684543700,2.803543701171875,-0.008237838745117188,-0.010762937366962433,0.0035721436142921448
1772720925703139600,2.8221396484375,-0.011434555053710938,-0.015298433601856232,0.0012132078409194946
1772720925721735400,2.8407353515625,0.004002571105957031,-0.0031622499227523804,-0.008303523063659668
1772720925740331300,2.859331298828125,0.01920318603515625,0.002682529389858246,0.0023290887475013733
1772720925758927000,2.877927001953125,0.005902290344238281,0.00043487548828125,-0.004778459668159485
1772720925777523000,2.89652294921875,-0.0023298263549804688,0.008392058312892914,-0.0012922659516334534
1772720925796118800,2.915118896484375,0.012041091918945312,0.0037657618522644043,0.010345160961151123
1772720925814714600,2.933714599609375,-0.004790306091308594,0.015452146530151367,-0.0006019026041030884
1772720925833310500,2.952310546875,0.0024290084838867188,-0.014298476278781891,-0.000674024224281311
1772720925851906300,2.97090625,-0.003650665283203125,0.000032685697078704834,-0.012603148818016052
1772720925870502100,2.989502197265625,0.0045299530029296875,-0.012997247278690338,-0.005067072808742523
1772720925889098000,3.008097900390625,-0.014444351196289062,0.008375249803066254,0.009145021438598633
1772720925907694000,3.026694091796875,-0.0023784637451171875,0.010631121695041656,-0.010049402713775635
1772720925926290000,3.0452900390625,0.0059337615966796875,-0.004728659987449646,0.012289129197597504
1772720925944885800,3.0638857421875,-0.004791259765625,-0.0047462135553359985,-0.0006915554404258728
1772720925963481300,3.0824814453125,0.0034465789794921875,-0.006987348198890686,0.005410633981227875
1772720925982077200,3.1010771484375,0.019664764404296875,0.0013105496764183044,-0.009954698383808136
1772720926000673000,3.119673095703125,0.01815319061279297,0.004843659698963165,0.003042839467525482
1772720926019269000,3.13826904296875,0.0012197494506835938,-0.0034541934728622437,0.0028855055570602417
1772720926037865000,3.156864990234375,0.00586700439453125,0.007125355303287506,0.00421171635389328
1772720926056460800,3.175460693359375,0.006968498229980469,-0.002644263207912445,0.015971779823303223
1772720926075056600,3.194056640625,-0.0002422332763671875,-0.01072198897600174,0.004959486424922943
1772720926093652500,3.212652587890625,0.014998435974121094,-0.009161785244941711,-0.005736507475376129
1772720926112248300,3.231248291015625,0.011325836181640625,-0.005074687302112579,-0.008043520152568817
1772720926130844200,3.24984423828125,0.0015611648559570312,-0.003926180303096771,-0.013778947293758392
1772720926149440000,3.26843994140625,0.014117240905761719,0.017259210348129272,-0.004202641546726227
1772720926168035800,3.287035888671875,0.0091400146484375,-0.010158650577068329,0.005173183977603912
1772720926186631700,3.305631591796875,0.012560844421386719,0.0007124170660972595,0.0108504518866539
1772720926205227500,3.3242275390625,0.0025205612182617188,0.001784488558769226,0.006119623780250549
1772720926223823400,3.3428232421875,0.00455474853515625,0.002974987030029297,-0.004462391138076782
1772720926242419200,3.361419189453125,0.010051727294921875,-0.019297271966934204,-0.004376158118247986
1772720926261015300,3.380015380859375,0.0037584304809570312,-0.015427596867084503,0.006546348333358765
1772720926279611100,3.398611083984375,0.02365589141845703,0.0033203065395355225,0.010005518794059753
1772720926298207000,3.41720703125,0.007913589477539062,-0.006133265793323517,-0.0008194893598556519
1772720926316802800,3.435802734375,0.020689964294433594,-0.007170714437961578,0.006276942789554596
1772720926335398700,3.454398681640625,0.0061435699462890625,-0.016697585582733154,-0.002228975296020508
1772720926353994500,3.472994384765625,0.02107715606689453,-0.0031629279255867004,0.0001791343092918396
1772720926372590300,3.49159033203125,0.013379096984863281,0.0073790475726127625,-0.004594184458255768
1772720926391186200,3.510186279296875,0.01760387420654297,-0.017262525856494904,-0.00559716671705246
1772720926409782000,3.528781982421875,0.014591217041015625,-0.003894321620464325,-0.0030623450875282288
1772720926428377900,3.5473779296875,0.030521392822265625,-0.006273351609706879,-0.0030899420380592346
1772720926446974000,3.565973876953125,0.012041091918945312,-0.010653868317604065,-0.006815195083618164
1772720926465569800,3.58456982421875,0.026742935180664062,-0.007126644253730774,-0.007533766329288483
1772720926484165600,3.60316552734375,0.025033950805664062,-0.011702209711074829,-0.003927610814571381
1772720926502761500,3.621761474609375,0.014891624450683594,0.00021323561668395996,0.011289544403553009
1772720926521357300,3.640357421875,0.027280807495117188,0.005924791097640991,-0.012549616396427155
1772720926539953200,3.658953125,0.0241851806640625,-0.004720568656921387,-0.0006089359521865845
1772720926558549000,3.677549072265625,0.025815963745117188,0.011510945856571198,0.006305515766143799
1772720926577145000,3.69614501953125,0.01696491241455078,-0.009609125554561615,0.014148838818073273
1772720926595741000,3.714740966796875,0.01995563507080078,0.011566929519176483,0.017387770116329193
1772720926614336800,3.733336669921875,0.020491600036621094,-0.005075216293334961,-0.004188865423202515
1772720926632932600,3.7519326171875,0.026795387268066406,0.006776869297027588,-0.0005990192294120789
1772720926651528400,3.770528564453125,0.036655426025390625,-0.021644070744514465,0.004064977169036865
1772720926670124500,3.78912451171875,0.02032756805419922,0.003840416669845581,0.0075032711029052734
1772720926688720400,3.807720458984375,0.018304824829101562,0.003658197820186615,-0.005521073937416077
1772720926707316200,3.826316162109375,0.009209632873535156,-0.004756428301334381,-0.0008758753538131714
1772720926725912300,3.844912353515625,0.013199806213378906,0.000053845345973968506,0.00153408944606781
1772720926744508200,3.863508056640625,0.02213573455810547,-0.0032995790243148804,0.019157811999320984
1772720926763104000,3.88210400390625,0.033344268798828125,-0.010224506258964539,0.004681326448917389
1772720926781699800,3.900699951171875,0.01136016845703125,-0.007571056485176086,0.011468388140201569
1772720926800296000,3.9192958984375,0.02843475341796875,-0.013170413672924042,-0.005262337625026703
1772720926818891800,3.937891845703125,0.01796722412109375,-0.0058741495013237,-0.0039812177419662476
1772720926837487600,3.956487548828125,0.03155040740966797,-0.0009368062019348145,0.011304877698421478
1772720926856083500,3.97508349609375,0.021175384521484375,-0.01171979308128357,-0.006523549556732178
1772720926874679600,3.993679443359375,0.016847610473632812,-0.0055345818400382996,-0.0031386762857437134
1772720926893275400,4.012275390625,0.02407550811767578,0.006536476314067841,0.0015619844198226929
1772720926911871500,4.03087158203125,0.022477149963378906,0.0016788244247436523,0.00502379983663559
1772720926930467300,4.04946728515625,0.02637958526611328,-0.003188304603099823,0.0011950954794883728
1772720926949063200,4.068063232421875,0.014997482299804688,0.0004869326949119568,-0.004589341580867767
1772720926967659300,4.0866591796875,0.029758453369140625,0.0015863105654716492,0.0012140199542045593
1772720926986255000,4.105255126953125,0.026697158813476562,-0.007807724177837372,-0.001254357397556305
1772720927004851200,4.123851318359375,0.023519515991210938,-0.001770518720149994,-0.0015011653304100037
1772720927023447000,4.142447021484375,0.03342914581298828,-0.008761763572692871,-0.009724542498588562
1772720927042043100,4.161043212890625,0.02783489227294922,0.0007450282573699951,-0.0013089850544929504
1772720927060639000,4.179638916015625,0.03520774841308594,-0.018435847014188766,-0.009594827890396118
1772720927079234800,4.19823486328125,0.020261764526367188,0.0004647001624107361,-0.00591692328453064
1772720927097831000,4.216830810546875,0.019453048706054688,-0.010189667344093323,0.003265783190727234
1772720927116427000,4.235427001953125,0.025869369506835938,-0.006378017365932465,-0.0038109272718429565
1772720927135022800,4.25402294921875,0.012211799621582031,-0.010006546974182129,0.002165772020816803
1772720927153619000,4.272618896484375,0.022279739379882812,-0.011305175721645355,-0.012191243469715118
1772720927172214800,4.29121484375,0.011054039001464844,0.004195056855678558,-0.010816298425197601
1772720927190811000,4.309810791015625,0.012923240661621094,-0.002942122519016266,-0.0034349486231803894
1772720927209406700,4.32840673828125,0.02649688720703125,0.003231145441532135,0.011797301471233368
1772720927228002800,4.3470029296875,0.022150039672851562,-0.002724967896938324,-0.0002197474241256714
1772720927246598700,4.3655986328125,0.02506542205810547,0.0044095516204833984,-0.0002238750457763672
1772720927265194800,4.38419482421875,0.02311992645263672,-0.0027117058634757996,0.005645528435707092
1772720927283790800,4.402790771484375,0.012982368469238281,0.0009106099605560303,0.0016539841890335083
1772720927302386700,4.42138671875,0.011453628540039062,0.0005601495504379272,-0.005745649337768555
1772720927320982800,4.439982666015625,0.024997711181640625,0.0019193217158317566,0.009346365928649902
1772720927339579000,4.458578857421875,0.01599597930908203,-0.005244709551334381,-0.0014956817030906677
1772720927358175000,4.477175048828125,0.02256488800048828,-0.000776343047618866,-0.008775860071182251
1772720927376771000,4.49577099609375,0.025232315063476562,-0.016147054731845856,0.010160073637962341
1772720927395367000,4.514366943359375,0.01622295379638672,-0.0063974931836128235,0.002960696816444397
1772720927413963000,4.532962890625,0.02162933349609375,-0.00857631117105484,0.017114311456680298
1772720927432558800,4.551558837890625,0.0022869110107421875,0.0010758712887763977,0.013285920023918152
1772720927451155000,4.570155029296875,0.009114265441894531,0.00003618001937866211,0.007080346345901489
1772720927469751000,4.5887509765625,0.021419525146484375,-0.00023071467876434326,0.0011357292532920837
1772720927488347100,4.60734716796875,0.02780914306640625,-0.009952262043952942,-0.0023411735892295837
1772720927506943200,4.625943115234375,0.023400306701660156,-0.019109949469566345,0.01271914690732956
1772720927525539000,4.6445390625,0.01805877685546875,-0.003428049385547638,0.01221998780965805
1772720927544135400,4.663135498046875,0.009190559387207031,0.004556082189083099,-0.012733601033687592
1772720927562731300,4.681731201171875,0.018143653869628906,-0.006155386567115784,0.0005775168538093567
1772720927581327400,4.700327392578125,0.01878070831298828,-0.0077058300375938416,0.00160110741853714
1772720927599923500,4.71892333984375,0.020689964294433594,-0.005172595381736755,-0.005523346364498138
1772720927618519600,4.73751953125,0.024926185607910156,-0.014488078653812408,0.0026860088109970093
1772720927637115600,4.75611572265625,0.02059459686279297,-0.0025636479258537292,-0.005726344883441925
1772720927655711700,4.774711669921875,0.015110969543457031,0.0031406953930854797,0.013129062950611115
1772720927674307800,4.793307861328125,0.020377159118652344,-0.02418028935790062,-0.0034436509013175964
1772720927692904000,4.811904052734375,0.02338886260986328,0.007979683578014374,-0.0001744478940963745
1772720927711500000,4.8305,0.015515327453613281,-0.0016377493739128113,-0.004149869084358215
1772720927730096000,4.84909619140625,0.012475013732910156,-0.008636638522148132,0.011100426316261292
1772720927748692200,4.867692138671875,0.02349376678466797,-0.009574458003044128,-0.005592949688434601
1772720927767288300,4.886288330078125,0.0039348602294921875,-0.0037601441144943237,0.0002547800540924072
1772720927785884400,4.904884521484375,0.015376091003417969,0.006955377757549286,-0.006883740425109863
1772720927804480500,4.92348046875,0.017299652099609375,-0.01326664537191391,-0.010291919112205505
1772720927823076600,4.94207666015625,0.013237953186035156,-0.003521360456943512,-0.01122254878282547
1772720927841672700,4.960672607421875,0.010448455810546875,-0.01177726686000824,-0.006413064897060394
1772720927860269000,4.97926904296875,0.014573097229003906,-0.0044674351811409,-0.007645413279533386
1772720927878865200,4.997865234375,0.030623435974121094,0.007180817425251007,-0.001570388674736023
1772720927897461200,5.016461181640625,0.013397216796875,-0.020999357104301453,-0.0037586987018585205
1772720927916057300,5.035057373046875,0.0058193206787109375,0.00394420325756073,0.008027754724025726
1772720927934653400,5.0536533203125,0.019529342651367188,-0.00558694452047348,0.00785990059375763
1772720927953249800,5.072249755859375,0.018001556396484375,-0.006764836609363556,-0.0015582144260406494
1772720927971846000,5.090845947265625,0.028133392333984375,-0.009123779833316803,-0.012296237051486969
1772720927990442000,5.10944189453125,0.030989646911621094,-0.001913323998451233,-0.01328665018081665
1772720928009038300,5.128038330078125,0.023065567016601562,0.008395791053771973,-0.002428986132144928
1772720928027634400,5.146634521484375,0.01993274688720703,-0.0013058856129646301,0.005846589803695679
1772720928046230500,5.16523046875,0.008881568908691406,-0.008491143584251404,-0.00617159903049469
1772720928064827000,5.183826904296875,0.02133464813232422,0.009478360414505005,0.016285598278045654
1772720928083423000,5.202423095703125,0.01825714111328125,0.005199708044528961,-0.0017288923263549805
1772720928102019000,5.22101904296875,0.015362739562988281,-0.021444745361804962,0.001888088881969452
1772720928120615400,5.239615478515625,0.01126861572265625,0.022986330091953278,-0.012478582561016083
1772720928139211500,5.25821142578125,0.21060562133789062,-0.043341077864170074,0.01159658282995224
1772720928157807900,5.276807861328125,-0.24666786193847656,0.043400175869464874,-0.19708293676376343
1772720928176404000,5.295404052734375,-1.0837507247924805,0.08115656673908234,-0.24577832221984863
1772720928195000300,5.314000244140625,-0.622532844543457,-0.005841687321662903,0.035723574459552765
1772720928213596400,5.332596435546875,0.6534194946289062,-0.07000693678855896,0.2741954028606415
1772720928232192800,5.35119287109375,1.1413116455078125,-0.0873720645904541,0.19088676571846008
1772720928250788900,5.369788818359375,0.2939004898071289,0.011059150099754333,-0.10486019402742386
1772720928269385200,5.38838525390625,-0.8441286087036133,0.06060221046209335,-0.2652021646499634
1772720928287981600,5.406981689453125,-0.9382829666137695,0.03962945193052292,-0.09489545226097107
1772720928306577700,5.42557763671875,0.10690784454345703,-0.047053877264261246,0.20780175924301147
1772720928325174000,5.444174072265625,1.060591697692871,-0.08981391042470932,0.26670634746551514
1772720928343770000,5.46277001953125,0.7894191741943359,-0.030953574925661087,0.03338688984513283
1772720928362366500,5.481366455078125,-0.39234161376953125,0.0456722229719162,-0.2322673499584198
1772720928380962800,5.499962890625,-1.0476875305175781,0.06603316217660904,-0.21589279174804688
1772720928399559000,5.518558837890625,-0.18795394897460938,-0.02155214548110962,0.034810684621334076
1772720928418155300,5.5371552734375,0.10602378845214844,-0.017521917819976807,0.014498353004455566
1772720928436751600,5.555751708984375,0.04526519775390625,-0.01607009768486023,0.00468096137046814
1772720928455347700,5.57434765625,0.02526092529296875,-0.00985899567604065,0.012676656246185303
1772720928473944000,5.592944091796875,0.033720970153808594,-0.013369441032409668,0.008690916001796722
1772720928492540400,5.61154052734375,0.036118507385253906,-0.018995855003595352,0.016578413546085358
1772720928511136800,5.63013671875,0.03370952606201172,-0.011674143373966217,0.01596652716398239
1772720928529733000,5.648733154296875,0.03491020202636719,-0.013768196105957031,0.017687417566776276
1772720928548329500,5.66732958984375,0.026778221130371094,-0.013628661632537842,0.018069729208946228
1772720928566925800,5.68592578125,0.02591419219970703,-0.00872514396905899,0.019839294254779816
1772720928585522200,5.704522216796875,0.020429611206054688,-0.008608505129814148,0.015486694872379303
1772720928604118300,5.7231181640625,0.022088050842285156,-0.012055821716785431,0.020667001605033875
1772720928622714600,5.741714599609375,0.021360397338867188,-0.015432082116603851,0.022453606128692627
1772720928641311000,5.76031103515625,0.08551979064941406,-0.028187304735183716,0.08860854804515839
1772720928659907300,5.7789072265625,0.9128923416137695,-0.09139826893806458,0.2203567624092102
1772720928678503700,5.797503662109375,0.5618934631347656,-0.01958814635872841,-0.03954637050628662
1772720928697100000,5.81610009765625,-0.6840124130249023,0.05543658882379532,-0.26872187852859497
1772720928715696400,5.8346962890625,-1.070359230041504,0.0564713254570961,-0.16576631367206573
1772720928734292700,5.853292724609375,-0.176544189453125,-0.03212175890803337,0.14082254469394684
1772720928752889000,5.87188916015625,0.9317445755004883,-0.08464249968528748,0.27424687147140503
1772720928771485400,5.8904853515625,0.937769889831543,-0.03873298317193985,0.09055154770612717
1772720928790081800,5.909081787109375,-0.15269851684570312,0.03921448439359665,-0.19699758291244507
1772720928808678100,5.92767822265625,-1.0358085632324219,0.07019556313753128,-0.24465182423591614
1772720928827274800,5.946274658203125,-0.6955471038818359,0.013755589723587036,-0.004008874297142029
1772720928845871000,5.96487109375,0.4794883728027344,-0.06512010097503662,0.24189895391464233
1772720928864467500,5.983467529296875,1.0935611724853516,-0.0747264176607132,0.20978623628616333
1772720928883063800,6.002063720703125,0.41437435150146484,-0.0034971386194229126,-0.06697902828454971
1772720928901660200,6.02066015625,-0.28679370880126953,0.009995639324188232,-0.08019757270812988
1772720928920256800,6.0392568359375,-0.05195808410644531,-0.017428796738386154,0.02714143693447113
1772720928938853000,6.05785302734375,0.04150581359863281,-0.014760006219148636,0.022496603429317474
1772720928957449500,6.076449462890625,0.021389007568359375,-0.010889790952205658,0.01464053988456726
1772720928976045800,6.0950458984375,0.0031528472900390625,-0.0025214701890945435,0.008168727159500122
1772720928994642200,6.11364208984375,-0.015655517578125,-0.0038443729281425476,-0.001447834074497223
1772720929013238800,6.13223876953125,-0.030313491821289062,-0.005178071558475494,0.004351913928985596
1772720929031835100,6.150835205078125,-0.02927112579345703,-0.004127509891986847,0.005261018872261047
1772720929050431500,6.169431396484375,-0.03181171417236328,-0.011284559965133667,0.0038733631372451782
1772720929069028000,6.188028076171875,-0.03540515899658203,-0.001899726688861847,0.0013909786939620972
1772720929087624400,6.20662451171875,-0.026037216186523438,-0.005643934011459351,0.005828231573104858
1772720929106220800,6.225220703125,-0.018195152282714844,-0.005807913839817047,0.006716623902320862
1772720929124817400,6.2438173828125,-0.025768280029296875,-0.003607816994190216,0.006378896534442902
1772720929143413800,6.262413818359375,-0.022602081298828125,-0.00719296932220459,0.002590000629425049
1772720929162010000,6.281010009765625,-0.01834392547607422,-0.0002702102065086365,0.000027894973754882812
1772720929180606700,6.299606689453125,-0.016539573669433594,-0.005165420472621918,0.0035438016057014465
1772720929199203000,6.318203125,-0.01597118377685547,-0.004195183515548706,-0.0001607835292816162
1772720929217799700,6.336799560546875,-0.017775535583496094,-0.007863067090511322,-0.00019635260105133057
1772720929236396000,6.35539599609375,-0.011322021484375,-0.017240755259990692,0.008005239069461823
1772720929254992400,6.373992431640625,-0.02153491973876953,-0.011171407997608185,0.005302943289279938
1772720929273589000,6.392589111328125,-0.017312049865722656,-0.013309866189956665,-0.0007719174027442932
1772720929292185300,6.411185302734375,-0.017876625061035156,-0.00725565105676651,0.00030725449323654175
1772720929310782000,6.429781982421875,-0.0160675048828125,-0.004950560629367828,0.0003198757767677307
1772720929329378600,6.448378662109375,-0.015555381774902344,-0.012130551040172577,0.007173113524913788
1772720929347975000,6.466974853515625,-0.009196281433105469,-0.01433168351650238,0.011562295258045197
1772720929366571300,6.4855712890625,-0.012362480163574219,-0.019942685961723328,0.005324184894561768
1772720929385168000,6.50416796875,-0.015443801879882812,-0.016061775386333466,0.006239771842956543
1772720929403764500,6.522764404296875,-0.013774871826171875,-0.01108301430940628,0.005920417606830597
1772720929422360800,6.54136083984375,-0.01569080352783203,-0.007578417658805847,0.005592018365859985
1772720929440957400,6.55995751953125,-0.012836456298828125,-0.004216305911540985,0.005340293049812317
1772720929459553800,6.5785537109375,-0.014705657958984375,0.0014505833387374878,0.005012065172195435
1772720929478150400,6.597150390625,-0.010766029357910156,-0.0036875680088996887,0.006039716303348541
1772720929496747000,6.6157470703125,-0.010426521301269531,-0.00871102511882782,0.0034456178545951843
1772720929515343400,6.63434326171875,-0.0077457427978515625,-0.006449587643146515,0.003262653946876526
1772720929533940000,6.65293994140625,-0.012115478515625,-0.010139286518096924,0.0007149353623390198
1772720929552536600,6.67153662109375,-0.014025688171386719,-0.012486577033996582,0.002986304461956024
1772720929571133000,6.6901328125,-0.013521194458007812,-0.006657041609287262,-0.007734708487987518
1772720929589729500,6.7087294921875,-0.014170646667480469,-0.005583330988883972,-0.012234903872013092
1772720929608326000,6.727325927734375,-0.01603221893310547,-0.005675993859767914,-0.008188687264919281
1772720929626922500,6.745922607421875,-0.010853767395019531,-0.004660487174987793,0.0023801997303962708
1772720929645519000,6.76451904296875,-0.007004737854003906,-0.00487779825925827,-0.0013592764735221863
1772720929664115700,6.78311572265625,-0.012632369995117188,-0.010844863951206207,-0.002504102885723114
1772720929682712300,6.80171240234375,-0.0052127838134765625,-0.0037902146577835083,0.0010674893856048584
1772720929701308700,6.82030859375,-0.005019187927246094,-0.008674636483192444,-0.00013797730207443237
1772720929719905300,6.8389052734375,-0.014223098754882812,-0.009958922863006592,-0.00599806010723114
1772720929738502000,6.857501953125,-0.01606464385986328,-0.013501964509487152,-0.004597187042236328
1772720929757098200,6.87609814453125,-0.014373779296875,-0.023884974420070648,0.002663441002368927
1772720929775694800,6.89469482421875,-0.011601448059082031,-0.011796630918979645,0.0037096813321113586
1772720929794291500,6.91329150390625,-0.004197120666503906,-0.01061970740556717,0.0012513846158981323
1772720929812888000,6.93188818359375,-0.0029382705688476562,-0.002321891486644745,-0.004663027822971344
1772720929831484700,6.950484619140625,-0.006329536437988281,-0.01308584213256836,-0.0011416152119636536
1772720929850081300,6.969081298828125,-0.0037851333618164062,-0.010611839592456818,-0.0011723414063453674
1772720929868677600,6.987677734375,-0.007206916809082031,-0.014197029173374176,0.0010992065072059631
1772720929887274200,7.006274169921875,-0.012827873229980469,-0.0164361409842968,0.00568544864654541
1772720929905870800,7.024870849609375,-0.012420654296875,-0.008123122155666351,-0.0014578551054000854
1772720929924467500,7.043467529296875,-0.013163566589355469,-0.012897022068500519,-0.009675972163677216
1772720929943064000,7.06206396484375,-0.006884574890136719,-0.012834399938583374,-0.002514950931072235
1772720929961660700,7.08066064453125,-0.007811546325683594,-0.01855285093188286,-0.00019472092390060425
1772720929980257300,7.09925732421875,-0.00635528564453125,-0.009992502629756927,0.002162337303161621
1772720929998854000,7.11785400390625,-0.0038299560546875,-0.011197268962860107,-0.0026088953018188477
1772720930017450500,7.136450439453125,-0.008288383483886719,-0.011214233934879303,-0.01079624891281128
1772720930036047000,7.155047119140625,-0.008011817932128906,-0.011219441890716553,-0.006970815360546112
1772720930054643700,7.173643798828125,-0.010059356689453125,-0.014669567346572876,-0.0056403204798698425
1772720930073240300,7.192240234375,-0.008586883544921875,-0.015651747584342957,0.0014984607696533203
1772720930091837000,7.2108369140625,-0.00943756103515625,-0.01785314455628395,0.005004473030567169
1772720930110433500,7.22943359375,-0.009103775024414062,-0.010556615889072418,-0.002250298857688904
1772720930129030000,7.24802978515625,-0.009958267211914062,-0.011810146272182465,-0.002350650727748871
1772720930147626800,7.266626708984375,-0.008452415466308594,-0.01042521744966507,0.0011407062411308289
1772720930166223400,7.285223388671875,-0.0035066604614257812,-0.011395074427127838,0.004505865275859833
1772720930184820000,7.303820068359375,-0.0023088455200195312,-0.012530989944934845,0.0019828006625175476
1772720930203416600,7.32241650390625,-0.006855964660644531,-0.009134285151958466,0.01008327305316925
1772720930222013200,7.34101318359375,-0.0066471099853515625,-0.007955975830554962,0.0014958232641220093
1772720930240609800,7.35960986328125,-0.008739471435546875,-0.0256921648979187,0.007341884076595306
1772720930259206400,7.378206298828125,-0.0037984848022460938,0.000661209225654602,0.003707312047481537
1772720930277803000,7.396802978515625,-0.0036334991455078125,0.0012947320938110352,-0.010532848536968231
1772720930296399600,7.415399658203125,0.0011568069458007812,-0.017735887318849564,-0.01028173416852951
1772720930314996500,7.43399658203125,-0.0023889541625976562,0.00458226352930069,0.0027702897787094116
1772720930333593000,7.452593017578125,0.0023975372314453125,-0.021634232252836227,-0.007832467555999756
1772720930352189700,7.471189697265625,-0.0023670196533203125,-0.0013680756092071533,-0.00547751784324646
1772720930370786300,7.489786376953125,-0.0022687911987304688,-0.013513922691345215,0.0027171075344085693
1772720930389383000,7.5083828125,-0.0034036636352539062,-0.011072315275669098,0.002696484327316284
1772720930407979500,7.5269794921875,-0.006800651550292969,0.009832598268985748,-0.008070811629295349
1772720930426576400,7.545576416015625,-0.00655364990234375,-0.013091079890727997,-0.0020654425024986267
1772720930445173000,7.564173095703125,-0.007512092590332031,0.000003859400749206543,0.00025957077741622925
1772720930463769600,7.58276953125,-0.0060482025146484375,-0.0074340179562568665,-0.0010368749499320984
1772720930482366200,7.6013662109375,-0.000041961669921875,-0.014456823468208313,-0.002243541181087494
1772720930500962800,7.619962890625,-0.004782676696777344,-0.009595945477485657,0.004872649908065796
1772720930519559700,7.6385595703125,-0.006916999816894531,-0.013005897402763367,-0.0035355612635612488
1772720930538156300,7.65715625,-0.005530357360839844,-0.004872724413871765,0.001146659255027771
1772720930556753000,7.6757529296875,-0.0042057037353515625,-0.01909872516989708,-0.001155175268650055
1772720930575349500,7.694349609375,-0.0016918182373046875,-0.009472355246543884,0.0013053417205810547
1772720930593946400,7.7129462890625,0.0042095184326171875,-0.010773904621601105,-0.0022793710231781006
1772720930612543000,7.73154296875,0.0005426406860351562,-0.01438497006893158,-0.0001436471939086914
1772720930631139600,7.7501396484375,-0.006472587585449219,-0.008473671972751617,-0.00015707314014434814
1772720930649736400,7.768736328125,-0.007493019104003906,-0.017960913479328156,-0.0060872882604599
1772720930668333000,7.7873330078125,-0.006028175354003906,-0.0071298182010650635,0.005669444799423218
1772720930686930000,7.805929931640625,-0.0011997222900390625,-0.009641595184803009,0.0029381513595581055
1772720930705526500,7.824526611328125,0.0023517608642578125,-0.00746510922908783,-0.008921392261981964
1772720930724123100,7.843123046875,-0.0012331008911132812,-0.008836723864078522,0.007574699819087982
1772720930742720000,7.861719970703125,-0.0034847259521484375,-0.006638675928115845,0.0035943835973739624
1772720930761316600,7.880316650390625,-0.0045642852783203125,-0.010335631668567657,-0.0012291520833969116
1772720930779913200,7.898913330078125,-0.0020570755004882812,-0.01738937571644783,-0.0024565383791923523
1772720930798510000,7.917510009765625,0.0015430450439453125,-0.015977934002876282,0.0035095959901809692
1772720930817106700,7.936106689453125,0.0014753341674804688,-0.020558752119541168,-0.00018906593322753906
1772720930835703600,7.95470361328125,-0.002040863037109375,-0.014416001737117767,-0.0048599764704704285
1772720930854300200,7.973300048828125,-0.0030889511108398438,-0.009623833000659943,0.0011662617325782776
1772720930872896800,7.991896728515625,0.00162506103515625,-0.01681525632739067,-0.002340473234653473
1772720930891493600,8.01049365234375,-0.0053863525390625,-0.018987461924552917,-0.0022059082984924316
1772720930910090200,8.02909033203125,0.0005970001220703125,-0.015339039266109467,-0.002276308834552765
1772720930928687000,8.04768701171875,-0.002849578857421875,-0.014179565012454987,0.0070482343435287476
1772720930947283700,8.06628369140625,-0.0016164779663085938,-0.007061846554279327,-0.0003649219870567322
1772720930965880600,8.084880615234376,-0.002696990966796875,-0.007316939532756805,-0.003860563039779663
1772720930984477200,8.103477294921875,0.0020618438720703125,-0.005247287452220917,-0.002638094127178192
1772720931003074000,8.122073974609375,0.006642341613769531,-0.007762394845485687,-0.003803946077823639
1772720931021670700,8.140670654296875,0.0028963088989257812,-0.007911443710327148,0.0009308159351348877
1772720931040267500,8.159267578125,0.0016069412231445312,-0.009185165166854858,-0.0002157464623451233
1772720931058864400,8.177864501953126,0.00039958953857421875,-0.013981692492961884,-0.0014614686369895935
1772720931077461000,8.1964609375,-0.0031414031982421875,-0.016350485384464264,-0.007338002324104309
1772720931096057900,8.215057861328125,-0.0017786026000976562,-0.012713365256786346,-0.0013207271695137024
1772720931114654500,8.233654541015625,-0.005207061767578125,-0.013882972300052643,0.00559283047914505
1772720931133251300,8.252251220703124,-0.005092620849609375,-0.014979533851146698,0.006413541734218597
1772720931151848000,8.270847900390624,-0.004981040954589844,-0.006750375032424927,0.002578556537628174
1772720931170444800,8.28944482421875,0.0022249221801757812,-0.005744926631450653,-0.0010272040963172913
1772720931189041700,8.308041748046875,0.0009784698486328125,-0.008309856057167053,-0.004615373909473419
1772720931207638300,8.32663818359375,0.0009279251098632812,-0.02010442316532135,-0.004567183554172516
1772720931226235100,8.345235107421875,-0.0072574615478515625,-0.011637024581432343,-0.004500284790992737
1772720931244832000,8.36383203125,-0.007054328918457031,-0.007152393460273743,-0.003326825797557831
1772720931263428600,8.3824287109375,-0.005680084228515625,-0.006358906626701355,-0.0010352656245231628
1772720931282025500,8.401025390625,-0.005489349365234375,-0.007802918553352356,-0.00460381805896759
1772720931300622300,8.419622314453125,-0.0006170272827148438,-0.006940528750419617,-0.004564195871353149
1772720931319219200,8.43821923828125,-0.005260467529296875,-0.005964696407318115,0.00011231005191802979
1772720931337815800,8.45681591796875,-0.005064964294433594,-0.011997319757938385,-0.009423919022083282
1772720931356412700,8.47541259765625,-0.0037374496459960938,-0.0062339454889297485,0.004717089235782623
1772720931375009300,8.49400927734375,-0.0024156570434570312,-0.007578641176223755,0.004445299506187439
1772720931393606100,8.512606201171875,-0.005843162536621094,-0.010115496814250946,0.00418158620595932
1772720931412203000,8.531203125,-0.009097099304199219,-0.007853344082832336,0.0016067549586296082
1772720931430800000,8.5497998046875,-0.0075969696044921875,-0.009215660393238068,0.0014928579330444336
1772720931449396500,8.568396484375,-0.0084991455078125,-0.009545713663101196,-0.0034027546644210815
1772720931467993300,8.586993408203124,-0.0047245025634765625,-0.011938609182834625,-0.0032649263739585876
1772720931486590200,8.605590087890626,-0.009250640869140625,-0.016510628163814545,-0.004308134317398071
1772720931505187000,8.62418701171875,-0.012490272521972656,-0.016470208764076233,-0.0030112862586975098
1772720931523783700,8.64278369140625,-0.013270378112792969,-0.007053211331367493,-0.006470896303653717
1772720931542380500,8.661380615234375,-0.014023780822753906,-0.010779649019241333,-0.0015491023659706116
1772720931560977400,8.679977294921875,-0.015850067138671875,-0.01321016252040863,-0.007354468107223511
1772720931579574300,8.69857421875,-0.013009071350097656,-0.013221204280853271,-0.0025594010949134827
1772720931598171100,8.717171142578126,-0.012614250183105469,-0.009791962802410126,0.004440866410732269
1772720931616767700,8.735767822265625,-0.012232780456542969,-0.009936444461345673,-0.0028014853596687317
1772720931635364600,8.754364501953125,-0.010669708251953125,-0.007667906582355499,-0.006377272307872772
1772720931653961500,8.77296142578125,-0.016137123107910156,-0.004309751093387604,-0.0028472021222114563
1772720931672558300,8.791558349609375,-0.016757965087890625,-0.010553188621997833,-0.0018100887537002563
1772720931691155200,8.8101552734375,-0.013829231262207031,-0.011719591915607452,-0.0029998645186424255
1772720931709752000,8.828751953125,-0.0075435638427734375,-0.01063615083694458,-0.003976978361606598
1772720931728348700,8.8473486328125,-0.008487701416015625,-0.009576857089996338,-0.00040377676486968994
1772720931746945500,8.865945556640625,-0.008202552795410156,-0.007526062428951263,0.000642634928226471
1772720931765542400,8.88454248046875,-0.0067691802978515625,-0.006628260016441345,-0.002945259213447571
1772720931784139300,8.90313916015625,-0.010072708129882812,-0.013889960944652557,-0.0029616579413414
1772720931802736000,8.921736083984374,-0.014404296875,-0.012761086225509644,-0.004171259701251984
1772720931821333000,8.9403330078125,-0.012767791748046875,-0.012670308351516724,-0.007583267986774445
1772720931839929600,8.9589296875,-0.01004791259765625,-0.0033207014203071594,-0.00389225035905838
1772720931858526500,8.9775263671875,-0.007359504699707031,-0.0012711063027381897,-0.006209045648574829
1772720931877123300,8.996123291015625,-0.010642051696777344,-0.011012360453605652,-0.006089098751544952
1772720931895720200,9.01472021484375,-0.011463165283203125,-0.016959816217422485,-0.0025377273559570312
1772720931914317000,9.033317138671874,-0.0052394866943359375,-0.019118092954158783,-0.0047894492745399475
1772720931932914000,9.051913818359376,-0.009730339050292969,-0.015295594930648804,-0.000030606985092163086
1772720931951510800,9.0705107421875,-0.009383201599121094,-0.008407622575759888,-0.007070600986480713
1772720931970107600,9.089107666015625,-0.01724529266357422,-0.010974228382110596,-0.001152731478214264
1772720931988704500,9.10770458984375,-0.017887115478515625,-0.011079549789428711,-0.0000024437904357910156
1772720932007301400,9.12630126953125,-0.015018463134765625,-0.014619864523410797,-0.0013181939721107483
1772720932025898000,9.14489794921875,-0.010951042175292969,-0.012270838022232056,-0.000170096755027771
1772720932044494800,9.163494873046876,-0.01174163818359375,-0.01700253039598465,-0.003687523305416107
1772720932063091700,9.182091796875,-0.013662338256835938,-0.011073008179664612,-0.0036528408527374268
1772720932081688600,9.2006884765625,-0.013187408447265625,-0.004139542579650879,-0.0035259947180747986
1772720932100285400,9.219285400390625,-0.013909339904785156,-0.0019258111715316772,-0.0036320164799690247
1772720932118882300,9.23788232421875,-0.01695728302001953,-0.004486881196498871,-0.00010943412780761719
1772720932137479200,9.256479248046874,-0.009393692016601562,-0.012963101267814636,-0.004962734878063202
1772720932156076000,9.275075927734376,-0.011490821838378906,-0.009465374052524567,-0.008337363600730896
1772720932174673000,9.2936728515625,-0.014598846435546875,-0.004870280623435974,-0.0045877546072006226
1772720932193269500,9.31226953125,-0.010564804077148438,-0.00863620638847351,-0.006900660693645477
1772720932211866400,9.330866455078125,-0.009054183959960938,-0.013520851731300354,-0.004428058862686157
1772720932230463200,9.349463134765625,-0.012224197387695312,-0.013420000672340393,-0.007989399135112762
1772720932249060000,9.36806005859375,-0.013051986694335938,-0.011068470776081085,-0.0042335838079452515
1772720932267657000,9.386656982421876,-0.01728343963623047,-0.013531193137168884,-0.003013215959072113
1772720932286253800,9.40525390625,-0.019002914428710938,-0.015940435230731964,-0.0029902756214141846
1772720932304850700,9.4238505859375,-0.014882087707519531,-0.007696911692619324,0.0017585605382919312
1772720932323447600,9.442447509765625,-0.008543014526367188,-0.01498478651046753,-0.0007129088044166565
1772720932342044400,9.46104443359375,-0.0035724639892578125,-0.009134523570537567,-0.0018358603119850159
1772720932360641300,9.479641357421874,-0.0069408416748046875,-0.009159877896308899,-0.001835368573665619
1772720932379238100,9.498238037109376,-0.010237693786621094,-0.0023328661918640137,-0.004172720015048981
1772720932397835000,9.5168349609375,-0.01801586151123047,-0.0026323720812797546,-0.005397170782089233
1772720932416431900,9.535431884765625,-0.009241104125976562,-0.008744567632675171,-0.004090994596481323
1772720932435028500,9.554028564453125,-0.006638526916503906,-0.004264995455741882,-0.0017277970910072327
1772720932453625300,9.572625244140625,-0.009945869445800781,-0.004640050232410431,-0.006497979164123535
1772720932472222200,9.59122216796875,-0.018945693969726562,-0.005008995532989502,-0.0052299946546554565
1772720932490819000,9.609819091796876,-0.018415451049804688,-0.009867928922176361,-0.0040125176310539246
1772720932509416000,9.628416015625,-0.015491485595703125,-0.015750102698802948,0.004279643297195435
1772720932528012800,9.6470126953125,-0.012662887573242188,-0.014430887997150421,0.00529315322637558
1772720932546609700,9.665609619140625,-0.013377189636230469,-0.01435532420873642,0.00040590763092041016
1772720932565206500,9.68420654296875,-0.010580062866210938,-0.009702101349830627,0.0024497583508491516
1772720932583803400,9.702803466796874,-0.014892578125,-0.015550002455711365,-0.000013530254364013672
1772720932602400300,9.721400146484376,-0.0132598876953125,-0.016754627227783203,-0.0035404860973358154
1772720932620996900,9.739996826171875,-0.01168060302734375,-0.017845332622528076,-0.0012411102652549744
1772720932639594000,9.758593994140625,-0.008939743041992188,-0.01199454814195633,-0.005978576838970184
1772720932658190800,9.77719091796875,-0.013326644897460938,-0.011963829398155212,-0.0047568753361701965
1772720932676787700,9.79578759765625,-0.015256881713867188,-0.014239095151424408,-0.003573402762413025
1772720932695384300,9.81438427734375,-0.019475936889648438,-0.013032451272010803,-0.0024018511176109314
1772720932713981200,9.832981201171876,-0.015358924865722656,-0.012821264564990997,-0.0023979097604751587
1772720932732578000,9.851578125,-0.010180473327636719,-0.015122823417186737,-0.004643835127353668
1772720932751175000,9.8701748046875,-0.00746917724609375,-0.013852030038833618,-0.003519997000694275
1772720932769771800,9.888771728515625,-0.004885673522949219,-0.015017308294773102,-0.005875706672668457
1772720932788368600,9.90736865234375,-0.0070552825927734375,-0.016177892684936523,-0.011660583317279816
1772720932806965500,9.925965576171874,-0.012660980224609375,-0.013812340795993805,-0.0066573843359947205
1772720932825562400,9.944562255859376,-0.005202293395996094,-0.017289377748966217,-0.0029840394854545593
1772720932844159200,9.9631591796875,-0.009691238403320312,-0.01491798460483551,-0.003995805978775024
1772720932862756000,9.981756103515625,-0.010544776916503906,-0.012435980141162872,-0.0015238747000694275
1772720932881352700,10.000352783203125,-0.010231971740722656,-0.01590660959482193,0.000895187258720398
1772720932899949800,10.01894970703125,-0.0064601898193359375,-0.01466342806816101,-0.0038414224982261658
1772720932918546700,10.037546630859374,-0.008536338806152344,-0.015748046338558197,-0.003797963261604309
1772720932937143300,10.056143310546876,-0.008252143859863281,-0.01800258457660675,-0.0026267170906066895
1772720932955740200,10.074740234375,-0.0021333694458007812,-0.01552467793226242,-0.006116785109043121
1772720932974337000,10.0933369140625,-0.009038925170898438,-0.014295905828475952,-0.00019534677267074585
1772720932992934000,10.111933837890625,-0.0052089691162109375,-0.016635537147521973,0.0008572638034820557
1772720933011530800,10.13053076171875,-0.0038156509399414062,-0.018922053277492523,0.0031020790338516235
1772720933030127600,10.149127685546874,-0.0106658935546875,-0.014124445617198944,0.004100121557712555
1772720933048724500,10.167724365234376,-0.0067615509033203125,-0.02104247361421585,0.0004813149571418762
1772720933067321300,10.1863212890625,-0.00537872314453125,-0.014820627868175507,-0.005433961749076843
1772720933085918200,10.204918212890625,-0.004021644592285156,-0.016081713140010834,-0.002993665635585785
1772720933104515000,10.22351513671875,-0.005063056945800781,-0.013740554451942444,-0.007681794464588165
1772720933123111700,10.242111572265625,-0.0025205612182617188,-0.01378147304058075,-0.004163287580013275
1772720933141708500,10.26070849609375,-0.004708290100097656,-0.014968931674957275,-0.006561018526554108
1772720933160305400,10.279305419921876,-0.0068836212158203125,-0.009015202522277832,-0.0041530802845954895
1772720933178902300,10.29790234375,-0.007829666137695312,-0.015066765248775482,-0.003962703049182892
1772720933197499100,10.3164990234375,-0.0052738189697265625,-0.012620493769645691,-0.006146766245365143
1772720933216096000,10.335095947265625,-0.008646011352539062,-0.018474213778972626,-0.0014743208885192871
1772720933234692900,10.35369287109375,-0.010653495788574219,-0.014774754643440247,-0.0051182955503463745
1772720933253289700,10.372289794921874,-0.005649566650390625,-0.013512976467609406,-0.0026193857192993164
1772720933271886600,10.390886474609376,-0.006674766540527344,-0.009967871010303497,-0.0014436691999435425
1772720933290483500,10.4094833984375,-0.004118919372558594,-0.015846706926822662,-0.002664625644683838
1772720933309080300,10.428080322265625,-0.0005102157592773438,-0.012293167412281036,-0.0014844238758087158
1772720933327677200,10.44667724609375,-0.0039215087890625,-0.01345457136631012,-0.0028094351291656494
1772720933346273800,10.465273681640625,-0.003749847412109375,-0.01222945749759674,0.0007598251104354858
1772720933364870700,10.48387060546875,-0.0037012100219726562,-0.012181408703327179,-0.00518401712179184
1772720933383467500,10.502467529296876,-0.005890846252441406,-0.012229308485984802,-0.0028563588857650757
1772720933402064400,10.521064453125,-0.0009679794311523438,-0.013382382690906525,-0.0029044076800346375
1772720933420661200,10.5396611328125,-0.0043849945068359375,-0.009591512382030487,-0.007577858865261078
1772720933439258000,10.558258056640625,-0.00312042236328125,-0.013222567737102509,-0.0038735121488571167
1772720933457855000,10.57685498046875,-0.00067901611328125,-0.013220980763435364,-0.006061449646949768
1772720933476451800,10.595451904296874,-0.0006322860717773438,-0.013323977589607239,-0.004744023084640503
1772720933495048700,10.614048583984374,-0.0041561126708984375,-0.010996803641319275,-0.0035100653767585754
1772720933513645300,10.632645263671876,-0.006331443786621094,-0.013334587216377258,-0.0011164471507072449
1772720933532242200,10.6512421875,-0.0002574920654296875,-0.014448128640651703,-0.0035516545176506042
1772720933550839300,10.66983935546875,-0.0014410018920898438,-0.012060947716236115,-0.002353198826313019
1772720933569436000,10.688435791015625,-0.006134986877441406,-0.008646324276924133,-0.006935320794582367
1772720933588032800,10.70703271484375,-0.009381294250488281,-0.013355933129787445,-0.002103164792060852
1772720933606629600,10.725629638671874,-0.0020074844360351562,-0.013270631432533264,-0.0032423362135887146
1772720933625226500,10.7442265625,0.00039577484130859375,-0.01674243062734604,0.0003943592309951782
1772720933643823400,10.7628232421875,-0.0019474029541015625,-0.015431411564350128,0.0037952661514282227
1772720933662420200,10.781420166015625,-0.0019578933715820312,-0.007156580686569214,0.0001118779182434082
1772720933681017000,10.80001708984375,-0.00543975830078125,-0.009697593748569489,-0.002339698374271393
1772720933699614000,10.818614013671874,-0.012235641479492188,-0.011060163378715515,-0.005875885486602783
1772720933718210600,10.83721044921875,-0.0048084259033203125,-0.0157720148563385,-0.0033602267503738403
1772720933736807400,10.855807373046876,0.0000209808349609375,-0.01343187689781189,-0.003298915922641754
1772720933755404300,10.874404296875,-0.0011320114135742188,-0.011155471205711365,-0.003245130181312561
1772720933774001200,10.893001220703125,-0.0011501312255859375,-0.013531066477298737,0.0014341026544570923
1772720933792598000,10.911597900390625,0.0024127960205078125,-0.01987195760011673,-0.002360120415687561
1772720933811195000,10.93019482421875,0.17958736419677734,-0.049293629825115204,0.07090668380260468
1772720933829791700,10.948791748046874,-0.0027894973754882812,-0.0116945281624794,0.024953939020633698
1772720933848388600,10.967388671875,-0.16999530792236328,-0.007926255464553833,-0.01340629905462265
1772720933866985200,10.985985107421875,0.014354705810546875,-0.00045352429151535034,-0.029098473489284515
1772720933885582000,11.00458203125,0.015528678894042969,-0.008030101656913757,-0.01903923600912094
1772720933904179200,11.02317919921875,0.011776924133300781,-0.01359652727842331,0.0015957579016685486
