time,seconds_elapsed,z,y,x
1772720922978846500,0.097846435546875,-0.0006872228696011007,0.0006872228696011007,0.000305432389723137
1772720922997442300,0.1164423828125,-0.0009926552884280682,-0.000839939049910754,0.000305432389723137
1772720923016038100,0.1350380859375,0.00022907429956831038,0.00038179047987796366,-0.000610864779446274
1772720923034634200,0.15363427734375,-0.0006872228696011007,-0.0005345066892914474,0
1772720923053230000,0.17222998046875,-0.00007635809743078426,0.0009926552884280682,0
1772720923071826000,0.190825927734375,-0.0006872228696011007,-0.00022907429956831038,-0.000305432389723137
1772720923090421800,0.209421875,-0.0006872228696011007,0.00007635809743078426,0
1772720923109017600,0.228017578125,0.00022907429956831038,0.00007635809743078426,0.001221729558892548
1772720923127613400,0.246613525390625,-0.00007635809743078426,-0.000839939049910754,-0.000305432389723137
1772720923146209300,0.265209228515625,-0.0006872228696011007,-0.00022907429956831038,-0.0009162971982732415
1772720923164805000,0.28380517578125,-0.0019089524867013097,0.0009926552884280682,-0.000610864779446274
1772720923183401000,0.30240087890625,-0.0006872228696011007,0.00038179047987796366,-0.000610864779446274
1772720923201996800,0.320996826171875,-0.00038179047987796366,-0.00022907429956831038,0.001221729558892548
1772720923220592600,0.339592529296875,0.000839939049910754,-0.000839939049910754,-0.000610864779446274
1772720923239188500,0.3581884765625,0.00022907429956831038,-0.00022907429956831038,0.000610864779446274
1772720923257784600,0.37678466796875,-0.00007635809743078426,-0.0005345066892914474,0.000610864779446274
1772720923276380400,0.39538037109375,-0.0009926552884280682,0.00038179047987796366,-0.001221729558892548
1772720923294976300,0.413976318359375,-0.0012980876490473747,0.0006872228696011007,0.000305432389723137
1772720923313572000,0.432572021484375,-0.0009926552884280682,0.0006872228696011007,0.000610864779446274
1772720923332168000,0.45116796875,-0.00007635809743078426,0.00038179047987796366,-0.000305432389723137
1772720923350763800,0.469763671875,-0.00038179047987796366,-0.0011453714687377214,0
1772720923369359600,0.488359619140625,-0.00007635809743078426,0.00007635809743078426,0.000305432389723137
1772720923387955500,0.50695556640625,-0.00007635809743078426,0.00007635809743078426,-0.0009162971982732415
1772720923406551300,0.52555126953125,-0.0006872228696011007,0.00007635809743078426,-0.000305432389723137
1772720923425147100,0.544147216796875,-0.0006872228696011007,-0.000839939049910754,0.000305432389723137
1772720923443743000,0.562742919921875,-0.0006872228696011007,0.0009926552884280682,-0.0009162971982732415
1772720923462338800,0.5813388671875,-0.0006872228696011007,-0.00022907429956831038,-0.000305432389723137
1772720923480935000,0.599934814453125,-0.0009926552884280682,0.00007635809743078426,0
1772720923499530800,0.61853076171875,-0.0006872228696011007,-0.0005345066892914474,0.000305432389723137
1772720923518126600,0.637126708984375,-0.00038179047987796366,0.00007635809743078426,0.000305432389723137
1772720923536722200,0.65572216796875,-0.0006872228696011007,0.00007635809743078426,-0.000610864779446274
1772720923555318300,0.674318359375,-0.0006872228696011007,0.0009926552884280682,0.000610864779446274
1772720923573914000,0.6929140625,-0.0009926552884280682,0.00038179047987796366,-0.000305432389723137
1772720923592510000,0.711510009765625,-0.00007635809743078426,0.0006872228696011007,0
1772720923611105800,0.730105712890625,0.000839939049910754,-0.000839939049910754,0.000305432389723137
1772720923629701600,0.74870166015625,-0.00007635809743078426,0.0006872228696011007,0.000305432389723137
1772720923648297500,0.76729736328125,-0.0022143847309052944,0.0006872228696011007,0.000610864779446274
1772720923666893300,0.785893310546875,-0.0006872228696011007,0.00007635809743078426,0.000305432389723137
1772720923685489200,0.8044892578125,-0.00007635809743078426,-0.0005345066892914474,0
1772720923704085000,0.8230849609375,-0.0012980876490473747,0.00038179047987796366,0
1772720923722680800,0.841680908203125,-0.0009926552884280682,-0.00022907429956831038,-0.000305432389723137
1772720923741276700,0.860276611328125,-0.0009926552884280682,0.00007635809743078426,0
1772720923759872500,0.87887255859375,-0.0006872228696011007,0.00007635809743078426,0
1772720923778468400,0.89746826171875,-0.00038179047987796366,0.0012980876490473747,0.000610864779446274
1772720923797064400,0.916064453125,-0.0019089524867013097,-0.0011453714687377214,-0.0009162971982732415
1772720923815660300,0.934660400390625,-0.0006872228696011007,0.0006872228696011007,0.0009162971982732415
1772720923834256100,0.953256103515625,-0.0016035200096666813,-0.000839939049910754,-0.000610864779446274
1772720923852852000,0.97185205078125,-0.00038179047987796366,-0.00022907429956831038,-0.000610864779446274
1772720923871447800,0.99044775390625,-0.0009926552884280682,0.00038179047987796366,0.000610864779446274
1772720923890043600,1.009043701171875,-0.0012980876490473747,0.00007635809743078426,0.000305432389723137
1772720923908639500,1.027639404296875,-0.0006872228696011007,0.0006872228696011007,-0.000305432389723137
1772720923927235300,1.0462353515625,-0.0006872228696011007,-0.00022907429956831038,0.000610864779446274
1772720923945831200,1.0648310546875,-0.00038179047987796366,0.00007635809743078426,-0.000305432389723137
1772720923964427000,1.083427001953125,-0.0006872228696011007,-0.00022907429956831038,-0.000305432389723137
1772720923983022800,1.10202294921875,-0.0009926552884280682,-0.00022907429956831038,0
1772720924001618700,1.12061865234375,-0.00038179047987796366,0.00038179047987796366,0.000305432389723137
1772720924020214500,1.139214599609375,-0.0016035200096666813,-0.0005345066892914474,-0.000305432389723137
1772720924038810600,1.157810546875,-0.0009926552884280682,0.00007635809743078426,0
1772720924057406500,1.176406494140625,-0.0009926552884280682,-0.00022907429956831038,0
1772720924076002300,1.195002197265625,-0.0009926552884280682,-0.00022907429956831038,-0.000305432389723137
1772720924094598100,1.21359814453125,-0.0006872228696011007,-0.0005345066892914474,-0.000305432389723137
1772720924113194000,1.232194091796875,-0.0012980876490473747,0.0006872228696011007,0
1772720924131789800,1.250789794921875,-0.00038179047987796366,0.00007635809743078426,-0.000610864779446274
1772720924150385700,1.2693857421875,-0.00038179047987796366,-0.0005345066892914474,0
1772720924168981500,1.2879814453125,0.00022907429956831038,0.00007635809743078426,0
1772720924187577300,1.306577392578125,-0.00007635809743078426,0.0006872228696011007,0
1772720924206173200,1.325173095703125,-0.0012980876490473747,-0.00022907429956831038,0.000305432389723137
1772720924224769000,1.34376904296875,-0.00038179047987796366,0.00007635809743078426,-0.000305432389723137
1772720924243364900,1.36236474609375,-0.00007635809743078426,-0.00022907429956831038,-0.000305432389723137
1772720924261960700,1.380960693359375,-0.00038179047987796366,-0.00022907429956831038,0
1772720924280556800,1.399556884765625,-0.00038179047987796366,-0.00022907429956831038,0.000305432389723137
1772720924299152400,1.41815234375,-0.0016035200096666813,0.00007635809743078426,0.0009162971982732415
1772720924317748200,1.436748291015625,-0.0006872228696011007,0.00007635809743078426,0
1772720924336344000,1.455343994140625,-0.00038179047987796366,-0.00022907429956831038,0.000305432389723137
1772720924354940000,1.47393994140625,-0.00038179047987796366,0.00038179047987796366,0.000610864779446274
1772720924373536000,1.492535888671875,-0.0009926552884280682,-0.0005345066892914474,-0.000305432389723137
1772720924392131800,1.5111318359375,-0.00038179047987796366,0.00038179047987796366,-0.000610864779446274
1772720924410727700,1.529727783203125,-0.0006872228696011007,0.00038179047987796366,-0.000305432389723137
1772720924429323500,1.548323486328125,0.00022907429956831038,0.00038179047987796366,0.001221729558892548
1772720924447919400,1.56691943359375,-0.0009926552884280682,-0.00022907429956831038,-0.000305432389723137
1772720924466515200,1.58551513671875,-0.00007635809743078426,-0.00022907429956831038,0.001221729558892548
1772720924485111000,1.604111083984375,-0.00038179047987796366,-0.00022907429956831038,0.000305432389723137
1772720924503707000,1.622706787109375,-0.00038179047987796366,-0.00022907429956831038,0
1772720924522302700,1.641302734375,0.0005345066892914474,-0.0005345066892914474,0
1772720924540898600,1.659898681640625,-0.0006872228696011007,-0.00022907429956831038,0.000305432389723137
1772720924559494400,1.678494384765625,-0.0009926552884280682,0.00007635809743078426,0.000610864779446274
1772720924578090200,1.69709033203125,-0.0009926552884280682,0.00038179047987796366,0
1772720924596686000,1.71568603515625,-0.0009926552884280682,-0.00022907429956831038,-0.000610864779446274
1772720924615282000,1.734281982421875,0.0005345066892914474,0.0006872228696011007,0.001221729558892548
1772720924633878000,1.7528779296875,-0.00007635809743078426,-0.0005345066892914474,0.000610864779446274
1772720924652473900,1.771473876953125,-0.0009926552884280682,-0.0005345066892914474,0.001221729558892548
1772720924671069700,1.790069580078125,-0.0006872228696011007,0.00007635809743078426,-0.000305432389723137
1772720924689665500,1.80866552734375,-0.0009926552884280682,-0.00022907429956831038,0.000305432389723137
1772720924708261400,1.827261474609375,-0.0009926552884280682,0.00007635809743078426,-0.000305432389723137
1772720924726857200,1.845857177734375,-0.00038179047987796366,0.0006872228696011007,0.000610864779446274
1772720924745453000,1.864453125,-0.0009926552884280682,0.00038179047987796366,-0.000610864779446274
1772720924764049000,1.883048828125,0.00022907429956831038,0.00007635809743078426,0.000610864779446274
1772720924782644700,1.901644775390625,-0.00007635809743078426,0.00007635809743078426,0.000610864779446274
1772720924801240600,1.920240478515625,-0.00038179047987796366,0.00038179047987796366,0.000305432389723137
1772720924819836400,1.93883642578125,-0.00007635809743078426,0.0006872228696011007,0.000610864779446274
1772720924838432300,1.957432373046875,-0.00007635809743078426,0.00007635809743078426,0.000610864779446274
1772720924857028000,1.976028076171875,-0.00038179047987796366,0.00038179047987796366,-0.000610864779446274
1772720924875624000,1.9946240234375,-0.0009926552884280682,0.00038179047987796366,0
1772720924894220000,2.013219970703125,-0.0009926552884280682,0.00038179047987796366,0.000610864779446274
1772720924912815600,2.031815673828125,0.00022907429956831038,-0.00022907429956831038,0.000305432389723137
1772720924931411500,2.050411376953125,-0.0009926552884280682,0.00038179047987796366,0.000610864779446274
1772720924950007300,2.06900732421875,-0.0006872228696011007,0.00038179047987796366,0
1772720924968603100,2.08760302734375,-0.0006872228696011007,0.00007635809743078426,-0.000610864779446274
1772720924987199200,2.10619921875,-0.00038179047987796366,-0.00022907429956831038,0.000305432389723137
1772720925005795000,2.124795166015625,-0.0009926552884280682,0.00038179047987796366,0
1772720925024391000,2.143390869140625,-0.0006872228696011007,-0.00022907429956831038,-0.000305432389723137
1772720925042986800,2.16198681640625,-0.0016035200096666813,0.00038179047987796366,0
1772720925061582600,2.18058251953125,-0.00007635809743078426,0.00038179047987796366,0.000610864779446274
1772720925080178400,2.199178466796875,-0.0006872228696011007,0.00038179047987796366,0
1772720925098774300,2.217774169921875,-0.00007635809743078426,-0.0005345066892914474,-0.000610864779446274
1772720925117370000,2.2363701171875,-0.0012980876490473747,0.00038179047987796366,-0.000305432389723137
1772720925135966000,2.254966064453125,-0.0006872228696011007,0.00038179047987796366,0.000305432389723137
1772720925154561800,2.273561767578125,-0.00038179047987796366,0.00007635809743078426,0
1772720925173157600,2.29215771484375,-0.00038179047987796366,0.0006872228696011007,-0.0009162971982732415
1772720925191753500,2.31075341796875,-0.0006872228696011007,0.00007635809743078426,-0.000610864779446274
1772720925210349300,2.329349365234375,-0.0016035200096666813,0.00007635809743078426,0.000305432389723137
1772720925228945200,2.347945068359375,-0.00007635809743078426,-0.0005345066892914474,0.000305432389723137
1772720925247541200,2.366541259765625,-0.0006872228696011007,0.0009926552884280682,0
1772720925266137000,2.38513720703125,-0.00038179047987796366,0.00007635809743078426,0.000610864779446274
1772720925284733000,2.40373291015625,-0.00038179047987796366,0.0006872228696011007,0
1772720925303328800,2.422328857421875,0.00022907429956831038,0.00038179047987796366,-0.000610864779446274
1772720925321924600,2.440924560546875,-0.00007635809743078426,-0.0005345066892914474,0.000305432389723137
1772720925340520400,2.4595205078125,-0.0006872228696011007,0.00038179047987796366,0
1772720925359116300,2.4781162109375,-0.0016035200096666813,0.00007635809743078426,-0.000305432389723137
1772720925377712000,2.496712158203125,-0.0009926552884280682,-0.00022907429956831038,0
1772720925396308000,2.515307861328125,-0.00038179047987796366,-0.00022907429956831038,0.0009162971982732415
1772720925414903800,2.53390380859375,-0.0012980876490473747,0.0006872228696011007,-0.000305432389723137
1772720925433499600,2.552499755859375,-0.00038179047987796366,0.0009926552884280682,0.000610864779446274
1772720925452095500,2.571095458984375,-0.0009926552884280682,0.00007635809743078426,0
1772720925470691300,2.58969140625,-0.0016035200096666813,0.00007635809743078426,0.000610864779446274
1772720925489287200,2.608287109375,-0.0006872228696011007,0.00007635809743078426,0.000305432389723137
1772720925507883000,2.626883056640625,0.00022907429956831038,-0.000839939049910754,0.000610864779446274
1772720925526478800,2.645478759765625,-0.0009926552884280682,-0.00022907429956831038,0
1772720925545074700,2.66407470703125,-0.0006872228696011007,0.00007635809743078426,-0.000610864779446274
1772720925563670500,2.68267041015625,0.00022907429956831038,-0.0005345066892914474,0.0009162971982732415
1772720925582266400,2.701266357421875,-0.0006872228696011007,0.00007635809743078426,-0.000610864779446274
1772720925600862200,2.7198623046875,-0.0012980876490473747,-0.00022907429956831038,-0.000305432389723137
1772720925619458300,2.738458251953125,-0.00038179047987796366,0.0006872228696011007,0.000305432389723137
1772720925638054100,2.75705419921875,-0.0009926552884280682,0.0009926552884280682,0.000305432389723137
1772720925656650000,2.77564990234375,-0.0009926552884280682,-0.000839939049910754,-0.000610864779446274
1772720925675245800,2.794245849609375,0.00022907429956831038,0.00038179047987796366,-0.000305432389723137
1772720925693841700,2.812841552734375,-0.0009926552884280682,0.00038179047987796366,-0.000610864779446274
1772720925712437500,2.8314375,-0.00038179047987796366,0.00038179047987796366,0
1772720925731033300,2.850033447265625,-0.0006872228696011007,0.00038179047987796366,-0.000305432389723137
1772720925749629200,2.868629150390625,-0.00038179047987796366,0.00007635809743078426,0.000305432389723137
1772720925768225000,2.88722509765625,-0.0009926552884280682,0.00007635809743078426,0
1772720925786820900,2.90582080078125,-0.0012980876490473747,0.00007635809743078426,0.000305432389723137
1772720925805416700,2.924416748046875,-0.0009926552884280682,-0.00022907429956831038,-0.0009162971982732415
1772720925824012500,2.943012451171875,-0.00038179047987796366,0.00007635809743078426,0.000305432389723137
1772720925842608400,2.9616083984375,-0.00007635809743078426,0.00038179047987796366,0.000305432389723137
1772720925861204200,2.980204345703125,-0.00007635809743078426,-0.00022907429956831038,0.000305432389723137
1772720925879800000,2.998800048828125,-0.0006872228696011007,-0.0005345066892914474,-0.000305432389723137
1772720925898396000,3.01739599609375,-0.0006872228696011007,0.00007635809743078426,0
1772720925916992000,3.035991943359375,-0.00038179047987796366,-0.0005345066892914474,-0.000610864779446274
1772720925935587800,3.054587890625,-0.00007635809743078426,-0.00022907429956831038,0.000305432389723137
1772720925954183700,3.07318359375,0.00022907429956831038,0.00007635809743078426,0
1772720925972779300,3.091779296875,-0.0012980876490473747,0.00038179047987796366,0.000610864779446274
1772720925991375000,3.110375,-0.0009926552884280682,0.00007635809743078426,0.000610864779446274
1772720926009971200,3.12897119140625,-0.00038179047987796366,-0.00022907429956831038,0.000610864779446274
1772720926028567000,3.147567138671875,-0.00038179047987796366,-0.00022907429956831038,0.000610864779446274
1772720926047163000,3.166162841796875,-0.0009926552884280682,0.0006872228696011007,0.000610864779446274
1772720926065758700,3.1847587890625,-0.00038179047987796366,-0.00022907429956831038,0
1772720926084354600,3.2033544921875,-0.00038179047987796366,-0.0005345066892914474,-0.000305432389723137
1772720926102950400,3.221950439453125,-0.0006872228696011007,0.00007635809743078426,0.0009162971982732415
1772720926121546200,3.240546142578125,-0.0009926552884280682,0.00007635809743078426,0.000610864779446274
1772720926140142000,3.25914208984375,-0.0009926552884280682,-0.0005345066892914474,0.000610864779446274
1772720926158738000,3.277738037109375,-0.0006872228696011007,-0.000839939049910754,0.0009162971982732415
1772720926177333800,3.296333740234375,-0.00007635809743078426,-0.0005345066892914474,-0.000305432389723137
1772720926195929600,3.3149296875,0.0005345066892914474,0.0006872228696011007,0.000305432389723137
1772720926214525400,3.333525390625,-0.00007635809743078426,0.0006872228696011007,0.000305432389723137
1772720926233121300,3.352121337890625,-0.00038179047987796366,0.00038179047987796366,-0.000305432389723137
1772720926251717000,3.370717041015625,-0.0009926552884280682,0.0009926552884280682,0.000610864779446274
1772720926270313200,3.389313232421875,0.00022907429956831038,0.00007635809743078426,0.0009162971982732415
1772720926288909000,3.407908935546875,0.00022907429956831038,0.0006872228696011007,-0.000305432389723137
1772720926307505000,3.4265048828125,-0.0009926552884280682,-0.00022907429956831038,-0.000305432389723137
1772720926326100700,3.445100830078125,-0.00007635809743078426,0.00007635809743078426,0.000305432389723137
1772720926344696600,3.463696533203125,-0.0006872228696011007,-0.00022907429956831038,0.000305432389723137
1772720926363292400,3.48229248046875,0.0005345066892914474,-0.000839939049910754,0.000610864779446274
1772720926381888300,3.50088818359375,-0.0006872228696011007,-0.00022907429956831038,-0.000305432389723137
1772720926400484000,3.519484130859375,-0.00038179047987796366,0.00038179047987796366,-0.000305432389723137
1772720926419080000,3.538079833984375,0.0005345066892914474,0.00007635809743078426,0.000305432389723137
1772720926437676000,3.556676025390625,0.00022907429956831038,-0.00022907429956831038,-0.000610864779446274
1772720926456272000,3.57527197265625,0.00022907429956831038,0.00007635809743078426,0.000610864779446274
1772720926474867700,3.59386767578125,0.000839939049910754,-0.00022907429956831038,-0.000305432389723137
1772720926493463600,3.612463623046875,-0.0006872228696011007,0.00038179047987796366,0
1772720926512059400,3.631059326171875,0.00022907429956831038,-0.000839939049910754,0.000305432389723137
1772720926530655200,3.6496552734375,-0.00038179047987796366,0.00038179047987796366,0.000610864779446274
1772720926549251000,3.6682509765625,0.00022907429956831038,0.00007635809743078426,0
1772720926567847200,3.68684716796875,0.00022907429956831038,0.00038179047987796366,0.000305432389723137
1772720926586443000,3.705443115234375,0.00022907429956831038,0.0009926552884280682,0.0015271619195118546
1772720926605038800,3.724038818359375,-0.0009926552884280682,-0.000839939049910754,0.000305432389723137
1772720926623634700,3.742634765625,-0.00038179047987796366,0.00038179047987796366,0.000305432389723137
1772720926642230500,3.76123046875,0.0005345066892914474,0.00007635809743078426,0.001221729558892548
1772720926660826600,3.77982666015625,-0.00007635809743078426,0.0006872228696011007,-0.001221729558892548
1772720926679422500,3.79842236328125,0.00022907429956831038,0.00007635809743078426,-0.000610864779446274
1772720926698018300,3.817018310546875,0.0011453714687377214,-0.0005345066892914474,0.0009162971982732415
1772720926716614100,3.8356142578125,0.00022907429956831038,0.00007635809743078426,0.000610864779446274
1772720926735210200,3.854210205078125,0.0005345066892914474,0.00038179047987796366,0
1772720926753806000,3.87280615234375,0.00022907429956831038,-0.0005345066892914474,0.000305432389723137
1772720926772402000,3.89140185546875,0.00022907429956831038,-0.00022907429956831038,0.000305432389723137
1772720926790997800,3.909997802734375,0.0005345066892914474,-0.0005345066892914474,0
1772720926809593900,3.92859375,-0.0006872228696011007,-0.00022907429956831038,0.000610864779446274
1772720926828189700,3.947189697265625,-0.00007635809743078426,0.00007635809743078426,-0.000610864779446274
1772720926846785500,3.96578564453125,0.000839939049910754,0.00038179047987796366,0.0009162971982732415
1772720926865381600,3.984381591796875,0.000839939049910754,-0.0005345066892914474,0.000610864779446274
1772720926883977500,4.0029775390625,-0.00038179047987796366,0.00007635809743078426,0.000305432389723137
1772720926902573600,4.021573486328125,-0.00007635809743078426,0.0009926552884280682,0.000305432389723137
1772720926921169400,4.04016943359375,-0.00007635809743078426,-0.00022907429956831038,-0.000610864779446274
1772720926939765200,4.05876513671875,0.000839939049910754,-0.00022907429956831038,0.000305432389723137
1772720926958361300,4.077361328125,0.00022907429956831038,0.00038179047987796366,0.000610864779446274
1772720926976957200,4.095957275390625,0.000839939049910754,-0.00022907429956831038,0.000610864779446274
1772720926995553000,4.114552978515625,-0.00007635809743078426,-0.000839939049910754,0.000305432389723137
1772720927014149000,4.133149169921875,0.00022907429956831038,-0.0005345066892914474,-0.000610864779446274
1772720927032745000,4.151744873046875,0.0005345066892914474,0.00038179047987796366,0.000305432389723137
1772720927051341000,4.170341064453125,0.00022907429956831038,-0.0005345066892914474,0.000610864779446274
1772720927069937000,4.18893701171875,0.0005345066892914474,0.00007635809743078426,0.0015271619195118546
1772720927088533000,4.207532958984375,0.0011453714687377214,-0.0005345066892914474,0.0009162971982732415
1772720927107128800,4.22612890625,0.0005345066892914474,0.00007635809743078426,-0.000305432389723137
1772720927125725000,4.244724853515625,0.0011453714687377214,-0.00022907429956831038,0.001221729558892548
1772720927144320800,4.26332080078125,-0.00038179047987796366,0.00007635809743078426,0.000610864779446274
1772720927162916900,4.281916748046875,0.000839939049910754,0.00007635809743078426,0.0009162971982732415
1772720927181512700,4.3005126953125,0.0005345066892914474,-0.0005345066892914474,0.000305432389723137
1772720927200108800,4.31910888671875,-0.00007635809743078426,-0.00022907429956831038,0.000305432389723137
1772720927218705000,4.337704833984375,0.0005345066892914474,-0.00022907429956831038,0.000610864779446274
1772720927237300700,4.35630078125,-0.0006872228696011007,0.00038179047987796366,0
1772720927255896800,4.374896728515625,0.0011453714687377214,0.00007635809743078426,0.001832594396546483
1772720927274493000,4.393492919921875,0.000839939049910754,0.00007635809743078426,0
1772720927293088800,4.4120888671875,0.0005345066892914474,-0.000839939049910754,0.000305432389723137
1772720927311684900,4.430684814453125,0.0005345066892914474,0.00007635809743078426,0.000305432389723137
1772720927330281000,4.449281005859375,0.00022907429956831038,0.00038179047987796366,0.000610864779446274
1772720927348876800,4.467876708984375,0.001450803829357028,-0.0005345066892914474,0.001221729558892548
1772720927367473000,4.486472900390625,0.0011453714687377214,0.00007635809743078426,0.000610864779446274
1772720927386069000,4.505069091796875,0.0005345066892914474,0.00007635809743078426,0.0009162971982732415
1772720927404664800,4.523664794921875,0.000839939049910754,0.00007635809743078426,0.0015271619195118546
1772720927423261000,4.542260986328125,0.0005345066892914474,-0.0005345066892914474,0.000305432389723137
1772720927441857000,4.56085693359375,0.001450803829357028,0.0006872228696011007,0.000305432389723137
1772720927460453000,4.579453125,0.000839939049910754,-0.00022907429956831038,0.0009162971982732415
1772720927479049000,4.598049072265625,0.0011453714687377214,-0.0005345066892914474,0.000610864779446274
1772720927497645000,4.61664501953125,0.0005345066892914474,0.00007635809743078426,0
1772720927516241200,4.6352412109375,0.0011453714687377214,-0.0005345066892914474,0.0009162971982732415
1772720927534837200,4.653837158203125,0.000839939049910754,0.0009926552884280682,0.001832594396546483
1772720927553433300,4.672433349609375,0.0011453714687377214,-0.00022907429956831038,0.000610864779446274
1772720927572029400,4.691029541015625,0.001450803829357028,-0.000839939049910754,0.001832594396546483
1772720927590625500,4.70962548828125,0.000839939049910754,0.00038179047987796366,0.000305432389723137
1772720927609221600,4.7282216796875,0.0017562361899763346,0.00007635809743078426,0.000305432389723137
1772720927627817700,4.746817626953125,0.001450803829357028,0.00007635809743078426,0.001221729558892548
1772720927646413600,4.76541357421875,0.0011453714687377214,0.00007635809743078426,0.0009162971982732415
1772720927665010000,4.784010009765625,0.001450803829357028,0.00007635809743078426,0.0015271619195118546
1772720927683605800,4.802605712890625,0.000839939049910754,-0.0005345066892914474,0.000610864779446274
1772720927702202000,4.8212021484375,0.0011453714687377214,-0.0011453714687377214,0.000610864779446274
1772720927720798000,4.8397978515625,0.0011453714687377214,-0.000839939049910754,0.000610864779446274
1772720927739394300,4.858394287109375,0.0005345066892914474,0.0006872228696011007,0.0009162971982732415
1772720927757990400,4.876990478515625,0.000839939049910754,-0.00022907429956831038,0.001832594396546483
1772720927776586200,4.895586181640625,0.001450803829357028,0.00007635809743078426,0.0009162971982732415
1772720927795182600,4.9141826171875,0.0011453714687377214,-0.0005345066892914474,0.0009162971982732415
1772720927813778700,4.93277880859375,0.000839939049910754,0.00038179047987796366,0.000610864779446274
1772720927832374800,4.951374755859375,0.000839939049910754,0.00038179047987796366,0.0009162971982732415
1772720927850971000,4.969970947265625,0.0011453714687377214,-0.000839939049910754,0.000610864779446274
1772720927869567000,4.98856689453125,0.001450803829357028,0.00007635809743078426,0.000610864779446274
1772720927888163000,5.0071630859375,0.001450803829357028,0.00007635809743078426,0.000610864779446274
1772720927906759200,5.02575927734375,0.000839939049910754,0.00038179047987796366,0.000610864779446274
1772720927925355500,5.04435546875,0.0005345066892914474,-0.0005345066892914474,0.001221729558892548
1772720927943951600,5.06295166015625,0.001450803829357028,-0.00022907429956831038,0.0009162971982732415
1772720927962547700,5.081547607421875,0.0023671009112149477,-0.0011453714687377214,0.0015271619195118546
1772720927981144000,5.10014404296875,0.0011453714687377214,0.00038179047987796366,0.000305432389723137
1772720927999740200,5.118740234375,0.0005345066892914474,0.00038179047987796366,0.000610864779446274
1772720928018336300,5.137336181640625,0.0005345066892914474,0.00007635809743078426,0.0015271619195118546
1772720928036932600,5.1559326171875,0.0017562361899763346,-0.0011453714687377214,0.001832594396546483
1772720928055528700,5.17452880859375,0.0011453714687377214,0.00038179047987796366,0.0009162971982732415
1772720928074124800,5.193124755859375,0.000839939049910754,-0.0005345066892914474,0.001832594396546483
1772720928092721200,5.21172119140625,0.0011453714687377214,0.00038179047987796366,0.000610864779446274
1772720928111317200,5.230317138671875,0.002061668550595641,0.00007635809743078426,0.0009162971982732415
1772720928139211500,5.25821142578125,0.001450803829357028,0.0009926552884280682,0.0021380267571657896
1772720928157807900,5.276807861328125,0.0011453714687377214,-0.0005345066892914474,0.0009162971982732415
1772720928176404000,5.295404052734375,0.0017562361899763346,-0.000839939049910754,0.000305432389723137
1772720928195000300,5.314000244140625,0.001450803829357028,-0.000839939049910754,0.0015271619195118546
1772720928213596400,5.332596435546875,0.0017562361899763346,-0.000839939049910754,0.0009162971982732415
1772720928232192800,5.35119287109375,0.0011453714687377214,-0.0005345066892914474,0.000610864779446274
1772720928250788900,5.369788818359375,0.0017562361899763346,0.00007635809743078426,0.001221729558892548
1772720928269385200,5.38838525390625,0.001450803829357028,0.0006872228696011007,0.000610864779446274
1772720928287981600,5.406981689453125,0.0011453714687377214,0.00007635809743078426,0.000610864779446274
1772720928306577700,5.42557763671875,0.0005345066892914474,-0.0011453714687377214,0.0015271619195118546
1772720928325174000,5.444174072265625,0.0023671009112149477,-0.000839939049910754,0.0015271619195118546
1772720928343770000,5.46277001953125,0.002061668550595641,0.00038179047987796366,0.001832594396546483
1772720928362366500,5.481366455078125,0.0017562361899763346,-0.00022907429956831038,0.0009162971982732415
1772720928380962800,5.499962890625,0.0011453714687377214,-0.000839939049910754,0.000305432389723137
1772720928399559000,5.518558837890625,0.002061668550595641,0.00007635809743078426,0.001832594396546483
1772720928418155300,5.5371552734375,0.000839939049910754,-0.00022907429956831038,0.000305432389723137
1772720928436751600,5.555751708984375,0.001450803829357028,-0.00022907429956831038,0.0021380267571657896
1772720928455347700,5.57434765625,0.002672533504664898,-0.00022907429956831038,0.0015271619195118546
1772720928473944000,5.592944091796875,0.002061668550595641,-0.0005345066892914474,0.0009162971982732415
1772720928492540400,5.61154052734375,0.001450803829357028,-0.0005345066892914474,0.0021380267571657896
1772720928511136800,5.63013671875,0.0017562361899763346,-0.00022907429956831038,0.000610864779446274
1772720928529733000,5.648733154296875,0.001450803829357028,-0.0011453714687377214,0.001221729558892548
1772720928548329500,5.66732958984375,0.0023671009112149477,-0.0005345066892914474,0.0015271619195118546
1772720928566925800,5.68592578125,0.001450803829357028,0.00007635809743078426,0.001221729558892548
1772720928585522200,5.704522216796875,0.002061668550595641,-0.000839939049910754,0.0015271619195118546
1772720928604118300,5.7231181640625,0.002061668550595641,-0.0005345066892914474,0.0015271619195118546
1772720928622714600,5.741714599609375,0.001450803829357028,0.0012980876490473747,0.0015271619195118546
1772720928641311000,5.76031103515625,0.0011453714687377214,0.00007635809743078426,0.0021380267571657896
1772720928659907300,5.7789072265625,0.0017562361899763346,0.0006872228696011007,0.0009162971982732415
1772720928678503700,5.797503662109375,0.002672533504664898,-0.0005345066892914474,0.001221729558892548
1772720928697100000,5.81610009765625,0.0017562361899763346,0.0006872228696011007,0.001832594396546483
1772720928715696400,5.8346962890625,0.0017562361899763346,-0.00022907429956831038,0.002443459117785096
1772720928734292700,5.853292724609375,0.000839939049910754,-0.00022907429956831038,0.001832594396546483
1772720928752889000,5.87188916015625,0.0017562361899763346,-0.0011453714687377214,0.0009162971982732415
1772720928771485400,5.8904853515625,0.0017562361899763346,-0.000839939049910754,0.001221729558892548
1772720928790081800,5.909081787109375,0.002672533504664898,-0.0005345066892914474,0.0015271619195118546
1772720928808678100,5.92767822265625,0.000839939049910754,-0.00022907429956831038,0.000610864779446274
1772720928827274800,5.946274658203125,0.0011453714687377214,-0.00022907429956831038,0.0021380267571657896
1772720928845871000,5.96487109375,0.0011453714687377214,0.00038179047987796366,0.001832594396546483
1772720928864467500,5.983467529296875,0.002672533504664898,-0.0005345066892914474,0.0009162971982732415
1772720928883063800,6.002063720703125,0.001450803829357028,-0.000839939049910754,0.000610864779446274
1772720928901660200,6.02066015625,0.0023671009112149477,0.00007635809743078426,0.001832594396546483
1772720928920256800,6.0392568359375,0.0011453714687377214,-0.0005345066892914474,0.002443459117785096
1772720928938853000,6.05785302734375,0.001450803829357028,-0.000839939049910754,0.000610864779446274
1772720928957449500,6.076449462890625,0.0017562361899763346,-0.000839939049910754,0.0009162971982732415
1772720928976045800,6.0950458984375,0.002061668550595641,-0.0011453714687377214,0.0015271619195118546
1772720928994642200,6.11364208984375,0.0017562361899763346,0.00007635809743078426,0.001221729558892548
1772720929013238800,6.13223876953125,0.001450803829357028,-0.00022907429956831038,0.0015271619195118546
1772720929031835100,6.150835205078125,0.0017562361899763346,-0.00022907429956831038,0.0015271619195118546
1772720929050431500,6.169431396484375,0.0017562361899763346,-0.00022907429956831038,0.001832594396546483
1772720929069028000,6.188028076171875,0.0023671009112149477,0.00007635809743078426,0.002443459117785096
1772720929087624400,6.20662451171875,0.002061668550595641,-0.000839939049910754,0.0015271619195118546
1772720929106220800,6.225220703125,0.001450803829357028,0.00007635809743078426,0.0009162971982732415
1772720929124817400,6.2438173828125,0.0023671009112149477,-0.00022907429956831038,0.0021380267571657896
1772720929143413800,6.262413818359375,0.0017562361899763346,0.00007635809743078426,0.001221729558892548
1772720929162010000,6.281010009765625,0.0011453714687377214,-0.000839939049910754,0.001221729558892548
1772720929180606700,6.299606689453125,0.001450803829357028,0.00007635809743078426,0.001832594396546483
1772720929199203000,6.318203125,0.002061668550595641,-0.000839939049910754,0.0027488914784044027
1772720929217799700,6.336799560546875,0.0017562361899763346,-0.00022907429956831038,0.001832594396546483
1772720929236396000,6.35539599609375,0.0011453714687377214,0.00007635809743078426,0.001832594396546483
1772720929254992400,6.373992431640625,0.0011453714687377214,-0.000839939049910754,0.001832594396546483
1772720929273589000,6.392589111328125,0.0011453714687377214,-0.00022907429956831038,0.001221729558892548
1772720929292185300,6.411185302734375,0.0011453714687377214,-0.0005345066892914474,0.0015271619195118546
1772720929310782000,6.429781982421875,0.000839939049910754,0.00007635809743078426,0.0015271619195118546
1772720929329378600,6.448378662109375,0.002061668550595641,-0.000839939049910754,0.0015271619195118546
1772720929347975000,6.466974853515625,0.002061668550595641,0.00038179047987796366,0.001221729558892548
1772720929366571300,6.4855712890625,0.0017562361899763346,0.00038179047987796366,0.0015271619195118546
1772720929385168000,6.50416796875,0.0017562361899763346,-0.000839939049910754,0.001221729558892548
1772720929403764500,6.522764404296875,0.0023671009112149477,-0.000839939049910754,0.0015271619195118546
1772720929422360800,6.54136083984375,0.002061668550595641,-0.000839939049910754,0.0015271619195118546
1772720929440957400,6.55995751953125,0.0005345066892914474,0.00007635809743078426,0.002443459117785096
1772720929459553800,6.5785537109375,0.002061668550595641,-0.0011453714687377214,0.0015271619195118546
1772720929478150400,6.597150390625,0.002672533504664898,-0.0005345066892914474,0.0027488914784044027
1772720929496747000,6.6157470703125,0.0017562361899763346,-0.00022907429956831038,0.0030543238390237093
1772720929515343400,6.63434326171875,0.002672533504664898,0.00007635809743078426,0.0015271619195118546
1772720929533940000,6.65293994140625,0.0011453714687377214,0.00007635809743078426,0.0015271619195118546
1772720929552536600,6.67153662109375,0.0029779658652842045,-0.0005345066892914474,0.002443459117785096
1772720929571133000,6.6901328125,0.002061668550595641,-0.0011453714687377214,0.002443459117785096
1772720929589729500,6.7087294921875,0.002061668550595641,-0.000839939049910754,0.0009162971982732415
1772720929608326000,6.727325927734375,0.0017562361899763346,0.00038179047987796366,0.001832594396546483
1772720929626922500,6.745922607421875,0.0023671009112149477,-0.0011453714687377214,0.0021380267571657896
1772720929645519000,6.76451904296875,0.0023671009112149477,-0.0005345066892914474,0.0021380267571657896
1772720929664115700,6.78311572265625,0.0017562361899763346,0.00007635809743078426,0.0021380267571657896
1772720929682712300,6.80171240234375,0.0017562361899763346,0.00038179047987796366,0.001221729558892548
1772720929701308700,6.82030859375,0.001450803829357028,-0.00022907429956831038,0.001832594396546483
1772720929719905300,6.8389052734375,0.0017562361899763346,-0.00022907429956831038,0.0021380267571657896
1772720929738502000,6.857501953125,0.002061668550595641,0.00007635809743078426,0.0015271619195118546
1772720929757098200,6.87609814453125,0.0011453714687377214,0.00038179047987796366,0.001832594396546483
1772720929775694800,6.89469482421875,0.0023671009112149477,-0.00022907429956831038,0.001832594396546483
1772720929794291500,6.91329150390625,0.002061668550595641,-0.0005345066892914474,0.001221729558892548
1772720929812888000,6.93188818359375,0.001450803829357028,-0.0005345066892914474,0.0015271619195118546
1772720929831484700,6.950484619140625,0.0017562361899763346,-0.00022907429956831038,0.0015271619195118546
1772720929850081300,6.969081298828125,0.0017562361899763346,-0.0005345066892914474,0.001832594396546483
1772720929868677600,6.987677734375,0.002061668550595641,-0.000839939049910754,0.0021380267571657896
1772720929887274200,7.006274169921875,0.0011453714687377214,0.00007635809743078426,0.0027488914784044027
1772720929905870800,7.024870849609375,0.0023671009112149477,-0.00022907429956831038,0.0021380267571657896
1772720929924467500,7.043467529296875,0.0023671009112149477,-0.000839939049910754,0.0021380267571657896
1772720929943064000,7.06206396484375,0.002061668550595641,-0.00022907429956831038,0.001832594396546483
1772720929961660700,7.08066064453125,0.0011453714687377214,-0.000839939049910754,0.001832594396546483
1772720929980257300,7.09925732421875,0.002061668550595641,-0.0005345066892914474,0.0015271619195118546
1772720929998854000,7.11785400390625,0.002061668550595641,0.00007635809743078426,0.0015271619195118546
1772720930017450500,7.136450439453125,0.0023671009112149477,-0.000839939049910754,0.0021380267571657896
1772720930036047000,7.155047119140625,0.0023671009112149477,0.00007635809743078426,0.002443459117785096
1772720930054643700,7.173643798828125,0.001450803829357028,-0.000839939049910754,0.001832594396546483
1772720930073240300,7.192240234375,0.0011453714687377214,0.00007635809743078426,0.001221729558892548
1772720930091837000,7.2108369140625,0.0017562361899763346,-0.00022907429956831038,0.001832594396546483
1772720930110433500,7.22943359375,0.0017562361899763346,-0.000839939049910754,0.002443459117785096
1772720930129030000,7.24802978515625,0.0017562361899763346,-0.0011453714687377214,0.002443459117785096
1772720930147626800,7.266626708984375,0.001450803829357028,-0.0005345066892914474,0.001221729558892548
1772720930166223400,7.285223388671875,0.0011453714687377214,-0.00022907429956831038,0.0009162971982732415
1772720930184820000,7.303820068359375,0.002061668550595641,0.00007635809743078426,0.002443459117785096
1772720930203416600,7.32241650390625,0.000839939049910754,-0.000839939049910754,0.0021380267571657896
1772720930222013200,7.34101318359375,0.0023671009112149477,-0.000839939049910754,0.0015271619195118546
1772720930240609800,7.35960986328125,0.0023671009112149477,-0.00022907429956831038,0.001832594396546483
1772720930259206400,7.378206298828125,0.0005345066892914474,-0.0005345066892914474,0.0015271619195118546
1772720930277803000,7.396802978515625,0.000839939049910754,-0.0005345066892914474,0.001221729558892548
1772720930296399600,7.415399658203125,0.0017562361899763346,-0.000839939049910754,0.0030543238390237093
1772720930314996500,7.43399658203125,0.001450803829357028,-0.0005345066892914474,0.001832594396546483
1772720930333593000,7.452593017578125,0.0017562361899763346,0.00007635809743078426,0.0021380267571657896
1772720930352189700,7.471189697265625,0.001450803829357028,-0.0011453714687377214,0.001832594396546483
1772720930370786300,7.489786376953125,0.0023671009112149477,-0.00022907429956831038,0.0021380267571657896
1772720930389383000,7.5083828125,0.000839939049910754,0.00038179047987796366,0.001832594396546483
1772720930407979500,7.5269794921875,0.0023671009112149477,-0.0017562361899763346,0.001832594396546483
1772720930426576400,7.545576416015625,0.0029779658652842045,-0.00022907429956831038,0.001832594396546483
1772720930445173000,7.564173095703125,0.0005345066892914474,-0.000839939049910754,0.0009162971982732415
1772720930463769600,7.58276953125,0.0017562361899763346,-0.00022907429956831038,0.0021380267571657896
1772720930482366200,7.6013662109375,0.0017562361899763346,-0.00022907429956831038,0.001832594396546483
1772720930500962800,7.619962890625,0.0017562361899763346,0.00038179047987796366,0.0015271619195118546
1772720930519559700,7.6385595703125,0.0017562361899763346,-0.0011453714687377214,0.0009162971982732415
1772720930538156300,7.65715625,0.002061668550595641,-0.0011453714687377214,0.0021380267571657896
1772720930556753000,7.6757529296875,0.0023671009112149477,0.0009926552884280682,0.0021380267571657896
1772720930575349500,7.694349609375,0.0017562361899763346,0.0006872228696011007,0.001221729558892548
1772720930593946400,7.7129462890625,0.0017562361899763346,0.0006872228696011007,0.0027488914784044027
1772720930612543000,7.73154296875,0.0017562361899763346,-0.0011453714687377214,0.0027488914784044027
1772720930631139600,7.7501396484375,0.0023671009112149477,-0.00022907429956831038,0.002443459117785096
1772720930649736400,7.768736328125,0.001450803829357028,-0.000839939049910754,0.0027488914784044027
1772720930668333000,7.7873330078125,0.0017562361899763346,-0.00022907429956831038,0.001832594396546483
1772720930686930000,7.805929931640625,0.0017562361899763346,-0.000839939049910754,0.0021380267571657896
1772720930705526500,7.824526611328125,0.0011453714687377214,-0.0005345066892914474,0.0021380267571657896
1772720930724123100,7.843123046875,0.002672533504664898,-0.000839939049910754,0.002443459117785096
1772720930742720000,7.861719970703125,0.0029779658652842045,-0.0017562361899763346,0.0027488914784044027
1772720930761316600,7.880316650390625,0.002672533504664898,-0.0005345066892914474,0.0021380267571657896
1772720930779913200,7.898913330078125,0.0017562361899763346,0.00007635809743078426,0.0027488914784044027
1772720930798510000,7.917510009765625,0.002061668550595641,0.00038179047987796366,0.002443459117785096
1772720930817106700,7.936106689453125,0.001450803829357028,-0.0005345066892914474,0.0027488914784044027
1772720930835703600,7.95470361328125,0.0023671009112149477,-0.0005345066892914474,0.0027488914784044027
1772720930854300200,7.973300048828125,0.0017562361899763346,0.0006872228696011007,0.001832594396546483
1772720930872896800,7.991896728515625,0.002061668550595641,0.0006872228696011007,0.0030543238390237093
1772720930891493600,8.01049365234375,0.0017562361899763346,0.00007635809743078426,0.002443459117785096
1772720930910090200,8.02909033203125,0.0023671009112149477,-0.0005345066892914474,0.0027488914784044027
1772720930928687000,8.04768701171875,0.0017562361899763346,-0.00022907429956831038,0.0027488914784044027
1772720930947283700,8.06628369140625,0.0017562361899763346,-0.001450803829357028,0.0015271619195118546
1772720930965880600,8.084880615234376,0.0017562361899763346,-0.00022907429956831038,0.002443459117785096
1772720930984477200,8.103477294921875,0.0029779658652842045,-0.00022907429956831038,0.0027488914784044027
1772720931003074000,8.122073974609375,0.0023671009112149477,-0.00022907429956831038,0.0021380267571657896
1772720931021670700,8.140670654296875,0.002061668550595641,-0.0005345066892914474,0.0015271619195118546
1772720931040267500,8.159267578125,0.001450803829357028,-0.0005345066892914474,0.002443459117785096
1772720931058864400,8.177864501953126,0.0017562361899763346,-0.0005345066892914474,0.002443459117785096
1772720931077461000,8.1964609375,0.002061668550595641,-0.000839939049910754,0.0027488914784044027
1772720931096057900,8.215057861328125,0.0017562361899763346,-0.00022907429956831038,0.001832594396546483
1772720931114654500,8.233654541015625,0.0017562361899763346,0.00007635809743078426,0.0021380267571657896
1772720931133251300,8.252251220703124,0.0023671009112149477,-0.0005345066892914474,0.0021380267571657896
1772720931151848000,8.270847900390624,0.002061668550595641,-0.000839939049910754,0.002443459117785096
1772720931170444800,8.28944482421875,0.002061668550595641,-0.0005345066892914474,0.001832594396546483
1772720931189041700,8.308041748046875,0.001450803829357028,-0.000839939049910754,0.0021380267571657896
1772720931207638300,8.32663818359375,0.002061668550595641,-0.0005345066892914474,0.002443459117785096
1772720931226235100,8.345235107421875,0.001450803829357028,-0.00022907429956831038,0.0015271619195118546
1772720931244832000,8.36383203125,0.001450803829357028,-0.0011453714687377214,0.002443459117785096
1772720931263428600,8.3824287109375,0.0023671009112149477,-0.0005345066892914474,0.003359756199643016
1772720931282025500,8.401025390625,0.002672533504664898,-0.000839939049910754,0.0030543238390237093
1772720931300622300,8.419622314453125,0.0023671009112149477,-0.0005345066892914474,0.0030543238390237093
1772720931319219200,8.43821923828125,0.002061668550595641,-0.0011453714687377214,0.0021380267571657896
1772720931337815800,8.45681591796875,0.002061668550595641,-0.0011453714687377214,0.0021380267571657896
1772720931356412700,8.47541259765625,0.001450803829357028,-0.000839939049910754,0.0027488914784044027
1772720931375009300,8.49400927734375,0.001450803829357028,-0.0005345066892914474,0.0021380267571657896
1772720931393606100,8.512606201171875,0.0029779658652842045,-0.00022907429956831038,0.0021380267571657896
1772720931412203000,8.531203125,0.0017562361899763346,-0.00022907429956831038,0.0021380267571657896
1772720931430800000,8.5497998046875,0.0017562361899763346,-0.00022907429956831038,0.002443459117785096
1772720931449396500,8.568396484375,0.0029779658652842045,-0.000839939049910754,0.003359756199643016
1772720931467993300,8.586993408203124,0.002061668550595641,0.00007635809743078426,0.002443459117785096
1772720931486590200,8.605590087890626,0.001450803829357028,-0.00022907429956831038,0.0021380267571657896
1772720931505187000,8.62418701171875,0.0023671009112149477,-0.00022907429956831038,0.003359756199643016
1772720931523783700,8.64278369140625,0.0011453714687377214,-0.0005345066892914474,0.002443459117785096
1772720931542380500,8.661380615234375,0.0017562361899763346,0.00038179047987796366,0.0027488914784044027
1772720931560977400,8.679977294921875,0.0023671009112149477,0.00038179047987796366,0.002443459117785096
1772720931579574300,8.69857421875,0.001450803829357028,-0.00022907429956831038,0.0021380267571657896
1772720931598171100,8.717171142578126,0.002061668550595641,0.00007635809743078426,0.003359756199643016
1772720931616767700,8.735767822265625,0.0011453714687377214,-0.00022907429956831038,0.002443459117785096
1772720931635364600,8.754364501953125,0.0017562361899763346,-0.000839939049910754,0.0021380267571657896
1772720931653961500,8.77296142578125,0.002061668550595641,-0.0005345066892914474,0.0015271619195118546
1772720931672558300,8.791558349609375,0.0017562361899763346,-0.000839939049910754,0.002443459117785096
1772720931691155200,8.8101552734375,0.002061668550595641,-0.000839939049910754,0.001832594396546483
1772720931709752000,8.828751953125,0.002061668550595641,0.00038179047987796366,0.002443459117785096
1772720931728348700,8.8473486328125,0.0023671009112149477,-0.00022907429956831038,0.0030543238390237093
1772720931746945500,8.865945556640625,0.0017562361899763346,-0.0005345066892914474,0.003665188793092966
1772720931765542400,8.88454248046875,0.002672533504664898,-0.00022907429956831038,0.0030543238390237093
1772720931784139300,8.90313916015625,0.0023671009112149477,-0.001450803829357028,0.002443459117785096
1772720931802736000,8.921736083984374,0.001450803829357028,-0.0005345066892914474,0.0021380267571657896
1772720931821333000,8.9403330078125,0.001450803829357028,0.00038179047987796366,0.0021380267571657896
1772720931839929600,8.9589296875,0.0023671009112149477,-0.00022907429956831038,0.002443459117785096
1772720931858526500,8.9775263671875,0.001450803829357028,-0.000839939049910754,0.0021380267571657896
1772720931877123300,8.996123291015625,0.0023671009112149477,-0.0011453714687377214,0.003359756199643016
1772720931895720200,9.01472021484375,0.002061668550595641,-0.000839939049910754,0.0021380267571657896
1772720931914317000,9.033317138671874,0.001450803829357028,-0.00022907429956831038,0.001832594396546483
1772720931932914000,9.051913818359376,0.0023671009112149477,-0.0011453714687377214,0.001832594396546483
1772720931951510800,9.0705107421875,0.001450803829357028,-0.00022907429956831038,0.003359756199643016
1772720931970107600,9.089107666015625,0.0017562361899763346,-0.000839939049910754,0.0027488914784044027
1772720931988704500,9.10770458984375,0.0017562361899763346,-0.0005345066892914474,0.0027488914784044027
1772720932007301400,9.12630126953125,0.001450803829357028,-0.0011453714687377214,0.001832594396546483
1772720932025898000,9.14489794921875,0.0017562361899763346,-0.0005345066892914474,0.002443459117785096
1772720932044494800,9.163494873046876,0.00022907429956831038,-0.00022907429956831038,0.001832594396546483
1772720932063091700,9.182091796875,0.002061668550595641,0.00038179047987796366,0.002443459117785096
1772720932081688600,9.2006884765625,0.0017562361899763346,-0.00022907429956831038,0.002443459117785096
1772720932100285400,9.219285400390625,0.002061668550595641,-0.001450803829357028,0.0015271619195118546
1772720932118882300,9.23788232421875,0.0011453714687377214,-0.00022907429956831038,0.0021380267571657896
1772720932137479200,9.256479248046874,0.001450803829357028,-0.0011453714687377214,0.0027488914784044027
1772720932156076000,9.275075927734376,0.0017562361899763346,0.00007635809743078426,0.002443459117785096
1772720932174673000,9.2936728515625,0.0005345066892914474,-0.00022907429956831038,0.0021380267571657896
1772720932193269500,9.31226953125,0.002061668550595641,-0.0005345066892914474,0.0021380267571657896
1772720932211866400,9.330866455078125,0.001450803829357028,-0.000839939049910754,0.0030543238390237093
1772720932230463200,9.349463134765625,0.0011453714687377214,-0.000839939049910754,0.0021380267571657896
1772720932249060000,9.36806005859375,0.002061668550595641,-0.0005345066892914474,0.002443459117785096
1772720932267657000,9.386656982421876,0.0017562361899763346,-0.00022907429956831038,0.002443459117785096
1772720932286253800,9.40525390625,0.0017562361899763346,-0.0005345066892914474,0.0030543238390237093
1772720932304850700,9.4238505859375,0.002061668550595641,-0.00022907429956831038,0.0027488914784044027
1772720932323447600,9.442447509765625,0.001450803829357028,-0.0005345066892914474,0.003359756199643016
1772720932342044400,9.46104443359375,0.0017562361899763346,0.00007635809743078426,0.0030543238390237093
1772720932360641300,9.479641357421874,0.001450803829357028,0.00007635809743078426,0.0027488914784044027
1772720932379238100,9.498238037109376,0.0011453714687377214,-0.000839939049910754,0.0030543238390237093
1772720932397835000,9.5168349609375,0.001450803829357028,-0.0011453714687377214,0.001832594396546483
1772720932416431900,9.535431884765625,0.0017562361899763346,-0.0005345066892914474,0.001221729558892548
1772720932435028500,9.554028564453125,0.0023671009112149477,-0.000839939049910754,0.002443459117785096
1772720932453625300,9.572625244140625,0.0029779658652842045,-0.0011453714687377214,0.0027488914784044027
1772720932472222200,9.59122216796875,0.001450803829357028,-0.000839939049910754,0.0030543238390237093
1772720932490819000,9.609819091796876,0.0011453714687377214,-0.0011453714687377214,0.0021380267571657896
1772720932509416000,9.628416015625,0.001450803829357028,0.00007635809743078426,0.001832594396546483
1772720932528012800,9.6470126953125,0.002061668550595641,-0.00022907429956831038,0.002443459117785096
1772720932546609700,9.665609619140625,0.0023671009112149477,-0.0005345066892914474,0.002443459117785096
1772720932565206500,9.68420654296875,0.001450803829357028,-0.0005345066892914474,0.0030543238390237093
1772720932583803400,9.702803466796874,0.001450803829357028,-0.00022907429956831038,0.0015271619195118546
1772720932602400300,9.721400146484376,0.0011453714687377214,-0.0005345066892914474,0.0030543238390237093
1772720932620996900,9.739996826171875,0.001450803829357028,-0.000839939049910754,0.0030543238390237093
1772720932639594000,9.758593994140625,0.0017562361899763346,-0.00022907429956831038,0.0030543238390237093
1772720932658190800,9.77719091796875,0.002061668550595641,-0.001450803829357028,0.0021380267571657896
1772720932676787700,9.79578759765625,0.001450803829357028,-0.000839939049910754,0.0021380267571657896
1772720932695384300,9.81438427734375,0.001450803829357028,-0.00022907429956831038,0.0027488914784044027
1772720932713981200,9.832981201171876,0.0011453714687377214,-0.00022907429956831038,0.001221729558892548
1772720932732578000,9.851578125,0.00022907429956831038,0.0006872228696011007,0.002443459117785096
1772720932751175000,9.8701748046875,0.002672533504664898,-0.000839939049910754,0.002443459117785096
1772720932769771800,9.888771728515625,0.0017562361899763346,-0.0005345066892914474,0.001832594396546483
1772720932788368600,9.90736865234375,0.002061668550595641,-0.00022907429956831038,0.0027488914784044027
1772720932806965500,9.925965576171874,0.002061668550595641,-0.0005345066892914474,0.0030543238390237093
1772720932825562400,9.944562255859376,0.001450803829357028,-0.0005345066892914474,0.0021380267571657896
1772720932844159200,9.9631591796875,0.00022907429956831038,-0.00022907429956831038,0.003359756199643016
1772720932862756000,9.981756103515625,0.001450803829357028,-0.00022907429956831038,0.001832594396546483
1772720932881352700,10.000352783203125,0.001450803829357028,0.0006872228696011007,0.0021380267571657896
1772720932899949800,10.01894970703125,0.002061668550595641,0.00007635809743078426,0.002443459117785096
1772720932918546700,10.037546630859374,0.0017562361899763346,-0.00022907429956831038,0.002443459117785096
1772720932937143300,10.056143310546876,0.0011453714687377214,-0.0011453714687377214,0.0015271619195118546
1772720932955740200,10.074740234375,0.0011453714687377214,0.00007635809743078426,0.0021380267571657896
1772720932974337000,10.0933369140625,0.0017562361899763346,-0.0005345066892914474,0.0030543238390237093
1772720932992934000,10.111933837890625,0.0011453714687377214,-0.0005345066892914474,0.0027488914784044027
1772720933011530800,10.13053076171875,0.001450803829357028,0.00007635809743078426,0.003359756199643016
1772720933030127600,10.149127685546874,0.0023671009112149477,-0.00022907429956831038,0.0027488914784044027
1772720933048724500,10.167724365234376,0.002061668550595641,0.0006872228696011007,0.0021380267571657896
1772720933067321300,10.1863212890625,0.0011453714687377214,-0.0005345066892914474,0.0015271619195118546
1772720933085918200,10.204918212890625,0.002672533504664898,-0.0005345066892914474,0.003359756199643016
1772720933104515000,10.22351513671875,0.0023671009112149477,-0.0011453714687377214,0.003665188793092966
1772720933123111700,10.242111572265625,0.0023671009112149477,-0.0005345066892914474,0.002443459117785096
1772720933141708500,10.26070849609375,0.000839939049910754,-0.0017562361899763346,0.002443459117785096
1772720933160305400,10.279305419921876,0.0017562361899763346,-0.0005345066892914474,0.0021380267571657896
1772720933178902300,10.29790234375,0.0017562361899763346,0.00007635809743078426,0.0027488914784044027
1772720933197499100,10.3164990234375,0.000839939049910754,-0.00022907429956831038,0.0027488914784044027
1772720933216096000,10.335095947265625,0.0017562361899763346,-0.0005345066892914474,0.002443459117785096
1772720933234692900,10.35369287109375,0.0017562361899763346,-0.001450803829357028,0.0027488914784044027
1772720933253289700,10.372289794921874,0.0005345066892914474,0.0009926552884280682,0.001832594396546483
1772720933271886600,10.390886474609376,0.0011453714687377214,-0.0005345066892914474,0.002443459117785096
1772720933290483500,10.4094833984375,0.001450803829357028,-0.000839939049910754,0.0021380267571657896
1772720933309080300,10.428080322265625,0.001450803829357028,-0.000839939049910754,0.003359756199643016
1772720933327677200,10.44667724609375,0.0011453714687377214,-0.0011453714687377214,0.001832594396546483
1772720933346273800,10.465273681640625,0.0017562361899763346,-0.00022907429956831038,0.001832594396546483
1772720933364870700,10.48387060546875,0.001450803829357028,-0.00022907429956831038,0.0015271619195118546
1772720933383467500,10.502467529296876,0.001450803829357028,-0.000839939049910754,0.002443459117785096
1772720933402064400,10.521064453125,0.0011453714687377214,-0.0005345066892914474,0.0027488914784044027
1772720933420661200,10.5396611328125,0.0017562361899763346,-0.00022907429956831038,0.0015271619195118546
1772720933439258000,10.558258056640625,0.0011453714687377214,-0.0005345066892914474,0.0021380267571657896
1772720933457855000,10.57685498046875,0.001450803829357028,-0.0005345066892914474,0.0027488914784044027
1772720933476451800,10.595451904296874,0.0011453714687377214,-0.00022907429956831038,0.0027488914784044027
1772720933495048700,10.614048583984374,0.000839939049910754,-0.00022907429956831038,0.002443459117785096
1772720933513645300,10.632645263671876,0.0017562361899763346,0.00007635809743078426,0.001221729558892548
1772720933532242200,10.6512421875,0.0017562361899763346,-0.000839939049910754,0.0027488914784044027
1772720933550839300,10.66983935546875,0.0011453714687377214,-0.00022907429956831038,0.0021380267571657896
1772720933569436000,10.688435791015625,0.0011453714687377214,0.00007635809743078426,0.0027488914784044027
1772720933588032800,10.70703271484375,0.000839939049910754,-0.000839939049910754,0.001832594396546483
1772720933606629600,10.725629638671874,0.001450803829357028,0.00007635809743078426,0.001832594396546483
1772720933625226500,10.7442265625,0.0011453714687377214,0.00038179047987796366,0.003359756199643016
1772720933643823400,10.7628232421875,0.001450803829357028,-0.000839939049910754,0.0021380267571657896
1772720933662420200,10.781420166015625,0.001450803829357028,-0.00022907429956831038,0.002443459117785096
1772720933681017000,10.80001708984375,0.000839939049910754,0.00007635809743078426,0.0027488914784044027
1772720933699614000,10.818614013671874,0.0011453714687377214,-0.0005345066892914474,0.003665188793092966
1772720933718210600,10.83721044921875,0.0005345066892914474,0.00038179047987796366,0.0021380267571657896
1772720933736807400,10.855807373046876,0.002061668550595641,-0.000839939049910754,0.0030543238390237093
1772720933755404300,10.874404296875,0.0011453714687377214,0.00007635809743078426,0.002443459117785096
1772720933774001200,10.893001220703125,0.0011453714687377214,-0.00022907429956831038,0.0021380267571657896
1772720933792598000,10.911597900390625,0.0005345066892914474,0.00954476185142994,0.008857538923621178
1772720933811195000,10.93019482421875,0.00511599238961935,0.10942115634679794,0.0616973415017128
1772720933829791700,10.948791748046874,-0.0009926552884280682,0.05108356848359108,0.03695731982588768
1772720933848388600,10.967388671875,0.002672533504664898,-0.083306685090065,-0.0565049909055233
1772720933866985200,10.985985107421875,0.0035888305865228176,-0.08055779337882996,-0.03909534588456154
1772720933885582000,11.00458203125,0.001450803829357028,-0.013057234697043896,-0.006414080038666725
1772720933904179200,11.02317919921875,0.0017562361899763346,-0.02741255611181259,-0.008857538923621178
