time,seconds_elapsed,z,y,x
1772720935168765000,0.084764892578125,0,0,0
1772720935187361800,0.10336181640625,-0.0015954971313476562,0.0006754621863365173,0.0007073059678077698
1772720935205958700,0.121958740234375,-0.0038270950317382812,-0.002240888774394989,0.003461316227912903
1772720935224555500,0.140555419921875,-0.0013647079467773438,-0.0035990551114082336,0.0015794411301612854
1772720935243152400,0.15915234375,0.0008001327514648438,0.0037318989634513855,-0.00012446194887161255
1772720935261749500,0.17774951171875,-0.00010585784912109375,0.00019477307796478271,0.00003869086503982544
1772720935280346400,0.196346435546875,-0.0022954940795898438,-0.0009690448641777039,-0.004293300211429596
1772720935298943200,0.214943115234375,0.00016498565673828125,-0.0024724677205085754,0.0015555471181869507
1772720935317540000,0.2335400390625,0.0012035369873046875,-0.0003597438335418701,0.0013446509838104248
1772720935336137000,0.252136962890625,-0.0023212432861328125,-0.0028890669345855713,0.000981263816356659
1772720935354733800,0.27073388671875,-0.0020418167114257812,-0.003890804946422577,-0.0025421231985092163
1772720935373330700,0.28933056640625,0.000476837158203125,-0.0029834508895874023,0.003223903477191925
1772720935391927600,0.307927490234375,-0.0007066726684570312,-0.006550602614879608,0.0029152557253837585
1772720935410524400,0.3265244140625,-0.0039768218994140625,-0.00305146723985672,-0.0030277371406555176
1772720935429121300,0.345121337890625,0.0008382797241210938,-0.0009566247463226318,-0.0028916597366333008
1772720935447718100,0.36371826171875,-0.0014505386352539062,-0.0000726357102394104,-0.0038545429706573486
1772720935466315000,0.38231494140625,0.0007781982421875,-0.0040223076939582825,0.003176271915435791
1772720935484911900,0.400911865234375,-0.003911018371582031,0.00041791796684265137,-0.000423528254032135
1772720935503508700,0.4195087890625,-0.0037288665771484375,-0.00012665241956710815,-0.0017566904425621033
1772720935522105600,0.438105712890625,-0.00009822845458984375,-0.006240233778953552,0.005219951272010803
1772720935540702500,0.456702392578125,0.0033206939697265625,-0.0005099549889564514,0.00014103204011917114
1772720935559299300,0.47529931640625,-0.006068229675292969,0.00130569189786911,0.0011484697461128235
1772720935577896200,0.493896240234375,-0.009250640869140625,-0.006232365965843201,-0.0013157501816749573
1772720935596493000,0.5124931640625,-0.008904457092285156,0.007616661489009857,-0.0013322755694389343
1772720935615090000,0.53108984375,-0.00621795654296875,0.00439172238111496,-0.007057957351207733
1772720935633686800,0.549686767578125,-0.007073402404785156,0.011996880173683167,-0.012724265456199646
1772720935652283600,0.56828369140625,-0.0033292770385742188,0.0017888695001602173,-0.007701396942138672
1772720935670880500,0.586880615234375,-0.004337310791015625,-0.013759925961494446,-0.006305091083049774
1772720935689477400,0.605477294921875,0.0005407333374023438,-0.006616026163101196,0.0018832981586456299
1772720935708074200,0.62407421875,-0.0018482208251953125,-0.017266511917114258,0.0029962584376335144
1772720935726671000,0.642671142578125,-0.006411552429199219,-0.0043248459696769714,0.003963671624660492
1772720935745268000,0.66126806640625,-0.005080223083496094,-0.00465027242898941,-0.004393160343170166
1772720935763864800,0.67986474609375,-0.008400917053222656,0.0010843127965927124,-0.007907859981060028
1772720935782461700,0.698461669921875,-0.005825996398925781,-0.008715622127056122,0.001605018973350525
1772720935801058600,0.71705859375,-0.002140045166015625,-0.013458549976348877,0.012076683342456818
1772720935819655400,0.735655517578125,-0.0032434463500976562,-0.004027649760246277,0.003536909818649292
1772720935838252300,0.754252197265625,-0.007798194885253906,-0.009011790156364441,-0.005906723439693451
1772720935856849200,0.77284912109375,-0.0029115676879882812,-0.00557950884103775,0.00008854269981384277
1772720935875446000,0.791446044921875,0.0006999969482421875,-0.00366789847612381,-0.00011014938354492188
1772720935894043000,0.81004296875,-0.007476806640625,-0.013388581573963165,0.0021331608295440674
1772720935912639700,0.8286396484375,-0.0025796890258789062,-0.0076156482100486755,0.000870242714881897
1772720935931236600,0.847236572265625,-0.008352279663085938,-0.010172195732593536,0.0020483657717704773
1772720935949833500,0.86583349609375,-0.006916046142578125,-0.0010227188467979431,-0.0027489736676216125
1772720935968430300,0.884430419921875,-0.004352569580078125,-0.0013995543122291565,-0.0051567405462265015
1772720935987027200,0.903027099609375,-0.0076961517333984375,-0.002847716212272644,0.0053457170724868774
1772720936005624000,0.9216240234375,-0.007477760314941406,-0.0066940635442733765,0.008518494665622711
1772720936024221000,0.940220947265625,-0.006091117858886719,-0.005726747214794159,-0.0035248175263404846
1772720936042817800,0.95881787109375,-0.00469207763671875,-0.008335530757904053,-0.000023894011974334717
1772720936061414700,0.97741455078125,-0.006867408752441406,-0.014306105673313141,-0.0013845041394233704
1772720936080011500,0.996011474609375,-0.0042858123779296875,-0.010809585452079773,-0.0002453327178955078
1772720936098608400,1.0146083984375,-0.0064525604248046875,-0.019059613347053528,-0.002649560570716858
1772720936117205200,1.033205322265625,-0.001529693603515625,-0.017809249460697174,-0.0038602501153945923
1772720936135802000,1.051802001953125,-0.005005836486816406,-0.01069013774394989,-0.006156601011753082
1772720936154399000,1.07039892578125,-0.008309364318847656,-0.0060293227434158325,-0.002631247043609619
1772720936172995800,1.088995849609375,-0.005717277526855469,-0.003867536783218384,-0.0038503557443618774
1772720936191592700,1.1075927734375,-0.004330635070800781,-0.0006127506494522095,-0.003958307206630707
1772720936210189600,1.126189453125,-0.005340576171875,-0.0033630654215812683,-0.000466860830783844
1772720936228786400,1.144786376953125,-0.0075550079345703125,-0.008329056203365326,0.0005325525999069214
1772720936247383300,1.16338330078125,-0.00963592529296875,-0.009594127535820007,-0.001874282956123352
1772720936265980200,1.181980224609375,-0.0023746490478515625,-0.010903142392635345,-0.002027936279773712
1772720936284577000,1.200576904296875,0.000080108642578125,-0.01802694797515869,0.00023151934146881104
1772720936303174000,1.219173828125,-0.004586219787597656,-0.017833493649959564,0.0013808608055114746
1772720936321770800,1.237770751953125,-0.0055675506591796875,-0.013109244406223297,-0.0022772401571273804
1772720936340367600,1.25636767578125,-0.004261970520019531,-0.014318570494651794,-0.004656411707401276
1772720936358964500,1.274964599609375,-0.0029211044311523438,-0.010824106633663177,-0.002216517925262451
1772720936377561300,1.293561279296875,-0.00286102294921875,-0.0131644606590271,-0.006901003420352936
1772720936396158000,1.312157958984375,-0.0015878677368164062,-0.011862337589263916,-0.006881639361381531
1772720936414754800,1.3307548828125,-0.0038862228393554688,-0.012974433600902557,-0.0020530447363853455
1772720936433351700,1.3493515625,-0.01424407958984375,-0.011806927621364594,-0.007809281349182129
1772720936451948500,1.367948486328125,-0.00792694091796875,-0.010731436312198639,-0.005339562892913818
1772720936470545400,1.38654541015625,-0.0018787384033203125,-0.014231443405151367,-0.00419202446937561
1772720936489142300,1.405142333984375,0.0016937255859375,-0.012847021222114563,-0.0007204562425613403
1772720936507739100,1.4237392578125,-0.0030059814453125,-0.013971611857414246,-0.005392014980316162
1772720936526336000,1.4423359375,0.0017833709716796875,-0.011659890413284302,-0.0016610398888587952
1772720936544932900,1.460932861328125,0.0005712509155273438,-0.012917786836624146,-0.005293495953083038
1772720936563529700,1.47952978515625,-0.00177764892578125,-0.011763237416744232,-0.002879314124584198
1772720936582126600,1.498126708984375,-0.0016584396362304688,-0.011607609689235687,-0.0004107430577278137
1772720936600723500,1.516723388671875,-0.0004253387451171875,-0.009202457964420319,0.0018347203731536865
1772720936619320300,1.5353203125,-0.0004100799560546875,-0.011485792696475983,-0.002955995500087738
1772720936637917200,1.553917236328125,0.007744789123535156,0.004808090627193451,-0.005176626145839691
1772720936656514000,1.57251416015625,0.00745391845703125,-0.004840843379497528,-0.00856364518404007
1772720936675110700,1.591110595703125,-0.005809783935546875,0.0030504614114761353,-0.01657813787460327
1772720936693707500,1.60970751953125,0.005816459655761719,0.008464090526103973,-0.013697385787963867
1772720936712304400,1.628304443359375,0.012589454650878906,-0.00626160204410553,0.00203733891248703
1772720936730901200,1.6469013671875,0.013469696044921875,-0.005523934960365295,-0.007360190153121948
1772720936749498000,1.665498046875,0.010596275329589844,0.006024911999702454,-0.000031307339668273926
1772720936768095000,1.684094970703125,0.012523651123046875,0.0020431503653526306,-0.01152840256690979
1772720936786691800,1.70269189453125,0.00981903076171875,0.00067911297082901,-0.009974360466003418
1772720936805288700,1.721288818359375,0.007183074951171875,-0.010317541658878326,-0.012028656899929047
1772720936823885300,1.73988525390625,-0.0025033950805664062,-0.004190199077129364,-0.007120408117771149
1772720936842482200,1.758482177734375,0.018503189086914062,-0.001376025378704071,-0.013069778680801392
1772720936861079300,1.777079345703125,-0.0007343292236328125,-0.006305471062660217,0.014306791126728058
1772720936879676000,1.795676025390625,0.019059181213378906,-0.005495123565196991,-0.014138385653495789
1772720936898272800,1.814272705078125,0.008118629455566406,-0.02111244946718216,-0.010276012122631073
1772720936916869600,1.83286962890625,0.013620376586914062,-0.00455813854932785,-0.0006388872861862183
1772720936935466500,1.851466552734375,0.01905536651611328,0.004557013511657715,-0.014837458729743958
1772720936954063400,1.8700634765625,0.00664520263671875,-0.007593035697937012,-0.007493726909160614
1772720936972660200,1.88866015625,0.014368057250976562,-0.0018194019794464111,-0.0004076138138771057
1772720936991257000,1.907257080078125,0.019837379455566406,-0.02071518450975418,-0.008938968181610107
1772720937009854000,1.92585400390625,0.007595062255859375,-0.0027907267212867737,-0.0017227455973625183
1772720937028450600,1.944450439453125,0.006211280822753906,-0.007739648222923279,0.004337504506111145
1772720937047047400,1.96304736328125,0.012890815734863281,-0.011366106569766998,-0.00042223185300827026
1772720937065644300,1.981644287109375,0.017053604125976562,0.0005825906991958618,-0.009715259075164795
1772720937084241200,2.0002412109375,0.004944801330566406,-0.007748506963253021,-0.013142302632331848
1772720937102838000,2.018838134765625,0.009431838989257812,-0.00687243789434433,-0.010734975337982178
1772720937121435000,2.037434814453125,0.003143310546875,-0.005996808409690857,-0.0059959664940834045
1772720937140031700,2.05603173828125,0.006495475769042969,-0.013353720307350159,-0.00451941043138504
1772720937158628600,2.074628662109375,0.006165504455566406,-0.00039745867252349854,-0.0066408440470695496
1772720937177225200,2.09322509765625,0.01645660400390625,-0.007924668490886688,-0.02189723402261734
1772720937195822000,2.111822021484375,0.007818222045898438,0.0014709234237670898,-0.0013352558016777039
1772720937214419200,2.130419189453125,0.00638580322265625,-0.00822833925485611,-0.003769800066947937
1772720937233015800,2.149015869140625,0.0027666091918945312,-0.009629718959331512,0.0010299533605575562
1772720937251612700,2.16761279296875,0.003696441650390625,-0.0083465576171875,-0.008361391723155975
1772720937270209500,2.18620947265625,0.000125885009765625,-0.0061874836683273315,-0.014069996774196625
1772720937288806400,2.204806396484375,0.013968467712402344,0.0008061230182647705,-0.0020915940403938293
1772720937307403300,2.2234033203125,0.006844520568847656,-0.012538343667984009,-0.009094774723052979
1772720937326000000,2.242000244140625,0.01016998291015625,-0.00332699716091156,-0.005607292056083679
1772720937344597000,2.260596923828125,0.009976387023925781,-0.014146074652671814,-0.0008584111928939819
1772720937363193900,2.27919384765625,0.0026121139526367188,-0.024975687265396118,0.015679113566875458
1772720937381790700,2.297790771484375,-0.0092926025390625,-0.01535370945930481,-0.011683553457260132
1772720937400387300,2.31638720703125,0.006175041198730469,-0.007104493677616119,-0.015196874737739563
1772720937418984200,2.334984130859375,-0.0057315826416015625,-0.027038194239139557,0.0003407597541809082
1772720937437581000,2.3535810546875,0.00164031982421875,-0.010438255965709686,-0.008831828832626343
1772720937456178000,2.372177978515625,0.0037641525268554688,-0.00929335504770279,0.0007221773266792297
1772720937474774800,2.39077490234375,0.022543907165527344,-0.024494268000125885,-0.0076003968715667725
1772720937493371600,2.40937158203125,-0.0015115737915039062,-0.019538991153240204,-0.005027562379837036
1772720937511968500,2.427968505859375,0.010366439819335938,-0.011048264801502228,0.00797424465417862
1772720937530565400,2.4465654296875,0.015987396240234375,-0.011450909078121185,-0.011109136044979095
1772720937549162000,2.465161865234375,-0.014790534973144531,-0.016282707452774048,-0.007154330611228943
1772720937567758800,2.4837587890625,-0.011298179626464844,0.0002672821283340454,0.0010769963264465332
1772720937586356000,2.50235595703125,-0.0077037811279296875,-0.01996433734893799,-0.010899528861045837
1772720937604952600,2.52095263671875,-0.006251335144042969,-0.016358360648155212,-0.004739895462989807
1772720937623549400,2.539549560546875,0.009293556213378906,-0.005554139614105225,-0.012650370597839355
1772720937642146300,2.558146240234375,-0.0037746429443359375,-0.010345064103603363,0.011125005781650543
1772720937660743200,2.5767431640625,-0.006058692932128906,-0.013903394341468811,-0.003094412386417389
1772720937679340000,2.595340087890625,0.01300811767578125,-0.008019253611564636,-0.003141045570373535
1772720937697937000,2.61393701171875,0.008030891418457031,-0.0021495521068573,-0.032379150390625
1772720937716533800,2.63253369140625,0.004378318786621094,-0.00989716500043869,0.015250742435455322
1772720937735130600,2.651130615234375,-0.01080322265625,-0.00650237500667572,-0.006175883114337921
1772720937753727200,2.669727294921875,-0.004715919494628906,-0.017240621149539948,0.002175547182559967
1772720937772324000,2.688323974609375,-0.01749706268310547,-0.003172151744365692,-0.007500551640987396
1772720937790921000,2.7069208984375,-0.007937431335449219,-0.008006349205970764,-0.006205730140209198
1772720937809517800,2.725517822265625,0.003916740417480469,-0.009347639977931976,-0.01186361163854599
1772720937828114700,2.74411474609375,-0.004385948181152344,-0.010964170098304749,0.0037390142679214478
1772720937846711600,2.762711669921875,-0.00753021240234375,-0.009820140898227692,0.00009406358003616333
1772720937865308400,2.781308349609375,-0.009669303894042969,-0.008776858448982239,-0.00230582058429718
1772720937883905300,2.7999052734375,-0.011854171752929688,-0.011309705674648285,-0.0012462660670280457
1772720937902502000,2.818501953125,-0.0022420883178710938,-0.005518883466720581,0.008319936692714691
1772720937921098800,2.8370986328125,0.009657859802246094,-0.011558778584003448,-0.011685527861118317
1772720937939695600,2.855695556640625,-0.0045223236083984375,-0.018490038812160492,0.0002581775188446045
1772720937958292500,2.87429248046875,0.0013942718505859375,-0.025371745228767395,0.0036415383219718933
1772720937976889300,2.892889404296875,-0.0174713134765625,-0.018143273890018463,0.014109931886196136
1772720937995486200,2.911486328125,-0.006360054016113281,-0.013295963406562805,0.01741110533475876
1772720938014083000,2.9300830078125,-0.009575843811035156,-0.004126168787479401,0.0006786957383155823
1772720938032679700,2.9486796875,-0.010588645935058594,-0.024545341730117798,-0.003995195031166077
1772720938051276800,2.96727685546875,-0.010214805603027344,-0.006627269089221954,-0.005146436393260956
1772720938069873400,2.985873291015625,0.0006761550903320312,-0.016132958233356476,-0.012011595070362091
1772720938088470300,3.00447021484375,0.008832931518554688,0.013342581689357758,-0.01204635202884674
1772720938107067100,3.023067138671875,-0.017084121704101562,-0.012960650026798248,-0.011872872710227966
1772720938125664000,3.0416640625,-0.0143585205078125,-0.019061222672462463,0.00481637567281723
1772720938144260900,3.0602607421875,-0.0047016143798828125,-0.00031500309705734253,-0.012789532542228699
1772720938162857700,3.078857666015625,-0.01627063751220703,-0.025418691337108612,-0.0031958892941474915
1772720938181454300,3.097454345703125,0.000701904296875,-0.014686167240142822,-0.008121490478515625
1772720938200051200,3.11605126953125,-0.00971221923828125,-0.015943966805934906,0.00967530906200409
1772720938218648000,3.13464794921875,-0.0036983489990234375,-0.0028091147541999817,-0.0069784075021743774
1772720938237245000,3.153244873046875,0.0014257431030273438,-0.021773338317871094,-0.002156279981136322
1772720938255841800,3.171841796875,-0.010422706604003906,-0.011966854333877563,-0.010261230170726776
1772720938274438700,3.190438720703125,0.0038480758666992188,-0.00750315934419632,-0.008840203285217285
1772720938293035300,3.20903515625,-0.007903099060058594,-0.006629481911659241,0.0020249485969543457
1772720938311632100,3.227632080078125,-0.02283477783203125,0.003844045102596283,-0.008569024503231049
1772720938330229000,3.24622900390625,0.00225830078125,-0.010490156710147858,0.010513588786125183
1772720938348825900,3.264825927734375,0.0023050308227539062,-0.0198679119348526,-0.0016102418303489685
1772720938367422700,3.283422607421875,-0.0012006759643554688,-0.02073897421360016,-0.015576109290122986
1772720938386019300,3.302019287109375,-0.012845039367675781,-0.009036608040332794,0.0012370496988296509
1772720938404616200,3.3206162109375,-0.0066318511962890625,-0.008227303624153137,-0.007172636687755585
1772720938423213000,3.339213134765625,-0.013427734375,-0.008558988571166992,-0.009434625506401062
1772720938441810000,3.357809814453125,-0.0024900436401367188,-0.000409543514251709,0.011743128299713135
1772720938460406500,3.376406494140625,-0.0011081695556640625,-0.021982550621032715,-0.00017430633306503296
1772720938479003400,3.39500341796875,0.0037937164306640625,-0.017042726278305054,-0.009891204535961151
1772720938497600300,3.413600341796875,-0.0042896270751953125,-0.0017633140087127686,-0.010905943810939789
1772720938516197000,3.432197021484375,0.0017576217651367188,-0.008853062987327576,-0.003444202244281769
1772720938534794000,3.4507939453125,-0.009923934936523438,-0.006433933973312378,0.0117277130484581
1772720938553390600,3.469390625,-0.0037288665771484375,-0.013533398509025574,0.0010424703359603882
1772720938571987500,3.487987548828125,-0.0036792755126953125,-0.014712966978549957,-0.010882891714572906
1772720938590584300,3.506584228515625,-0.008298873901367188,-0.021711811423301697,-0.004590585827827454
1772720938609181000,3.525180908203125,-0.0021181106567382812,-0.006213292479515076,-0.015117645263671875
1772720938627777800,3.54377783203125,-0.00445556640625,-0.02519749104976654,-0.008986897766590118
1772720938646374700,3.562374755859375,-0.007836341857910156,-0.01751226931810379,-0.015815071761608124
1772720938664971500,3.580971435546875,-0.019338607788085938,-0.01144438236951828,-0.02154593914747238
1772720938683568000,3.599568115234375,-0.011908531188964844,-0.017449170351028442,-0.01170852780342102
1772720938702165000,3.6181650390625,-0.0022935867309570312,-0.016432642936706543,0.0027245432138442993
1772720938720761900,3.636761962890625,0.002590179443359375,-0.012912772595882416,-0.007700227200984955
1772720938739358700,3.655358642578125,-0.012785911560058594,-0.019926585257053375,0.005397707223892212
1772720938757955300,3.673955322265625,-0.0007543563842773438,-0.01275220513343811,-0.002937793731689453
1772720938776552200,3.69255224609375,0.0028028488159179688,-0.00814509391784668,0.000433214008808136
1772720938795149000,3.711149169921875,-0.004245758056640625,-0.004741370677947998,-0.00554317981004715
1772720938813746000,3.729745849609375,-0.0030803680419921875,-0.00489228218793869,0.007548727095127106
1772720938832342500,3.748342529296875,-0.004408836364746094,-0.002572976052761078,-0.01388135552406311
1772720938850939400,3.766939453125,0.000507354736328125,-0.01573765277862549,0.0005971789360046387
1772720938869536300,3.785536376953125,-0.0005464553833007812,-0.021564297378063202,-0.002795599400997162
1772720938888132900,3.8041328125,-0.022780418395996094,0.006715103983879089,0.0007601752877235413
1772720938906729700,3.822729736328125,0.007094383239746094,-0.01721508800983429,-0.0017359331250190735
1772720938925326600,3.84132666015625,-0.0023326873779296875,-0.017046891152858734,-0.0016661062836647034
1772720938943923500,3.85992333984375,-0.010623931884765625,-0.013411402702331543,-0.006325438618659973
1772720938962520000,3.87852001953125,-0.0044841766357421875,-0.011946804821491241,-0.009884528815746307
1772720938981117000,3.897116943359375,-0.0009784698486328125,-0.013475626707077026,0.0032659992575645447
1772720938999713500,3.915713623046875,-0.0032176971435546875,0.0008423477411270142,0.004438057541847229
1772720939018310400,3.934310302734375,0.010911941528320312,-0.017207428812980652,-0.003931857645511627
1772720939036907300,3.9529072265625,0.008398056030273438,-0.020738139748573303,0.003186054527759552
1772720939055504000,3.97150390625,0.004948616027832031,-0.02747434377670288,-0.014606021344661713
1772720939074100700,3.990100830078125,-0.010427474975585938,-0.017772860825061798,-0.00988413393497467
1772720939092697600,4.008697509765625,0.005077362060546875,-0.027426615357398987,-0.015573501586914062
1772720939111294500,4.02729443359375,-0.006636619567871094,-0.017655521631240845,-0.009218543767929077
1772720939129891000,4.04589111328125,-0.0029039382934570312,-0.023416906595230103,0.003959670662879944
1772720939148488000,4.064488037109375,-0.003979682922363281,-0.01708846539258957,-0.004333287477493286
1772720939167084800,4.083084716796875,0.011312484741210938,-0.0005460977554321289,-0.0042222365736961365
1772720939185681400,4.101681396484375,-0.000843048095703125,-0.00048657506704330444,-0.008996054530143738
1772720939204278300,4.1202783203125,0.0060882568359375,0.007554583251476288,-0.013557173311710358
1772720939222875100,4.138875244140625,-0.0033044815063476562,-0.00830511748790741,-0.005017772316932678
1772720939241471700,4.1574716796875,-0.000858306884765625,-0.0187826007604599,0.0032843351364135742
1772720939260068600,4.176068603515625,-0.003238677978515625,-0.005925402045249939,-0.0073800235986709595
1772720939278665200,4.194665283203125,0.00991058349609375,-0.01289331167936325,0.0068633779883384705
1772720939297262000,4.213261962890625,-0.004097938537597656,-0.010407596826553345,0.016087017953395844
1772720939315859000,4.23185888671875,-0.008626937866210938,-0.004591412842273712,-0.002891838550567627
1772720939334455600,4.25045556640625,-0.00022029876708984375,-0.01630423218011856,-0.009490013122558594
1772720939353052400,4.269052490234375,-0.00603485107421875,-0.01860024780035019,0.004683546721935272
1772720939371649300,4.287649169921875,0.0046596527099609375,-0.017565526068210602,-0.016452312469482422
1772720939390246000,4.306245849609375,-0.00347137451171875,-0.002380385994911194,-0.00769379734992981
1772720939408842500,4.324842529296875,0.0046062469482421875,-0.0061904191970825195,-0.001603931188583374
1772720939427439400,4.343439453125,0.004496574401855469,-0.016874492168426514,0.004229895770549774
1772720939446036200,4.3620361328125,-0.0049228668212890625,-0.025236651301383972,-0.00383199006319046
1772720939464632800,4.3806328125,-0.00020599365234375,-0.01676928997039795,0.0010393857955932617
1772720939483229700,4.399229736328125,-0.006117820739746094,-0.020033657550811768,-0.003678537905216217
1772720939501826600,4.41782666015625,0.0044994354248046875,-0.017714709043502808,-0.01885153353214264
1772720939520423200,4.436423095703125,0.007981300354003906,-0.0056462362408638,-0.009095601737499237
1772720939539020000,4.45502001953125,-0.0026521682739257812,-0.015411138534545898,-0.009187497198581696
1772720939557616600,4.47361669921875,-0.00624847412109375,-0.005829706788063049,-0.02200905978679657
1772720939576213500,4.492213623046875,-0.008587837219238281,-0.00833902508020401,-0.0026652440428733826
1772720939594810000,4.51081005859375,-0.00385284423828125,-0.02230999618768692,-0.006130225956439972
1772720939613407000,4.529406982421875,-0.005034446716308594,-0.006971299648284912,-0.0014099553227424622
1772720939632003800,4.54800390625,-0.010808944702148438,-0.006901383399963379,-0.010049238801002502
1772720939650600400,4.566600341796875,-0.0059986114501953125,-0.014020204544067383,-0.017370931804180145
1772720939669197300,4.585197265625,0.005948066711425781,-0.01754683256149292,-0.012549608945846558
1772720939687794000,4.6037939453125,-0.004931449890136719,-0.010423123836517334,-0.006310172379016876
1772720939706390800,4.622390869140625,-0.01049041748046875,-0.012786425650119781,0.0007722750306129456
1772720939724987400,4.6409873046875,-0.008983612060546875,-0.003130190074443817,-0.0013279691338539124
1772720939743584300,4.659584228515625,-0.00382232666015625,-0.013680078089237213,0.008159421384334564
1772720939762180900,4.678180908203125,0.011677742004394531,-0.030178368091583252,-0.006144441664218903
1772720939780777700,4.69677783203125,0.00215911865234375,-0.012030772864818573,-0.017792053520679474
1772720939799374300,4.715374267578125,-0.0002613067626953125,-0.0023674815893173218,-0.01024259626865387
1772720939817971200,4.73397119140625,-0.0026617050170898438,-0.0015432089567184448,-0.011449769139289856
1772720939836567800,4.75256787109375,0.006899833679199219,-0.0004162341356277466,-0.00787394493818283
1772720939855164700,4.77116455078125,-0.001285552978515625,-0.009933248162269592,-0.018577933311462402
1772720939873761300,4.78976123046875,-0.0026121139526367188,-0.004007458686828613,-0.013376064598560333
1772720939892358100,4.808358154296875,-0.00003337860107421875,-0.007646888494491577,-0.009472161531448364
1772720939910955000,4.826955078125,0.0001277923583984375,-0.012557066977024078,-0.008390530943870544
1772720939929551600,4.845551513671875,0.012106895446777344,-0.008893728256225586,-0.021055079996585846
1772720939948148200,4.864148193359375,-0.017701148986816406,-0.0065817683935165405,0.0006915032863616943
1772720939966745000,4.8827451171875,-0.0056629180908203125,-0.014734461903572083,-0.003098994493484497
1772720939985341700,4.901341796875,0.0026655197143554688,-0.01235920935869217,0.005202792584896088
1772720940003938600,4.9199384765625,-0.004460334777832031,-0.007506698369979858,0.0015569329261779785
1772720940022535200,4.93853515625,-0.012525558471679688,-0.019127577543258667,-0.00096149742603302
1772720940041132000,4.957132080078125,-0.009913444519042969,-0.015329279005527496,-0.002083100378513336
1772720940059728600,4.975728759765625,-0.015445709228515625,-0.01788409799337387,-0.00200614333152771
1772720940078325500,4.994325439453125,-0.005616188049316406,-0.02029375731945038,0.0038940683007240295
1772720940096922000,5.012922119140625,-0.005583763122558594,-0.014181740581989288,0.01561659574508667
1772720940115519000,5.03151904296875,-0.007611274719238281,-0.012930765748023987,-0.00716642290353775
1772720940134115600,5.050115478515625,-0.0015916824340820312,-0.011983238160610199,-0.01177661120891571
1772720940152712200,5.068712158203125,-0.00506591796875,-0.012083075940608978,-0.013759799301624298
1772720940171309000,5.08730908203125,-0.0012292861938476562,-0.016769595444202423,0.005115509033203125
1772720940189905700,5.10590576171875,-0.0025587081909179688,-0.013071708381175995,-0.004323989152908325
1772720940208502500,5.12450244140625,0.0055694580078125,-0.0011661946773529053,0.003944307565689087
1772720940227099100,5.14309912109375,0.006701469421386719,-0.031765520572662354,-0.004170991480350494
1772720940245696000,5.161696044921875,0.0007152557373046875,-0.018423408269882202,-0.006573833525180817
1772720940264292600,5.180292724609375,-0.007422447204589844,-0.017176300287246704,0.001550339162349701
1772720940282889200,5.19888916015625,0.0009241104125976562,-0.01948358118534088,0.0028014108538627625
1772720940301486000,5.217486083984375,0.0069561004638671875,-0.008729033172130585,-0.001938559114933014
1772720940320082700,5.236082763671875,0.0057086944580078125,-0.009848184883594513,0.0039291903376579285
1772720940338679600,5.254679443359375,-0.0038299560546875,-0.01218714565038681,-0.009212255477905273
1772720940357276200,5.273276123046875,-0.015445709228515625,-0.008551552891731262,-0.010358959436416626
1772720940375872800,5.291872802734375,0.010557174682617188,-0.028666868805885315,0.0025712773203849792
1772720940394469600,5.3104697265625,-0.0036334991455078125,-0.023479163646697998,0.009180612862110138
1772720940413066200,5.329066162109375,0.006020545959472656,-0.011524468660354614,-0.001365378499031067
1772720940431663000,5.3476630859375,-0.00701904296875,-0.01889863610267639,-0.008230865001678467
1772720940450259700,5.366259765625,-0.0033130645751953125,-0.00003787875175476074,-0.008123718202114105
1772720940468856300,5.384856201171875,0.00042629241943359375,-0.013172321021556854,0.0026820898056030273
1772720940487453200,5.403453125,-0.010053634643554688,-0.014358051121234894,-0.019450180232524872
1772720940506049800,5.4220498046875,-0.004132270812988281,-0.014388039708137512,0.010032281279563904
1772720940524646400,5.440646484375,-0.014521598815917969,-0.001694805920124054,0.007359042763710022
1772720940543243300,5.4592431640625,0.005626678466796875,0.008644789457321167,0.00628352165222168
1772720940561839900,5.47783984375,-0.014517784118652344,-0.001019805669784546,-0.013928160071372986
1772720940580436500,5.4964365234375,0.0045528411865234375,0.0035378262400627136,-0.003052137792110443
1772720940599033300,5.515033447265625,-0.007025718688964844,-0.013144224882125854,-0.013621613383293152
1772720940617630000,5.5336298828125,0.00011157989501953125,-0.020132139325141907,-0.005376696586608887
1772720940636226600,5.5522265625,0.00001239776611328125,-0.017887122929096222,0.001504465937614441
1772720940654823400,5.570823486328125,0.0035810470581054688,-0.008128397166728973,-0.005678154528141022
1772720940673420000,5.589419921875,-0.009417533874511719,-0.009504646062850952,-0.008046694099903107
1772720940692016600,5.6080166015625,-0.01622295379638672,-0.01288612186908722,0.009635984897613525
1772720940710613500,5.626613525390625,-0.0007228851318359375,-0.005725301802158356,-0.014274775981903076
1772720940729210000,5.645210205078125,0.005146026611328125,-0.01283988356590271,0.01188841462135315
1772720940747806700,5.663806640625,-0.007905006408691406,-0.009252414107322693,0.0068064406514167786
1772720940766403300,5.6824033203125,-0.007503509521484375,-0.017573311924934387,-0.007631286978721619
1772720940785000200,5.701000244140625,-0.010918617248535156,-0.012812547385692596,-0.00974736362695694
1772720940803596800,5.7195966796875,0.0045833587646484375,0.006045319139957428,0.0008223652839660645
1772720940822193400,5.738193359375,-0.008290290832519531,-0.022441625595092773,-0.0039019808173179626
1772720940840790300,5.756790283203125,-0.0009946823120117188,-0.008120767772197723,0.009055115282535553
1772720940859387000,5.775386962890625,0.00027751922607421875,-0.006058424711227417,-0.0030621811747550964
1772720940877983500,5.7939833984375,0.00026988983154296875,-0.011784769594669342,-0.005609914660453796
1772720940896580000,5.812580078125,-0.0056400299072265625,-0.011710569262504578,0.004925034940242767
1772720940915177000,5.831177001953125,0.010883331298828125,-0.012738116085529327,0.005930908024311066
1772720940933773600,5.849773681640625,-0.0032558441162109375,-0.01163327693939209,-0.004653185606002808
1772720940952370200,5.8683701171875,0.0015020370483398438,-0.013049967586994171,0.004705086350440979
1772720940970966800,5.886966796875,-0.012447357177734375,-0.0048248544335365295,-0.00144282728433609
1772720940989563600,5.905563720703125,0.0029659271240234375,-0.01453874260187149,-0.0013870447874069214
1772720941008160300,5.92416015625,0.0029878616333007812,-0.013369224965572357,-0.0025444701313972473
1772720941026756900,5.9427568359375,0.005126953125,-0.0041368454694747925,-0.007142797112464905
1772720941045353500,5.961353515625,-0.0053920745849609375,-0.005624599754810333,-0.005917660892009735
1772720941063950300,5.979950439453125,-0.009995460510253906,-0.02918187528848648,-0.0047254785895347595
1772720941082547000,5.998546875,-0.0028772354125976562,-0.01723136007785797,-0.019011713564395905
1772720941101143600,6.0171435546875,0.007847785949707031,-0.012362249195575714,-0.004520513117313385
1772720941119740200,6.035740234375,0.0006494522094726562,-0.009539581835269928,-0.007939271628856659
1772720941138336800,6.054336669921875,-0.00750732421875,-0.017508462071418762,0.002719372510910034
1772720941156933600,6.07293359375,0.0042724609375,-0.024461917579174042,0.0016493871808052063
1772720941175530200,6.0915302734375,-0.004965782165527344,-0.008826658129692078,-0.007917635142803192
1772720941194126800,6.110126953125,0.0010662078857421875,-0.012418568134307861,0.000806950032711029
1772720941212723500,6.128723388671875,0.0033102035522460938,0.002969808876514435,-0.0025293901562690735
1772720941231320000,6.147320068359375,-0.009543418884277344,-0.01365862786769867,0.003159433603286743
1772720941249916700,6.165916748046875,0.0013818740844726562,-0.008812502026557922,-0.009814687073230743
1772720941268513500,6.184513427734375,-0.0009374618530273438,-0.007796734571456909,-0.012088857591152191
1772720941287110100,6.203110107421875,-0.0019636154174804688,-0.004290446639060974,-0.006167024374008179
1772720941305706800,6.221706787109375,-0.00315093994140625,-0.012380339205265045,0.0024218112230300903
1772720941324303400,6.240303466796875,0.007523536682128906,0.0005572810769081116,0.0011503472924232483
1772720941342900000,6.25889990234375,0.0024938583374023438,-0.00801219791173935,0.003308042883872986
1772720941361496600,6.27749658203125,0.013039588928222656,-0.010243453085422516,-0.005059428513050079
1772720941380093400,6.296093505859375,0.011472702026367188,0.004081808030605316,-0.009835980832576752
1772720941398690000,6.31468994140625,-0.0054340362548828125,-0.004392288625240326,-0.00850646197795868
1772720941417286700,6.33328662109375,0.005218505859375,0.011925004422664642,0.0022114887833595276
1772720941435883300,6.35188330078125,-0.006893157958984375,-0.007189936935901642,0.0020638033747673035
1772720941454480000,6.37047998046875,-0.0010156631469726562,-0.00011827796697616577,0.006785467267036438
1772720941473076500,6.389076416015625,0.009648323059082031,-0.02474728226661682,-0.00020410865545272827
1772720941491673000,6.407673095703125,0.00970458984375,-0.01624954491853714,-0.0061022937297821045
1772720941510269700,6.426269775390625,-0.003337860107421875,-0.00997595489025116,-0.010531440377235413
1772720941528866600,6.444866455078125,0.0037746429443359375,-0.005274355411529541,-0.011416733264923096
1772720941547463000,6.463462890625,-0.006718635559082031,-0.006768502295017242,-0.018391937017440796
1772720941566059800,6.482059814453125,-0.00298309326171875,-0.011500462889671326,-0.00048561394214630127
1772720941584656400,6.500656494140625,-0.011018753051757812,-0.013809964060783386,-0.007681466639041901
1772720941603253000,6.5192529296875,0.004482269287109375,-0.011151686310768127,-0.012277431786060333
1772720941621849600,6.537849609375,0.00923919677734375,-0.021548837423324585,0.0033804327249526978
1772720941640446200,6.5564462890625,0.005702972412109375,-0.0063629597425460815,-0.010695047676563263
1772720941659042800,6.575042724609375,-0.0026798248291015625,-0.03343149274587631,0.013278350234031677
1772720941677639400,6.593639404296875,0.012686729431152344,-0.00006221979856491089,0.02574124187231064
1772720941696236000,6.612236083984375,0.014780044555664062,-0.008626334369182587,-0.008937045931816101
1772720941714832600,6.63083251953125,0.0016450881958007812,-0.018891513347625732,-0.01581362634897232
1772720941733429500,6.649429443359375,-0.0007009506225585938,0.00016979873180389404,0.013795673847198486
1772720941752025900,6.66802587890625,-0.0030269622802734375,-0.0256783589720726,-0.0028536170721054077
1772720941770622700,6.686622802734375,0.0018405914306640625,0.008626453578472137,-0.006356760859489441
1772720941789219000,6.705218994140625,-0.005061149597167969,-0.007126845419406891,-0.007368326187133789
1772720941807816000,6.72381591796875,0.009072303771972656,-0.007077917456626892,0.009239822626113892
1772720941826412300,6.742412353515625,-0.009892463684082031,-0.00718340277671814,-0.003842264413833618
1772720941845009200,6.761009033203125,-0.021465301513671875,-0.013166189193725586,-0.014075055718421936
1772720941863605800,6.779605712890625,-0.0057926177978515625,-0.0025009214878082275,0.0023755431175231934
1772720941882202400,6.798202392578125,-0.0032072067260742188,-0.003844127058982849,0.0009165555238723755
1772720941900799000,6.816799072265625,0.005139350891113281,0.002971954643726349,-0.004803687334060669
1772720941919395600,6.8353955078125,0.009656906127929688,-0.009109020233154297,0.0034373998641967773
1772720941937992200,6.8539921875,-0.005913734436035156,-0.012788988649845123,-0.008615978062152863
1772720941956588800,6.8725888671875,-0.008225440979003906,-0.016368575394153595,-0.01191866397857666
1772720941975185400,6.891185302734375,-0.012795448303222656,0.005011141300201416,0.0037389472126960754
1772720941993781800,6.90978173828125,0.0014553070068359375,0.005753964185714722,-0.009265445172786713
1772720942012378600,6.928378662109375,-0.013787269592285156,-0.005076974630355835,0.013136722147464752
1772720942030975200,6.946975341796875,-0.00042724609375,-0.013404801487922668,0.011659115552902222
1772720942049571800,6.96557177734375,-0.006134986877441406,-0.005119852721691132,-0.012910418212413788
1772720942068168400,6.98416845703125,-0.011813163757324219,-0.012258999049663544,0.001430712640285492
1772720942086764800,7.002764892578125,-0.0067729949951171875,-0.007388129830360413,0.0035535097122192383
1772720942105361700,7.021361572265625,-0.010173797607421875,-0.007389135658740997,-0.0027160272002220154
1772720942123958000,7.0399580078125,-0.00879669189453125,-0.01447644829750061,-0.009630396962165833
1772720942142554600,7.0585546875,-0.0050144195556640625,0.0019749775528907776,-0.018890023231506348
1772720942161151500,7.0771513671875,0.010171890258789062,0.008668728172779083,-0.0023238658905029297
1772720942179747800,7.095747802734375,0.01116943359375,0.0027018114924430847,0.006843067705631256
1772720942198344400,7.114344482421875,0.000469207763671875,-0.005454212427139282,0.003350101411342621
1772720942216941000,7.132941162109375,0.0016717910766601562,-0.01852770894765854,-0.00019185245037078857
1772720942235537700,7.15153759765625,0.0028352737426757812,-0.012480922043323517,0.007858842611312866
1772720942254134300,7.17013427734375,0.00154876708984375,-0.012398265302181244,-0.014759533107280731
1772720942272731000,7.18873095703125,0.009794235229492188,-0.014482751488685608,-0.004957303404808044
1772720942291327500,7.207327392578125,0.0072574615478515625,-0.0011666566133499146,-0.004678942263126373
1772720942309924000,7.225924072265625,-0.008412361145019531,-0.0051142871379852295,-0.01860235631465912
1772720942328520700,7.244520751953125,0.006024360656738281,-0.004001453518867493,-0.011322654783725739
1772720942347117300,7.263117431640625,0.013082504272460938,-0.02407456934452057,0.011170625686645508
1772720942365713700,7.281713623046875,-0.0074062347412109375,-0.003628753125667572,0.0014103055000305176
1772720942384310300,7.300310302734375,-0.019080162048339844,-0.013294413685798645,-0.0020989924669265747
1772720942402907000,7.318906982421875,0.0027484893798828125,-0.016758836805820465,0.009457714855670929
1772720942421503500,7.33750341796875,-0.0007524490356445312,-0.025954902172088623,-0.003719538450241089
1772720942440100000,7.35610009765625,-0.00643157958984375,-0.009235933423042297,-0.00717240571975708
1772720942458696700,7.37469677734375,0.0029582977294921875,0.00018189102411270142,-0.003645077347755432
1772720942477293300,7.393293212890625,-0.011411666870117188,-0.0023545175790786743,-0.003459744155406952
1772720942495890000,7.411889892578125,0.012440681457519531,-0.015622712671756744,-0.004595659673213959
1772720942514486300,7.430486328125,-0.006596565246582031,-0.023782148957252502,-0.0022898316383361816
1772720942533083000,7.449082763671875,0.006388664245605469,-0.005844838917255402,-0.005792990326881409
1772720942551679500,7.467679443359375,0.012082099914550781,-0.01656647026538849,-0.00009935349225997925
1772720942570276000,7.486276123046875,-0.0010013580322265625,0.0035826489329338074,-0.00968799740076065
1772720942588872700,7.504872802734375,0.005954742431640625,-0.0050073787569999695,-0.001249954104423523
1772720942607469300,7.52346923828125,-0.00000476837158203125,-0.02144785225391388,0.015285633504390717
1772720942626066000,7.54206591796875,0.005724906921386719,0.002204418182373047,-0.003883443772792816
1772720942644662500,7.56066259765625,-0.004874229431152344,-0.024698801338672638,-0.00029268115758895874
1772720942663259000,7.5792587890625,-0.010572433471679688,-0.012476027011871338,-0.01079251617193222
1772720942681855500,7.59785546875,0.003582000732421875,0.0005223378539085388,0.006839103996753693
1772720942700452000,7.6164521484375,0.0012292861938476562,-0.004512123763561249,-0.0061354860663414
1772720942719048700,7.635048583984375,-0.010651588439941406,0.00008194148540496826,0.005816563963890076
1772720942737645300,7.653645263671875,0.008564949035644531,-0.014267534017562866,-0.001170821487903595
1772720942756241700,7.67224169921875,0.004734039306640625,-0.00909627228975296,-0.0012538209557533264
1772720942774838300,7.69083837890625,0.00336456298828125,-0.023165754973888397,0.005607664585113525
1772720942793435000,7.709434814453125,0.005745887756347656,-0.014648526906967163,-0.00010305643081665039
1772720942812031500,7.728031494140625,0.0034418106079101562,-0.013443410396575928,0.009316802024841309
1772720942830627800,7.7466279296875,0.0033092498779296875,-0.014623261988162994,0.011258058249950409
1772720942849224400,7.765224365234375,-0.001247406005859375,-0.0053319260478019714,-0.006786681711673737
1772720942867821000,7.783821044921875,0.015308380126953125,-0.016051635146141052,0.01568908989429474
1772720942886417700,7.802417724609375,-0.0024499893188476562,-0.01584848016500473,-0.022166021168231964
1772720942905014300,7.82101416015625,0.0012989044189453125,-0.006166622042655945,-0.0030868127942085266
1772720942923610600,7.839610595703125,-0.015133857727050781,-0.007431149482727051,0.00040818750858306885
1772720942942207200,7.858207275390625,0.006251335144042969,-0.01662386953830719,0.009689919650554657
1772720942960803800,7.876803955078125,-0.0020923614501953125,-0.009177528321743011,0.002361766993999481
1772720942979400400,7.895400390625,-0.012352943420410156,0.0014227479696273804,0.002433374524116516
1772720942997996800,7.913996826171875,0.00423431396484375,0.001252204179763794,-0.010711811482906342
1772720943016593400,7.932593505859375,-0.003040313720703125,-0.01212405413389206,0.0001179426908493042
1772720943035190000,7.95118994140625,-0.0100555419921875,0.005466938018798828,-0.0012189149856567383
1772720943053786600,7.96978662109375,-0.008780479431152344,-0.020770706236362457,-0.005978919565677643
1772720943072383000,7.988383056640625,-0.012155532836914062,-0.013379774987697601,-0.006745502352714539
1772720943090979600,8.0069794921875,-0.005988121032714844,-0.007143385708332062,-0.000921398401260376
1772720943109576200,8.025576171875,-0.015394210815429688,-0.008422985672950745,-0.003193296492099762
1772720943128172800,8.0441728515625,-0.014000892639160156,0.00216829776763916,-0.012537918984889984
1772720943146769200,8.06276904296875,-0.004338264465332031,-0.014574602246284485,0.00279119610786438
1772720943165365800,8.08136572265625,0.0005168914794921875,-0.012341037392616272,0.0041223615407943726
1772720943183962400,8.09996240234375,0.0018548965454101562,-0.019557461142539978,-0.000546671450138092
1772720943202558700,8.118558837890625,0.005423545837402344,0.000804997980594635,-0.007515445351600647
1772720943221155300,8.1371552734375,-0.010046958923339844,-0.011256784200668335,-0.009720377624034882
1772720943239752000,8.155751953125,-0.004947662353515625,-0.02068188786506653,0.011731825768947601
1772720943258348300,8.174348388671875,-0.0048809051513671875,-0.0018851161003112793,0.013826385140419006
1772720943276945000,8.19294482421875,0.0011463165283203125,-0.017429649829864502,-0.00772414356470108
1772720943295541500,8.21154150390625,-0.0000457763671875,-0.02776828408241272,-0.0005468875169754028
1772720943314137900,8.230137939453124,-0.011885643005371094,-0.006506212055683136,-0.011065803468227386
1772720943332734500,8.248734375,-0.010588645935058594,-0.02065744251012802,0.0007133781909942627
1772720943351331000,8.2673310546875,-0.008098602294921875,0.010066553950309753,-0.0016355514526367188
1772720943369927400,8.285927490234375,-0.0009860992431640625,-0.014902420341968536,0.0006074830889701843
1772720943388524000,8.30452392578125,-0.005518913269042969,-0.0180608332157135,-0.007430568337440491
1772720943407120600,8.32312060546875,0.001705169677734375,-0.002600535750389099,0.003348633646965027
1772720943425717000,8.341717041015626,0.010966300964355469,-0.013158947229385376,0.005690023303031921
1772720943444313600,8.360313720703125,0.014154434204101562,-0.013048723340034485,-0.005181849002838135
1772720943462910200,8.37891015625,-0.0013685226440429688,-0.008367717266082764,-0.004957661032676697
1772720943481506600,8.397506591796875,0.012601852416992188,-0.021420985460281372,-0.0096946582198143
1772720943500103200,8.416103271484374,0.0005807876586914062,-0.005796968936920166,0.0022858381271362305
1772720943518699800,8.43469970703125,-0.013398170471191406,-0.006974324584007263,-0.00019712746143341064
1772720943537296100,8.453296142578125,-0.00377655029296875,-0.01402302086353302,0.0008856430649757385
1772720943555892700,8.471892822265625,-0.0057888031005859375,-0.01731392741203308,-0.0074177086353302
1772720943574489000,8.490489013671874,0.0035791397094726562,-0.013666599988937378,-0.003650978207588196
1772720943593085700,8.509085693359374,0.0036401748657226562,-0.011161461472511292,0.00807458907365799
1772720943611682300,8.527682373046876,0.0024061203002929688,-0.004044853150844574,-0.0072586387395858765
1772720943630278700,8.546278564453125,-0.006985664367675781,-0.0027205348014831543,0.00198199599981308
1772720943648875300,8.564875244140625,0.007225990295410156,0.002995692193508148,-0.008673757314682007
1772720943667471600,8.5834716796875,-0.011617660522460938,-0.020552858710289,0.0019467994570732117
1772720943686068200,8.602068115234376,0.0027494430541992188,-0.004894472658634186,0.012460701167583466
1772720943704664600,8.62066455078125,-0.012398719787597656,-0.014372915029525757,-0.017511337995529175
1772720943723261200,8.63926123046875,0.005425453186035156,-0.011804446578025818,0.014473110437393188
1772720943741857800,8.65785791015625,0.0027370452880859375,0.005763798952102661,-0.01624884456396103
1772720943760454100,8.6764541015625,-0.004212379455566406,-0.008831866085529327,0.004351675510406494
1772720943779050800,8.69505078125,0.003949165344238281,0.011100992560386658,-0.002818472683429718
1772720943797647000,8.713647216796875,-0.008981704711914062,-0.018666140735149384,-0.00033199042081832886
1772720943816243700,8.73224365234375,-0.0007429122924804688,-0.00555931031703949,-0.014449961483478546
1772720943834840300,8.75084033203125,0.009952545166015625,-0.011404082179069519,0.01167231798171997
1772720943853436700,8.769436767578124,0.0063915252685546875,0.009657807648181915,-0.003708958625793457
1772720943872033000,8.788032958984376,0.00049591064453125,-0.0015448704361915588,0.0019395649433135986
1772720943890629600,8.806629638671875,-0.010990142822265625,-0.014448635280132294,-0.012197896838188171
1772720943909226200,8.825226318359375,0.004413604736328125,0.0069060251116752625,0.010387033224105835
1772720943927822600,8.843822509765625,0.005486488342285156,-0.007732369005680084,0.0010643824934959412
1772720943946419200,8.862419189453124,0.01126861572265625,0.0065225884318351746,0.0010662376880645752
1772720943965015600,8.881015625,0.009995460510253906,0.002495512366294861,-0.015441156923770905
1772720943983612200,8.899612060546875,0.000530242919921875,0.0013617277145385742,0.010736644268035889
1772720944002208500,8.91820849609375,0.0005540847778320312,-0.009496279060840607,0.0034180432558059692
1772720944020805000,8.93680517578125,-0.017087936401367188,-0.01880752295255661,-0.011933490633964539
1772720944039401500,8.9554013671875,-0.012049674987792969,-0.018586724996566772,-0.01645529270172119
1772720944057998000,8.973998046875,-0.0023345947265625,-0.001666046679019928,-0.005306340754032135
1772720944076594400,8.992594482421875,-0.004687309265136719,0.0015731975436210632,0.0005957335233688354
1772720944095191000,9.01119091796875,-0.0022954940795898438,-0.009177692234516144,-0.015964321792125702
1772720944113787400,9.029787353515625,0.0013523101806640625,-0.0174400731921196,0.009031280875205994
1772720944132384000,9.048384033203124,-0.0034351348876953125,-0.023113295435905457,0.009064249694347382
1772720944150980400,9.06698046875,0.011722564697265625,-0.009028680622577667,-0.006552338600158691
1772720944169577000,9.085576904296875,0.004317283630371094,0.00397898256778717,-0.0017073974013328552
1772720944188173300,9.10417333984375,-0.00043201446533203125,-0.006907597184181213,-0.00785742700099945
1772720944206770000,9.12277001953125,0.003093719482421875,-0.02096439152956009,-0.0018635988235473633
1772720944225366300,9.1413662109375,0.0029153823852539062,-0.02298308163881302,-0.0018297657370567322
1772720944243962600,9.159962646484376,0.0038003921508789062,-0.013329587876796722,-0.016155950725078583
1772720944262559200,9.178559326171875,0.0024633407592773438,-0.002744808793067932,-0.0018603503704071045
1772720944281155800,9.19715576171875,0.0047969818115234375,0.0029768571257591248,-0.01486506313085556
1772720944299752200,9.215752197265624,-0.0012035369873046875,-0.015860512852668762,0.0019478872418403625
1772720944318348500,9.2343486328125,0.0070934295654296875,-0.009434029459953308,0.012119024991989136
1772720944336945200,9.252945068359375,0.0032138824462890625,0.01877065747976303,0.0034997090697288513
1772720944355541500,9.27154150390625,0.0006389617919921875,-0.036954350769519806,-0.011795848608016968
1772720944374138000,9.29013818359375,-0.0029296875,-0.013899639248847961,0.0009704530239105225
1772720944392734500,9.308734375,0.011404991149902344,0.01870819926261902,-0.00732383131980896
1772720944411331000,9.3273310546875,0.012304306030273438,-0.03809244930744171,-0.0061828941106796265
1772720944429927400,9.345927490234375,-0.0008068084716796875,0.03302394598722458,0.009080417454242706
1772720944448523800,9.364523681640625,0.0026311874389648438,-0.07263529300689697,0.027432948350906372
1772720944467120400,9.383120361328125,-0.016429901123046875,0.02419360727071762,-0.0022278279066085815
1772720944485716700,9.401716796875,0.0028781890869140625,-0.013972915709018707,-0.011341899633407593
1772720944504313300,9.420313232421876,0.00292205810546875,-0.021141476929187775,0.007582157850265503
1772720944522909700,9.43890966796875,0.0018472671508789062,0.029304757714271545,-0.0030064135789871216
1772720944541506000,9.457506103515625,0.004317283630371094,-0.043688684701919556,-0.0063332319259643555
1772720944560102700,9.4761025390625,0.004410743713378906,0.020503796637058258,-0.008464857935905457
1772720944578699000,9.494698974609374,0.01616954803466797,-0.020120158791542053,-0.004830464720726013
1772720944597295600,9.513295654296876,0.0029115676879882812,0.005083873867988586,0.0010426416993141174
1772720944615892000,9.53189208984375,0.004033088684082031,-0.0038419365882873535,-0.010544151067733765
1772720944634488300,9.55048828125,0.012155532836914062,-0.03892100602388382,-0.0034925639629364014
1772720944653085000,9.5690849609375,-0.006931304931640625,0.011999599635601044,-0.0034147799015045166
1772720944671681300,9.587681396484374,-0.0031309127807617188,-0.04010853171348572,-0.013853423297405243
1772720944690277600,9.606277587890625,0.0027189254760742188,-0.01933193951845169,-0.000910930335521698
1772720944708874200,9.624874267578125,-0.005466461181640625,-0.0005677342414855957,0.001409977674484253
1772720944727470600,9.643470703125,-0.0041656494140625,-0.01125314086675644,-0.0009811297059059143
1772720944746067200,9.662067138671874,0.008658409118652344,0.005157209932804108,0.00030440837144851685
1772720944764663600,9.68066357421875,0.0059032440185546875,-0.01833624392747879,0.0014445781707763672
1772720944783260000,9.699260009765625,-0.0059185028076171875,-0.00025250017642974854,0.006963588297367096
1772720944801856500,9.7178564453125,-0.009288787841796875,-0.0053113847970962524,0.012449078261852264
1772720944820452900,9.736452880859375,0.0027837753295898438,-0.0026715323328971863,0.006590455770492554
1772720944839049200,9.75504931640625,0.0038509368896484375,-0.000658087432384491,-0.004230007529258728
1772720944857645800,9.773645751953126,0.007294654846191406,-0.020653605461120605,0.0027463138103485107
1772720944876242200,9.7922421875,0.00007724761962890625,0.000529952347278595,-0.006767667829990387
1772720944894838800,9.8108388671875,0.00009632110595703125,-0.011426493525505066,0.00740119069814682
1772720944913435100,9.82943505859375,0.014172554016113281,-0.004328317940235138,0.005867570638656616
1772720944932031500,9.848031494140624,-0.005000114440917969,0.0003809332847595215,-0.01054447889328003
1772720944950627800,9.8666279296875,0.0010480880737304688,-0.0019285976886749268,-0.002945229411125183
1772720944969224400,9.885224365234375,0.0058002471923828125,0.002664528787136078,-0.005276836454868317
1772720944987820800,9.90382080078125,0.008062362670898438,-0.005698025226593018,0.013676978647708893
1772720945006417400,9.92241748046875,-0.0002613067626953125,-0.005749456584453583,-0.001910775899887085
1772720945025013800,9.941013671875,0.004631996154785156,0.0036033987998962402,-0.004321254789829254
1772720945043610000,9.959610107421875,-0.0013055801391601562,-0.008312799036502838,-0.0009607374668121338
1772720945062206500,9.97820654296875,0.009249687194824219,-0.0002893805503845215,-0.008060090243816376
1772720945080803000,9.996802978515625,-0.009603500366210938,-0.01808112859725952,0.001563630998134613
1772720945099399400,10.0153994140625,-0.016577720642089844,-0.011763535439968109,-0.005373336374759674
1772720945117995800,10.033995849609376,0.00240325927734375,-0.00019530951976776123,0.006283842027187347
1772720945136592400,10.05259228515625,-0.00010585784912109375,-0.01067718118429184,0.002618163824081421
1772720945155188700,10.071188720703125,0.012723922729492188,-0.0011908933520317078,0.00027839839458465576
1772720945173785000,10.08978515625,0.0062656402587890625,-0.025090113282203674,0.002549387514591217
1772720945192381700,10.108381591796874,0.00021648406982421875,-0.010493434965610504,0.0093722864985466
1772720945210978000,10.12697802734375,-0.0055141448974609375,0.0059926435351371765,-0.0014235824346542358
1772720945229574400,10.145574462890625,-0.0019397735595703125,-0.017908290028572083,-0.008461281657218933
1772720945248170800,10.164170654296875,0.0039691925048828125,-0.02016172558069229,-0.0025497078895568848
1772720945266767400,10.182767333984375,-0.0034551620483398438,-0.01164998859167099,-0.002484731376171112
1772720945285363700,10.20136376953125,-0.019768714904785156,-0.0058459267020225525,-0.014377802610397339
1772720945303960000,10.2199599609375,-0.009778022766113281,-0.003449849784374237,-0.006055451929569244
1772720945322556400,10.238556396484375,-0.0049419403076171875,-0.015380039811134338,0.0008668005466461182
1772720945341153000,10.257153076171875,-0.011875152587890625,-0.012930341064929962,-0.012359745800495148
1772720945359749400,10.275749267578124,0.011890411376953125,-0.011601999402046204,0.006697073578834534
1772720945378345700,10.294345703125,-0.0012464523315429688,-0.019858695566654205,0.007474087178707123
1772720945396942000,10.312942138671875,0.010641098022460938,-0.016031354665756226,0.006236918270587921
1772720945415538400,10.331538330078125,-0.00229644775390625,-0.016063936054706573,-0.004490017890930176
1772720945434135000,10.350135009765625,0.007290840148925781,-0.003993421792984009,-0.017406880855560303
1772720945452731400,10.3687314453125,0.0024232864379882812,-0.012215793132781982,0.0015859603881835938
1772720945471327700,10.38732763671875,0.00363922119140625,-0.0015484914183616638,0.0027010664343833923
1772720945489924400,10.40592431640625,0.011893272399902344,-0.0005275160074234009,0.004698358476161957
1772720945508520700,10.424520751953125,0.0046176910400390625,-0.007616102695465088,-0.009333036839962006
1772720945527117000,10.443116943359374,-0.0049648284912109375,-0.012239880859851837,-0.011548466980457306
1772720945545713400,10.46171337890625,0.00545501708984375,-0.002835609018802643,-0.006518319249153137
1772720945564310000,10.48031005859375,-0.008762359619140625,-0.008770763874053955,-0.0006633773446083069
1772720945582906400,10.49890625,0.012644767761230469,-0.005050539970397949,-0.006644308567047119
1772720945601502700,10.517502685546875,-0.007595062255859375,-0.008704952895641327,-0.008776865899562836
1772720945620099000,10.53609912109375,0.0033254623413085938,-0.004014238715171814,-0.0028499290347099304
1772720945638695400,10.5546953125,-0.002765655517578125,-0.015836045145988464,-0.004142478108406067
1772720945657291800,10.573291748046875,0.005309104919433594,0.0019458681344985962,-0.0018475353717803955
1772720945675888400,10.591888427734375,0.0017824172973632812,-0.017017900943756104,0.0076717957854270935
1772720945694484700,10.610484619140625,0.0028429031372070312,-0.011075422167778015,-0.00535612553358078
1772720945713081000,10.6290810546875,0.010005950927734375,-0.007440119981765747,-0.002837352454662323
1772720945731677400,10.647677490234376,0.0014810562133789062,-0.0049963220953941345,0.001636989414691925
1772720945750273800,10.666273681640625,-0.008074760437011719,0.005641132593154907,-0.00888291746377945
1772720945768870400,10.684870361328125,0.010976791381835938,-0.0018022432923316956,-0.005121104419231415
1772720945787466800,10.703466796875,0.004832267761230469,-0.007687792181968689,-0.007427796721458435
1772720945806063000,10.72206298828125,-0.009404182434082031,-0.015877090394496918,-0.0038196295499801636
1772720945824659500,10.740659423828125,-0.0034055709838867188,-0.006087295711040497,-0.0014333203434944153
1772720945843256000,10.759256103515625,-0.0011911392211914062,-0.003769226372241974,-0.003769703209400177
1772720945861852400,10.777852294921875,-0.005894660949707031,0.005553595721721649,-0.0035302042961120605
1772720945880448800,10.79644873046875,-0.0034046173095703125,0.0016080737113952637,-0.0033885017037391663
1772720945899045000,10.815045166015626,-0.0009555816650390625,-0.011298976838588715,0.0048998817801475525
1772720945917641500,10.833641357421875,0.0061550140380859375,-0.006361164152622223,-0.0081692636013031
1772720945936237800,10.85223779296875,0.007523536682128906,-0.01570819318294525,-0.007081367075443268
1772720945954834200,10.870834228515625,0.003943443298339844,-0.016700029373168945,0.02257385104894638
1772720945973430500,10.889430419921876,-0.0008907318115234375,-0.004687309265136719,-0.009572654962539673
1772720945992027100,10.908027099609376,0.007355690002441406,0.00231199711561203,-0.0071266815066337585
1772720946010623500,10.92662353515625,-0.004551887512207031,0.0009432211518287659,0.00576038658618927
1772720946029219800,10.9452197265625,-0.0022439956665039062,-0.0015448108315467834,0.0009086281061172485
1772720946047816200,10.963816162109374,0.001087188720703125,-0.02511170506477356,-0.005050040781497955
1772720946066412500,10.98241259765625,-0.004612922668457031,-0.01201215386390686,-0.006133325397968292
1772720946085009000,11.0010087890625,-0.007987022399902344,-0.0012128651142120361,0.005799964070320129
1772720946103605500,11.01960546875,-0.000583648681640625,-0.007276222109794617,-0.012908414006233215
1772720946122201900,11.038201904296875,0.004063606262207031,-0.0166599303483963,0.006150282919406891
1772720946140798200,11.056798095703124,0.003871917724609375,0.0060264840722084045,-0.004550598561763763
1772720946159394600,11.07539453125,-0.0008220672607421875,-0.008433498442173004,-0.002332530915737152
1772720946177991000,11.093990966796875,0.0014619827270507812,0.003377556800842285,0.013910971581935883
1772720946196587300,11.112587158203125,-0.0008983612060546875,-0.010971762239933014,-0.01350180059671402
1772720946215183600,11.13118359375,0.008623123168945312,-0.009775392711162567,-0.006344407796859741
1772720946233780200,11.1497802734375,0.008359909057617188,-0.002573862671852112,-0.0014297887682914734
1772720946252376600,11.16837646484375,0.48894309997558594,-0.057312704622745514,0.15701770782470703
1772720946270973000,11.186972900390625,0.10713577270507812,0.009892269968986511,0.016326844692230225
1772720946289569300,11.2055693359375,-0.004261016845703125,-0.018971413373947144,-0.013676688075065613
1772720946308165600,11.22416552734375,0.015996932983398438,0.0015012919902801514,0.010410092771053314
