time,seconds_elapsed,z,y,x
1772720935178063400,0.0940634765625,0.000839939049910754,-0.0011453714687377214,0.0009162971982732415
1772720935196660200,0.11266015625,0.0011453714687377214,-0.0005345066892914474,0.0021380267571657896
1772720935215257000,0.131257080078125,0.0011453714687377214,-0.00022907429956831038,0.001832594396546483
1772720935233854000,0.14985400390625,0.001450803829357028,-0.0011453714687377214,0.001832594396546483
1772720935252451000,0.168451171875,0.001450803829357028,-0.001450803829357028,0.002443459117785096
1772720935271048000,0.1870478515625,0.0011453714687377214,-0.0005345066892914474,0.002443459117785096
1772720935289644800,0.205644775390625,0.000839939049910754,-0.0005345066892914474,0.001832594396546483
1772720935308241700,0.22424169921875,0.0017562361899763346,-0.00022907429956831038,0.0021380267571657896
1772720935326838500,0.242838623046875,0.002061668550595641,-0.000839939049910754,0.0021380267571657896
1772720935345435400,0.261435302734375,0.000839939049910754,-0.00022907429956831038,0.0021380267571657896
1772720935364032300,0.2800322265625,0.001450803829357028,-0.00022907429956831038,0.0015271619195118546
1772720935382629000,0.298629150390625,0.001450803829357028,-0.0005345066892914474,0.002443459117785096
1772720935401226000,0.31722607421875,0.0011453714687377214,-0.0005345066892914474,0.002443459117785096
1772720935419822800,0.33582275390625,0.0011453714687377214,-0.0005345066892914474,0.0027488914784044027
1772720935438419700,0.354419677734375,0.000839939049910754,-0.00022907429956831038,0.0021380267571657896
1772720935457016600,0.3730166015625,0.0011453714687377214,-0.0005345066892914474,0.0030543238390237093
1772720935475613400,0.391613525390625,0.0011453714687377214,0.00007635809743078426,0.0021380267571657896
1772720935494210300,0.410210205078125,0.0005345066892914474,-0.000839939049910754,0.0030543238390237093
1772720935512807200,0.42880712890625,0.0011453714687377214,-0.0005345066892914474,0.0015271619195118546
1772720935531404000,0.447404052734375,0.0005345066892914474,-0.0005345066892914474,0.002443459117785096
1772720935550001000,0.4660009765625,0.000839939049910754,-0.0011453714687377214,0.0021380267571657896
1772720935568597800,0.48459765625,0.000839939049910754,-0.0005345066892914474,0.0027488914784044027
1772720935587194600,0.503194580078125,-0.00038179047987796366,0.00038179047987796366,0.002443459117785096
1772720935605791500,0.52179150390625,0.0011453714687377214,0.00007635809743078426,0.0030543238390237093
1772720935624388400,0.540388427734375,0.000839939049910754,-0.000839939049910754,0.0021380267571657896
1772720935642985200,0.558985107421875,0.001450803829357028,-0.0005345066892914474,0.002443459117785096
1772720935661582000,0.57758203125,0.0011453714687377214,-0.0005345066892914474,0.0027488914784044027
1772720935680179000,0.596178955078125,0.0005345066892914474,-0.0011453714687377214,0.001221729558892548
1772720935698775800,0.61477587890625,0.000839939049910754,-0.00022907429956831038,0.001832594396546483
1772720935717372700,0.63337255859375,-0.00007635809743078426,0.00007635809743078426,0.0027488914784044027
1772720935735969500,0.651969482421875,0.0017562361899763346,0.00007635809743078426,0.001832594396546483
1772720935754566400,0.67056640625,0.001450803829357028,-0.0005345066892914474,0.001832594396546483
1772720935773163300,0.689163330078125,0.0011453714687377214,-0.000839939049910754,0.001832594396546483
1772720935791760100,0.707760009765625,0.0011453714687377214,0.00007635809743078426,0.0021380267571657896
1772720935810357000,0.72635693359375,0.0011453714687377214,-0.00022907429956831038,0.0021380267571657896
1772720935828953900,0.744953857421875,0.0011453714687377214,0.00007635809743078426,0.002443459117785096
1772720935847550700,0.76355078125,-0.00007635809743078426,-0.00022907429956831038,0.0015271619195118546
1772720935866147600,0.782147705078125,0.0011453714687377214,-0.0011453714687377214,0.003359756199643016
1772720935884744400,0.800744384765625,0.000839939049910754,-0.000839939049910754,0.0030543238390237093
1772720935903341300,0.81934130859375,0.0005345066892914474,-0.0005345066892914474,0.0027488914784044027
1772720935921938200,0.837938232421875,0.0011453714687377214,-0.00022907429956831038,0.0021380267571657896
1772720935940535000,0.85653515625,0.0011453714687377214,-0.00022907429956831038,0.0027488914784044027
1772720935959132000,0.8751318359375,0.0011453714687377214,-0.0011453714687377214,0.0027488914784044027
1772720935977728800,0.893728759765625,0.001450803829357028,-0.0005345066892914474,0.0015271619195118546
1772720935996325600,0.91232568359375,0.000839939049910754,-0.000839939049910754,0.001832594396546483
1772720936014922500,0.930922607421875,0.0011453714687377214,0.00007635809743078426,0.0021380267571657896
1772720936033519400,0.949519287109375,0.00022907429956831038,-0.000839939049910754,0.0027488914784044027
1772720936052116200,0.9681162109375,0.0017562361899763346,-0.0011453714687377214,0.002443459117785096
1772720936070713000,0.986713134765625,0.001450803829357028,-0.000839939049910754,0.002443459117785096
1772720936089310000,1.00531005859375,0.0005345066892914474,0.00007635809743078426,0.001832594396546483
1772720936107906800,1.02390673828125,0.001450803829357028,-0.000839939049910754,0.0030543238390237093
1772720936126503700,1.042503662109375,0.001450803829357028,-0.000839939049910754,0.002443459117785096
1772720936145100500,1.0611005859375,0.001450803829357028,-0.0011453714687377214,0.0021380267571657896
1772720936163697400,1.079697509765625,0.000839939049910754,-0.000839939049910754,0.0027488914784044027
1772720936182294300,1.098294189453125,0.0011453714687377214,-0.0011453714687377214,0.002443459117785096
1772720936200891100,1.11689111328125,0.000839939049910754,-0.0005345066892914474,0.0027488914784044027
1772720936219488000,1.135488037109375,0.0005345066892914474,-0.0011453714687377214,0.002443459117785096
1772720936238084900,1.1540849609375,0.001450803829357028,-0.0005345066892914474,0.002443459117785096
1772720936256681700,1.172681640625,0.001450803829357028,-0.0011453714687377214,0.002443459117785096
1772720936275278600,1.191278564453125,0.000839939049910754,-0.0005345066892914474,0.0027488914784044027
1772720936293875500,1.20987548828125,0.0005345066892914474,-0.00022907429956831038,0.0021380267571657896
1772720936312472300,1.228472412109375,0.000839939049910754,-0.00022907429956831038,0.0027488914784044027
1772720936331069200,1.247069091796875,0.0011453714687377214,-0.0011453714687377214,0.0021380267571657896
1772720936349666000,1.265666015625,0.00022907429956831038,-0.00022907429956831038,0.002443459117785096
1772720936368263000,1.284262939453125,0.000839939049910754,-0.0005345066892914474,0.0015271619195118546
1772720936386859800,1.30285986328125,0.0011453714687377214,-0.000839939049910754,0.001832594396546483
1772720936405456400,1.321456298828125,0.00022907429956831038,-0.0005345066892914474,0.0015271619195118546
1772720936424053200,1.34005322265625,0.000839939049910754,0.00007635809743078426,0.002443459117785096
1772720936442650000,1.358650146484375,0.000839939049910754,-0.00022907429956831038,0.003359756199643016
1772720936461247000,1.3772470703125,0.002061668550595641,-0.000839939049910754,0.0021380267571657896
1772720936479843800,1.39584375,0.0011453714687377214,-0.0005345066892914474,0.0009162971982732415
1772720936498440700,1.414440673828125,0.002061668550595641,-0.0005345066892914474,0.0021380267571657896
1772720936517037600,1.43303759765625,-0.00007635809743078426,0.0006872228696011007,0.0030543238390237093
1772720936535634400,1.451634521484375,0.000839939049910754,-0.000839939049910754,0.0021380267571657896
1772720936554231300,1.470231201171875,-0.00007635809743078426,-0.00022907429956831038,0.002443459117785096
1772720936572828200,1.488828125,0.0005345066892914474,-0.0005345066892914474,0.001832594396546483
1772720936591425000,1.507425048828125,0.000839939049910754,-0.0005345066892914474,0.0015271619195118546
1772720936610022000,1.52602197265625,0.0011453714687377214,-0.00022907429956831038,0.001221729558892548
1772720936628618800,1.54461865234375,0.001450803829357028,-0.000839939049910754,0.002443459117785096
1772720936647215600,1.563215576171875,0.0017562361899763346,-0.0005345066892914474,0.002443459117785096
1772720936665812200,1.581812255859375,0.000839939049910754,-0.000839939049910754,0.0027488914784044027
1772720936684409000,1.6004091796875,0.00022907429956831038,0.00007635809743078426,0.0015271619195118546
1772720936703006000,1.619005859375,0.000839939049910754,-0.00022907429956831038,0.0027488914784044027
1772720936721602800,1.637602783203125,0.000839939049910754,-0.00022907429956831038,0.002443459117785096
1772720936740199700,1.65619970703125,0.0011453714687377214,-0.0005345066892914474,0.0027488914784044027
1772720936758796500,1.674796630859375,0.000839939049910754,-0.00022907429956831038,0.002443459117785096
1772720936777393400,1.693393310546875,-0.00007635809743078426,-0.000839939049910754,0.0027488914784044027
1772720936795990300,1.711990234375,-0.00007635809743078426,0.00007635809743078426,0.0021380267571657896
1772720936814587100,1.730587158203125,-0.00007635809743078426,-0.00022907429956831038,0.0015271619195118546
1772720936833183700,1.749183837890625,0.000839939049910754,-0.000839939049910754,0.0021380267571657896
1772720936851780900,1.76778076171875,0.000839939049910754,-0.00022907429956831038,0.0021380267571657896
1772720936870377500,1.78637744140625,0.0005345066892914474,0.00007635809743078426,0.002443459117785096
1772720936888974300,1.804974365234375,0.0017562361899763346,-0.00022907429956831038,0.0021380267571657896
1772720936907571200,1.8235712890625,0.0005345066892914474,-0.00022907429956831038,0.003359756199643016
1772720936926168000,1.84216796875,0.0005345066892914474,-0.0005345066892914474,0.0015271619195118546
1772720936944765000,1.860764892578125,0.0017562361899763346,0.00007635809743078426,0.002443459117785096
1772720936963361800,1.87936181640625,0.000839939049910754,-0.00022907429956831038,0.002443459117785096
1772720936981958700,1.897958740234375,0.001450803829357028,-0.0011453714687377214,0.0021380267571657896
1772720937000555500,1.916555419921875,0.001450803829357028,-0.000839939049910754,0.001832594396546483
1772720937019152400,1.93515234375,0.0005345066892914474,-0.00022907429956831038,0.003359756199643016
1772720937037749000,1.9537490234375,0.000839939049910754,-0.00022907429956831038,0.001832594396546483
1772720937056345900,1.972345947265625,0.0011453714687377214,-0.0005345066892914474,0.001832594396546483
1772720937074942700,1.990942626953125,0.0005345066892914474,-0.000839939049910754,0.002443459117785096
1772720937093539600,2.00953955078125,0.00022907429956831038,-0.001450803829357028,0.0027488914784044027
1772720937112136400,2.028136474609375,0.000839939049910754,-0.00022907429956831038,0.002443459117785096
1772720937130733300,2.0467333984375,0.00022907429956831038,0.00007635809743078426,0.0030543238390237093
1772720937149330200,2.065330078125,0.000839939049910754,-0.000839939049910754,0.0030543238390237093
1772720937167927000,2.083927001953125,0.0011453714687377214,-0.00022907429956831038,0.002443459117785096
1772720937186523600,2.102523681640625,0.0017562361899763346,-0.00022907429956831038,0.002443459117785096
1772720937205120500,2.12112060546875,0.0011453714687377214,-0.0005345066892914474,0.001832594396546483
1772720937223717600,2.139717529296875,-0.00007635809743078426,-0.0005345066892914474,0.001832594396546483
1772720937242314200,2.158314208984375,0.000839939049910754,-0.0005345066892914474,0.0021380267571657896
1772720937260911000,2.1769111328125,0.001450803829357028,-0.0005345066892914474,0.002443459117785096
1772720937279508000,2.195508056640625,0.0005345066892914474,-0.00022907429956831038,0.002443459117785096
1772720937298104800,2.214104736328125,0.001450803829357028,-0.0005345066892914474,0.0027488914784044027
1772720937316701700,2.23270166015625,0.000839939049910754,0.00038179047987796366,0.002443459117785096
1772720937335298600,2.251298583984375,0.0011453714687377214,-0.00022907429956831038,0.0030543238390237093
1772720937353895400,2.2698955078125,0.0005345066892914474,0.00038179047987796366,0.002443459117785096
1772720937372492300,2.2884921875,0.002061668550595641,-0.000839939049910754,0.003359756199643016
1772720937391089000,2.3070888671875,0.0005345066892914474,-0.00022907429956831038,0.0030543238390237093
1772720937409685800,2.325685791015625,0.0005345066892914474,0.00007635809743078426,0.0015271619195118546
1772720937428282600,2.34428271484375,0.0005345066892914474,0.00007635809743078426,0.0021380267571657896
1772720937446879500,2.36287939453125,0.000839939049910754,-0.0005345066892914474,0.0021380267571657896
1772720937465476400,2.381476318359375,0.0005345066892914474,-0.00022907429956831038,0.0027488914784044027
1772720937484073200,2.4000732421875,0.0005345066892914474,-0.000839939049910754,0.001832594396546483
1772720937502670000,2.418670166015625,0.000839939049910754,-0.00022907429956831038,0.002443459117785096
1772720937521267000,2.437266845703125,0.00022907429956831038,-0.00022907429956831038,0.002443459117785096
1772720937539863800,2.45586376953125,0.0005345066892914474,0.00038179047987796366,0.0027488914784044027
1772720937558460400,2.47446044921875,0.001450803829357028,-0.0005345066892914474,0.002443459117785096
1772720937577057300,2.493057373046875,0.0005345066892914474,-0.00022907429956831038,0.0021380267571657896
1772720937595654400,2.511654296875,0.0005345066892914474,-0.00022907429956831038,0.001832594396546483
1772720937614251000,2.5302509765625,0.0011453714687377214,-0.00022907429956831038,0.0021380267571657896
1772720937632848000,2.548847900390625,0.00022907429956831038,-0.00022907429956831038,0.0027488914784044027
1772720937651444700,2.56744482421875,0.0005345066892914474,0.00007635809743078426,0.0027488914784044027
1772720937670041600,2.58604150390625,0.00022907429956831038,-0.0005345066892914474,0.0021380267571657896
1772720937688638500,2.604638427734375,0.0011453714687377214,-0.00022907429956831038,0.0021380267571657896
1772720937707235300,2.6232353515625,0.00022907429956831038,0.00007635809743078426,0.003665188793092966
1772720937725832200,2.641832275390625,0.0005345066892914474,0.00038179047987796366,0.0021380267571657896
1772720937744429000,2.660428955078125,0.001450803829357028,0.00007635809743078426,0.0027488914784044027
1772720937763025700,2.679025634765625,0.000839939049910754,-0.0005345066892914474,0.0027488914784044027
1772720937781622500,2.69762255859375,0.00022907429956831038,-0.0005345066892914474,0.0021380267571657896
1772720937800219400,2.716219482421875,0.000839939049910754,-0.00022907429956831038,0.0030543238390237093
1772720937818816300,2.734816162109375,0.0005345066892914474,-0.0005345066892914474,0.0027488914784044027
1772720937837413000,2.7534130859375,0.0005345066892914474,-0.00022907429956831038,0.0021380267571657896
1772720937856010000,2.772010009765625,0.0005345066892914474,-0.00022907429956831038,0.002443459117785096
1772720937874606800,2.79060693359375,0.0011453714687377214,-0.00022907429956831038,0.0030543238390237093
1772720937893203500,2.809203369140625,0.000839939049910754,0.00038179047987796366,0.0027488914784044027
1772720937911800300,2.82780029296875,0.000839939049910754,-0.0005345066892914474,0.0030543238390237093
1772720937930397200,2.846397216796875,0.000839939049910754,-0.000839939049910754,0.0015271619195118546
1772720937948994000,2.864994140625,0.001450803829357028,-0.0011453714687377214,0.002443459117785096
1772720937967591000,2.8835908203125,0.0005345066892914474,-0.00022907429956831038,0.0027488914784044027
1772720937986187800,2.902187744140625,0.001450803829357028,-0.0005345066892914474,0.0027488914784044027
1772720938004784600,2.92078466796875,0.0005345066892914474,-0.00022907429956831038,0.002443459117785096
1772720938023381200,2.93938134765625,0.0005345066892914474,-0.0005345066892914474,0.0027488914784044027
1772720938041978400,2.957978271484375,0.000839939049910754,0.00007635809743078426,0.0021380267571657896
1772720938060575000,2.976574951171875,0.0011453714687377214,-0.0005345066892914474,0.0027488914784044027
1772720938079171800,2.995171875,0.00022907429956831038,-0.000839939049910754,0.002443459117785096
1772720938097768700,3.013768798828125,0.0011453714687377214,-0.000839939049910754,0.002443459117785096
1772720938116365600,3.032365478515625,0.000839939049910754,-0.00022907429956831038,0.0030543238390237093
1772720938134962200,3.050962158203125,0.00022907429956831038,-0.00022907429956831038,0.0030543238390237093
1772720938153559300,3.069559326171875,0.0005345066892914474,0.00007635809743078426,0.001221729558892548
1772720938172156000,3.088156005859375,0.000839939049910754,-0.0005345066892914474,0.002443459117785096
1772720938190752800,3.106752685546875,0.000839939049910754,-0.00022907429956831038,0.0027488914784044027
1772720938209349600,3.125349609375,0.000839939049910754,-0.00022907429956831038,0.001832594396546483
1772720938227946500,3.143946533203125,0.0011453714687377214,-0.00022907429956831038,0.0021380267571657896
1772720938246543400,3.16254345703125,0.0005345066892914474,-0.00022907429956831038,0.0015271619195118546
1772720938265140200,3.18114013671875,0.001450803829357028,-0.0005345066892914474,0.003359756199643016
1772720938283736800,3.19973681640625,0.0005345066892914474,-0.00022907429956831038,0.0021380267571657896
1772720938302333700,3.218333740234375,0.0011453714687377214,-0.00022907429956831038,0.001832594396546483
1772720938320930600,3.2369306640625,-0.00007635809743078426,-0.00022907429956831038,0.001832594396546483
1772720938339527400,3.25552734375,0.000839939049910754,-0.00022907429956831038,0.0021380267571657896
1772720938358124300,3.274124267578125,0.00022907429956831038,-0.00022907429956831038,0.0015271619195118546
1772720938376721000,3.292720947265625,0.0011453714687377214,-0.000839939049910754,0.0021380267571657896
1772720938395317800,3.31131787109375,0.0011453714687377214,-0.00022907429956831038,0.001832594396546483
1772720938413914600,3.32991455078125,0.000839939049910754,-0.00022907429956831038,0.002443459117785096
1772720938432511500,3.348511474609375,0.001450803829357028,-0.0005345066892914474,0.0021380267571657896
1772720938451108400,3.3671083984375,0.000839939049910754,-0.0005345066892914474,0.0027488914784044027
1772720938469705000,3.385705078125,0.001450803829357028,-0.000839939049910754,0.002443459117785096
1772720938488301800,3.4043017578125,0.0005345066892914474,-0.0005345066892914474,0.003359756199643016
1772720938506898700,3.422898681640625,-0.00007635809743078426,-0.00022907429956831038,0.0021380267571657896
1772720938525495600,3.44149560546875,0.0005345066892914474,0.00007635809743078426,0.0021380267571657896
1772720938544092200,3.460092041015625,0.000839939049910754,0.00007635809743078426,0.0021380267571657896
1772720938562689000,3.47868896484375,0.0005345066892914474,0.00007635809743078426,0.002443459117785096
1772720938581286000,3.497285888671875,0.0011453714687377214,-0.00022907429956831038,0.0027488914784044027
1772720938599882500,3.515882568359375,0.0011453714687377214,-0.00022907429956831038,0.002443459117785096
1772720938618479600,3.534479736328125,0.000839939049910754,0.00007635809743078426,0.0030543238390237093
1772720938637076200,3.553076171875,0.00022907429956831038,-0.000839939049910754,0.001832594396546483
1772720938655673000,3.571673095703125,0.0005345066892914474,-0.0005345066892914474,0.002443459117785096
1772720938674270000,3.59027001953125,0.00022907429956831038,0.00007635809743078426,0.0027488914784044027
1772720938692866600,3.608866455078125,0.0005345066892914474,0.00038179047987796366,0.002443459117785096
1772720938711463400,3.62746337890625,0.0017562361899763346,-0.00022907429956831038,0.0021380267571657896
1772720938730060300,3.646060302734375,0.0005345066892914474,-0.00022907429956831038,0.0027488914784044027
1772720938748657200,3.6646572265625,0.00022907429956831038,0.00007635809743078426,0.0021380267571657896
1772720938767253800,3.683253662109375,0.0017562361899763346,-0.000839939049910754,0.002443459117785096
1772720938785850600,3.7018505859375,0.001450803829357028,0.00007635809743078426,0.0030543238390237093
1772720938804447500,3.720447509765625,-0.00007635809743078426,0.0009926552884280682,0.0027488914784044027
1772720938823044000,3.739044189453125,0.0011453714687377214,-0.0005345066892914474,0.001221729558892548
1772720938841641000,3.757640869140625,0.000839939049910754,0.00007635809743078426,0.0021380267571657896
1772720938860237800,3.77623779296875,0.0005345066892914474,0.00007635809743078426,0.002443459117785096
1772720938878834700,3.794834716796875,0.0011453714687377214,-0.00022907429956831038,0.001832594396546483
1772720938897431300,3.813431396484375,0.0005345066892914474,0.00038179047987796366,0.001832594396546483
1772720938916028200,3.832028076171875,-0.00038179047987796366,0.00007635809743078426,0.0030543238390237093
1772720938934625000,3.850625,0.0005345066892914474,0.00007635809743078426,0.002443459117785096
1772720938953221600,3.8692216796875,0.00022907429956831038,0.00007635809743078426,0.0021380267571657896
1772720938971818500,3.887818603515625,0.000839939049910754,-0.00022907429956831038,0.0027488914784044027
1772720938990415400,3.906415283203125,-0.0006872228696011007,-0.000839939049910754,0.001832594396546483
1772720939009012000,3.925011962890625,-0.00007635809743078426,-0.00022907429956831038,0.001832594396546483
1772720939027608800,3.94360888671875,0.00022907429956831038,0.00007635809743078426,0.0027488914784044027
1772720939046205700,3.962205810546875,0.0011453714687377214,0.00007635809743078426,0.002443459117785096
1772720939064802300,3.98080224609375,0.0005345066892914474,-0.00022907429956831038,0.001832594396546483
1772720939083399200,3.999399169921875,0.000839939049910754,-0.00022907429956831038,0.0027488914784044027
1772720939101996000,4.01799609375,0.00022907429956831038,-0.0005345066892914474,0.001832594396546483
1772720939120592600,4.036592529296875,0.0005345066892914474,-0.00022907429956831038,0.001832594396546483
1772720939139189500,4.055189453125,0.000839939049910754,0.0006872228696011007,0.0027488914784044027
1772720939157786400,4.073786376953125,0.0011453714687377214,0.00007635809743078426,0.0021380267571657896
1772720939176383000,4.092383056640625,0.00022907429956831038,0.00038179047987796366,0.0015271619195118546
1772720939194979800,4.110979736328125,0.0005345066892914474,-0.0005345066892914474,0.001832594396546483
1772720939213576400,4.129576416015625,-0.00007635809743078426,-0.0005345066892914474,0.002443459117785096
1772720939232173300,4.14817333984375,0.0011453714687377214,0.00007635809743078426,0.001832594396546483
1772720939250770200,4.166770263671875,0.00022907429956831038,-0.0005345066892914474,0.0015271619195118546
1772720939269366800,4.18536669921875,0.001450803829357028,-0.00022907429956831038,0.001832594396546483
1772720939287963600,4.203963623046875,0.000839939049910754,0.00007635809743078426,0.001832594396546483
1772720939306560500,4.222560546875,0.000839939049910754,-0.000839939049910754,0.0027488914784044027
1772720939325157000,4.2411572265625,-0.00007635809743078426,0.00038179047987796366,0.0021380267571657896
1772720939343754000,4.25975390625,-0.00007635809743078426,-0.00022907429956831038,0.0027488914784044027
1772720939362350800,4.278350830078125,0.0011453714687377214,-0.0005345066892914474,0.0027488914784044027
1772720939380947500,4.296947509765625,0.001450803829357028,0.00007635809743078426,0.001832594396546483
1772720939399544300,4.31554443359375,0.000839939049910754,-0.0005345066892914474,0.001832594396546483
1772720939418141000,4.334140869140625,0.0005345066892914474,-0.0005345066892914474,0.0021380267571657896
1772720939436737800,4.35273779296875,0.000839939049910754,0.00007635809743078426,0.002443459117785096
1772720939455334700,4.371334716796875,0.00022907429956831038,0.00038179047987796366,0.002443459117785096
1772720939473931300,4.38993115234375,0.0017562361899763346,-0.00022907429956831038,0.0021380267571657896
1772720939492528000,4.408528076171875,0.0011453714687377214,0.00007635809743078426,0.002443459117785096
1772720939511124700,4.427124755859375,0.001450803829357028,0.00038179047987796366,0.001221729558892548
1772720939529721600,4.4457216796875,0.00022907429956831038,0.00038179047987796366,0.001832594396546483
1772720939548318500,4.464318359375,-0.00007635809743078426,0.00038179047987796366,0.0009162971982732415
1772720939566915000,4.4829150390625,-0.00038179047987796366,0.00038179047987796366,0.0030543238390237093
1772720939585512000,4.501511962890625,0.0005345066892914474,-0.0005345066892914474,0.0009162971982732415
1772720939604108500,4.520108642578125,0.0005345066892914474,0.00007635809743078426,0.0021380267571657896
1772720939622705400,4.538705322265625,-0.00007635809743078426,-0.00022907429956831038,0.0027488914784044027
1772720939641302000,4.557302001953125,-0.00007635809743078426,-0.0011453714687377214,0.001832594396546483
1772720939659899000,4.57589892578125,0.00022907429956831038,-0.00022907429956831038,0.002443459117785096
1772720939678495700,4.594495849609375,0.00022907429956831038,-0.00022907429956831038,0.002443459117785096
1772720939697092400,4.61309228515625,0.0011453714687377214,0.00007635809743078426,0.0030543238390237093
1772720939715689000,4.63168896484375,-0.00007635809743078426,0.0009926552884280682,0.001221729558892548
1772720939734285800,4.650285888671875,0.00022907429956831038,-0.00022907429956831038,0.0015271619195118546
1772720939752882700,4.668882568359375,0.00022907429956831038,-0.0005345066892914474,0.0021380267571657896
1772720939771479300,4.687479248046875,0.0005345066892914474,-0.0005345066892914474,0.0021380267571657896
1772720939790076200,4.706076171875,0.0005345066892914474,-0.00022907429956831038,0.0021380267571657896
1772720939808672800,4.7246728515625,0.000839939049910754,-0.00022907429956831038,0.0021380267571657896
1772720939827269400,4.743269287109375,-0.00007635809743078426,-0.0005345066892914474,0.0015271619195118546
1772720939845866200,4.7618662109375,0.00022907429956831038,0.00007635809743078426,0.002443459117785096
1772720939864463000,4.780463134765625,0.00022907429956831038,0.00007635809743078426,0.0021380267571657896
1772720939883059700,4.799059814453125,0.0011453714687377214,-0.00022907429956831038,0.001832594396546483
1772720939901656600,4.817656494140625,0.000839939049910754,-0.00022907429956831038,0.001832594396546483
1772720939920253200,4.836253173828125,0.0011453714687377214,0.00007635809743078426,0.002443459117785096
1772720939938850000,4.85485009765625,0.0005345066892914474,0.00007635809743078426,0.002443459117785096
1772720939957446700,4.87344677734375,0.00022907429956831038,-0.0005345066892914474,0.0021380267571657896
1772720939976043500,4.89204345703125,0.000839939049910754,-0.00022907429956831038,0.0030543238390237093
1772720939994640100,4.91064013671875,0.000839939049910754,-0.000839939049910754,0.001221729558892548
1772720940013237000,4.929237060546875,0.0005345066892914474,0.00007635809743078426,0.0015271619195118546
1772720940031833600,4.94783349609375,0.0011453714687377214,-0.0005345066892914474,0.001832594396546483
1772720940050430200,4.96643017578125,0.00022907429956831038,0.00007635809743078426,0.0015271619195118546
1772720940069027000,4.985027099609375,0.0005345066892914474,-0.0005345066892914474,0.002443459117785096
1772720940087623700,5.003623779296875,0.00022907429956831038,0.00007635809743078426,0.0021380267571657896
1772720940106220500,5.022220458984375,0.00022907429956831038,0.0006872228696011007,0.0015271619195118546
1772720940124817200,5.040817138671875,-0.00007635809743078426,-0.00022907429956831038,0.002443459117785096
1772720940143414000,5.0594140625,0.000839939049910754,0.00007635809743078426,0.001832594396546483
1772720940162010600,5.0780107421875,0.001450803829357028,-0.001450803829357028,0.001221729558892548
1772720940180607500,5.096607421875,0.00022907429956831038,-0.00022907429956831038,0.0027488914784044027
1772720940199204000,5.1152041015625,0.00022907429956831038,0.0006872228696011007,0.001832594396546483
1772720940217801000,5.133801025390625,0.001450803829357028,-0.0005345066892914474,0.002443459117785096
1772720940236397600,5.1523974609375,0.00022907429956831038,-0.000839939049910754,0.0021380267571657896
1772720940254994200,5.170994140625,-0.00007635809743078426,-0.00022907429956831038,0.0021380267571657896
1772720940273591000,5.189591064453125,0.0005345066892914474,0.00038179047987796366,0.002443459117785096
1772720940292187600,5.208187744140625,0.0011453714687377214,-0.0005345066892914474,0.001832594396546483
1772720940310784500,5.226784423828125,0.000839939049910754,-0.00022907429956831038,0.001221729558892548
1772720940329381000,5.245381103515625,0.0005345066892914474,-0.000839939049910754,0.0027488914784044027
1772720940347977700,5.263977783203125,0.0011453714687377214,-0.000839939049910754,0.0021380267571657896
1772720940366574600,5.28257470703125,0.0005345066892914474,-0.0005345066892914474,0.0027488914784044027
1772720940385171200,5.301171142578125,0.0005345066892914474,-0.000839939049910754,0.0015271619195118546
1772720940403767800,5.319767822265625,0.000839939049910754,0.00038179047987796366,0.0015271619195118546
1772720940422364700,5.33836474609375,0.00022907429956831038,0.00038179047987796366,0.0021380267571657896
1772720940440961300,5.356961181640625,0.001450803829357028,-0.0005345066892914474,0.0021380267571657896
1772720940459558100,5.37555810546875,0.00022907429956831038,0.00007635809743078426,0.0021380267571657896
1772720940478154800,5.39415478515625,0.00022907429956831038,0.0006872228696011007,0.0021380267571657896
1772720940496751400,5.41275146484375,0.00022907429956831038,-0.00022907429956831038,0.001221729558892548
1772720940515348200,5.43134814453125,0.00022907429956831038,-0.00022907429956831038,0.0027488914784044027
1772720940533944800,5.44994482421875,0.000839939049910754,0.00007635809743078426,0.0021380267571657896
1772720940552541700,5.468541748046875,0.0011453714687377214,-0.0005345066892914474,0.001832594396546483
1772720940571138300,5.48713818359375,0.000839939049910754,-0.00022907429956831038,0.0027488914784044027
1772720940589735000,5.50573486328125,-0.00038179047987796366,0.00038179047987796366,0.0030543238390237093
1772720940608331500,5.52433154296875,0.0011453714687377214,0.00007635809743078426,0.002443459117785096
1772720940626928400,5.542928466796875,-0.00007635809743078426,-0.000839939049910754,0.002443459117785096
1772720940645525000,5.56152490234375,-0.00007635809743078426,-0.00022907429956831038,0.001832594396546483
1772720940664121600,5.58012158203125,0.00022907429956831038,-0.00022907429956831038,0.0015271619195118546
1772720940682718500,5.598718505859375,-0.00007635809743078426,-0.00022907429956831038,0.001221729558892548
1772720940701315000,5.617315185546875,0.0005345066892914474,-0.0005345066892914474,0.0021380267571657896
1772720940719911700,5.63591162109375,0.000839939049910754,-0.000839939049910754,0.0015271619195118546
1772720940738508500,5.654508544921875,0.0005345066892914474,-0.000839939049910754,0.001832594396546483
1772720940757105200,5.673105224609375,0.000839939049910754,-0.0005345066892914474,0.002443459117785096
1772720940775701800,5.69170166015625,0.0005345066892914474,0.00007635809743078426,0.0027488914784044027
1772720940794298400,5.71029833984375,0.000839939049910754,0.00007635809743078426,0.002443459117785096
1772720940812895200,5.728895263671875,-0.00007635809743078426,0.00038179047987796366,0.001832594396546483
1772720940831491800,5.747491943359375,-0.00007635809743078426,-0.0005345066892914474,0.002443459117785096
1772720940850088400,5.76608837890625,0.00022907429956831038,-0.000839939049910754,0.0015271619195118546
1772720940868685300,5.784685302734375,-0.0006872228696011007,-0.000839939049910754,0.0015271619195118546
1772720940887282000,5.803281982421875,0.0005345066892914474,-0.0005345066892914474,0.0021380267571657896
1772720940905878500,5.82187841796875,0.000839939049910754,-0.0005345066892914474,0.001832594396546483
1772720940924475100,5.84047509765625,0.00022907429956831038,-0.00022907429956831038,0.0021380267571657896
1772720940943072000,5.859072021484375,0.00022907429956831038,0.00007635809743078426,0.002443459117785096
1772720940961668600,5.877668701171875,0.0005345066892914474,-0.0005345066892914474,0.0021380267571657896
1772720940980265200,5.89626513671875,0.0011453714687377214,-0.000839939049910754,0.001832594396546483
1772720940998861800,5.91486181640625,0.0005345066892914474,-0.00022907429956831038,0.001832594396546483
1772720941017458400,5.93345849609375,0.0005345066892914474,-0.00022907429956831038,0.0021380267571657896
1772720941036055300,5.95205517578125,-0.00038179047987796366,0.00007635809743078426,0.002443459117785096
1772720941054652000,5.97065185546875,0.000839939049910754,-0.0005345066892914474,0.0015271619195118546
1772720941073248500,5.98924853515625,0.00022907429956831038,-0.00022907429956831038,0.0015271619195118546
1772720941091845000,6.00784521484375,0.0005345066892914474,-0.00022907429956831038,0.001832594396546483
1772720941110442000,6.02644189453125,-0.00007635809743078426,0.00038179047987796366,0.001221729558892548
1772720941129038600,6.04503857421875,0.0011453714687377214,-0.0005345066892914474,0.002443459117785096
1772720941147635200,6.06363525390625,0.000839939049910754,-0.00022907429956831038,0.0015271619195118546
1772720941166231800,6.082231689453125,0.0005345066892914474,-0.000839939049910754,0.0021380267571657896
1772720941184828700,6.10082861328125,0.00022907429956831038,0.0006872228696011007,0.0021380267571657896
1772720941203425000,6.119425048828125,-0.00007635809743078426,0.00038179047987796366,0.0015271619195118546
1772720941222022000,6.13802197265625,-0.00038179047987796366,-0.0005345066892914474,0.0015271619195118546
1772720941240618500,6.156618408203125,-0.00007635809743078426,-0.00022907429956831038,0.0015271619195118546
1772720941259215000,6.175215087890625,-0.00038179047987796366,-0.0005345066892914474,0.001221729558892548
1772720941277811700,6.193811767578125,0.0005345066892914474,-0.00022907429956831038,0.000610864779446274
1772720941296408600,6.21240869140625,0.0005345066892914474,-0.00022907429956831038,0.002443459117785096
1772720941315005200,6.231005126953125,-0.00007635809743078426,-0.00022907429956831038,0.0021380267571657896
1772720941333601800,6.249601806640625,0.000839939049910754,0.00038179047987796366,0.001832594396546483
1772720941352198400,6.268198486328125,0.0005345066892914474,-0.000839939049910754,0.001832594396546483
1772720941370795000,6.286794921875,0.0005345066892914474,-0.0005345066892914474,0.0009162971982732415
1772720941389391600,6.3053916015625,0.00022907429956831038,-0.00022907429956831038,0.0015271619195118546
1772720941407988200,6.32398828125,-0.00038179047987796366,-0.0005345066892914474,0.0021380267571657896
1772720941426584800,6.342584716796875,0.0005345066892914474,-0.00022907429956831038,0.001221729558892548
1772720941445181700,6.361181640625,-0.00007635809743078426,-0.000839939049910754,0.0015271619195118546
1772720941463778300,6.3797783203125,0.0005345066892914474,0.0006872228696011007,0.001221729558892548
1772720941482375000,6.398375,0.000839939049910754,-0.000839939049910754,0.001221729558892548
1772720941500971500,6.416971435546875,-0.00007635809743078426,0.00038179047987796366,0.002443459117785096
1772720941519568100,6.435568115234375,-0.00007635809743078426,-0.00022907429956831038,0.001832594396546483
1772720941538164700,6.454164794921875,0.00022907429956831038,0.00007635809743078426,0.001832594396546483
1772720941556761300,6.47276123046875,0.0005345066892914474,-0.000839939049910754,0.001832594396546483
1772720941575358000,6.49135791015625,0.0005345066892914474,-0.0005345066892914474,0.0015271619195118546
1772720941593954800,6.509954833984375,0.00022907429956831038,-0.0005345066892914474,0.0009162971982732415
1772720941612551200,6.52855126953125,-0.00007635809743078426,-0.0005345066892914474,0.0021380267571657896
1772720941631148000,6.54714794921875,0.00022907429956831038,0.00007635809743078426,0.002443459117785096
1772720941649744600,6.56574462890625,0.00022907429956831038,0.00038179047987796366,0.0021380267571657896
1772720941668341200,6.58434130859375,0.001450803829357028,0.00007635809743078426,0.001832594396546483
1772720941686937900,6.602937744140625,0.00022907429956831038,0.0006872228696011007,0.0015271619195118546
1772720941705534500,6.621534423828125,0.00022907429956831038,0.00007635809743078426,0.001221729558892548
1772720941724131000,6.640131103515625,0.000839939049910754,0.00007635809743078426,0.0015271619195118546
1772720941742727700,6.658727783203125,0.00022907429956831038,0.0006872228696011007,0.001221729558892548
1772720941761324300,6.67732421875,0.000839939049910754,0.00007635809743078426,0.0021380267571657896
1772720941779921000,6.6959208984375,-0.00007635809743078426,-0.000839939049910754,0.0015271619195118546
1772720941798517500,6.714517578125,0.000839939049910754,-0.00022907429956831038,0.0021380267571657896
1772720941817114000,6.733114013671875,0.0005345066892914474,0.00038179047987796366,0.0015271619195118546
1772720941835710700,6.751710693359375,-0.00007635809743078426,0.00007635809743078426,0.001832594396546483
1772720941854307300,6.770307373046875,0.0005345066892914474,-0.00022907429956831038,0.0015271619195118546
1772720941872904000,6.788904052734375,0.0005345066892914474,0.00007635809743078426,0.0015271619195118546
1772720941891500500,6.80750048828125,0.0005345066892914474,0.00038179047987796366,0.002443459117785096
1772720941910097200,6.82609716796875,0.00022907429956831038,-0.00022907429956831038,0.001832594396546483
1772720941928693800,6.84469384765625,-0.00038179047987796366,0.00007635809743078426,0.001832594396546483
1772720941947290400,6.863290283203125,0.0005345066892914474,-0.0005345066892914474,0.001832594396546483
1772720941965887000,6.881886962890625,0.0005345066892914474,0.00038179047987796366,0.001832594396546483
1772720941984483600,6.900483642578125,0.0005345066892914474,-0.0005345066892914474,0.001832594396546483
1772720942003080200,6.919080078125,-0.00007635809743078426,-0.000839939049910754,0.0015271619195118546
1772720942021676800,6.9376767578125,0.0005345066892914474,-0.00022907429956831038,0.0021380267571657896
1772720942040273400,6.9562734375,-0.00007635809743078426,0.00007635809743078426,0.0021380267571657896
1772720942058870000,6.9748701171875,0.00022907429956831038,-0.00022907429956831038,0.001221729558892548
1772720942077466600,6.993466552734375,0.00022907429956831038,-0.00022907429956831038,0.0015271619195118546
1772720942096063200,7.012063232421875,0.00022907429956831038,-0.000839939049910754,0.0015271619195118546
1772720942114659800,7.030659912109375,0.00022907429956831038,-0.00022907429956831038,0.0021380267571657896
1772720942133256400,7.04925634765625,-0.00038179047987796366,-0.000839939049910754,0.001832594396546483
1772720942151853000,7.06785302734375,0.0005345066892914474,-0.0011453714687377214,0.0021380267571657896
1772720942170449700,7.08644970703125,0.00022907429956831038,0.00007635809743078426,0.001221729558892548
1772720942189046300,7.10504638671875,0.000839939049910754,-0.00022907429956831038,0.000305432389723137
1772720942207643000,7.123642822265625,-0.00007635809743078426,0.00038179047987796366,0.000610864779446274
1772720942226239500,7.142239501953125,0.00022907429956831038,-0.0005345066892914474,0.001832594396546483
1772720942244835800,7.1608359375,-0.00038179047987796366,-0.0005345066892914474,0.0021380267571657896
1772720942263432700,7.1794326171875,-0.00007635809743078426,0.00007635809743078426,0.002443459117785096
1772720942282029000,7.198029052734375,-0.00007635809743078426,0.00038179047987796366,0.000610864779446274
1772720942300625700,7.216625732421875,-0.00007635809743078426,0.00007635809743078426,0.0015271619195118546
1772720942319222300,7.23522216796875,-0.00007635809743078426,-0.000839939049910754,0.001221729558892548
1772720942337819000,7.25381884765625,-0.0012980876490473747,-0.00022907429956831038,0.001221729558892548
1772720942356415500,7.27241552734375,0.00022907429956831038,-0.00022907429956831038,0.001832594396546483
1772720942375012000,7.29101220703125,0.00022907429956831038,0.00038179047987796366,0.0021380267571657896
1772720942393608700,7.309608642578125,0.00022907429956831038,-0.0005345066892914474,0.0015271619195118546
1772720942412205300,7.328205322265625,-0.00007635809743078426,-0.000839939049910754,0.0015271619195118546
1772720942430801700,7.3468017578125,-0.00007635809743078426,-0.00022907429956831038,0.001832594396546483
1772720942449398300,7.365398193359375,0.0005345066892914474,-0.00022907429956831038,0.0021380267571657896
1772720942467995100,7.3839951171875,-0.0009926552884280682,-0.00022907429956831038,0.001221729558892548
1772720942486591500,7.402591552734375,0.0011453714687377214,-0.001450803829357028,0.003359756199643016
1772720942505188000,7.42118798828125,0.000839939049910754,-0.000839939049910754,0.001832594396546483
1772720942523784700,7.43978466796875,-0.00007635809743078426,-0.0011453714687377214,0.0021380267571657896
1772720942542381300,7.45838134765625,-0.00007635809743078426,0.00007635809743078426,0.0021380267571657896
1772720942560978000,7.47697802734375,-0.00007635809743078426,-0.0005345066892914474,0.0015271619195118546
1772720942579574300,7.49557421875,-0.00007635809743078426,0.00038179047987796366,0.0021380267571657896
1772720942598171000,7.5141708984375,0.000839939049910754,-0.0005345066892914474,0.001832594396546483
1772720942616767500,7.532767578125,0.0011453714687377214,0.00007635809743078426,0.0027488914784044027
1772720942635364000,7.551364013671875,0.0005345066892914474,0.00007635809743078426,0.001221729558892548
1772720942653960700,7.569960693359375,0.00022907429956831038,-0.00022907429956831038,0.0021380267571657896
1772720942672557300,7.588557373046875,0.00022907429956831038,0.00007635809743078426,0.0009162971982732415
1772720942691153700,7.607153564453125,0.0005345066892914474,-0.0005345066892914474,0.001832594396546483
1772720942709750300,7.625750244140625,0.0005345066892914474,-0.00022907429956831038,0.0015271619195118546
1772720942728347000,7.644346923828125,-0.00007635809743078426,-0.00022907429956831038,0.001221729558892548
1772720942746943500,7.662943603515625,-0.00007635809743078426,0.00007635809743078426,0.001221729558892548
1772720942765540000,7.6815400390625,-0.00007635809743078426,0.00007635809743078426,0.001832594396546483
1772720942784136400,7.700136474609375,0.0005345066892914474,0.00038179047987796366,0.0015271619195118546
1772720942802733000,7.718733154296875,0.0005345066892914474,-0.00022907429956831038,0.0021380267571657896
1772720942821329700,7.73732958984375,-0.00038179047987796366,-0.001450803829357028,0.001832594396546483
1772720942839926300,7.75592626953125,-0.0006872228696011007,-0.0005345066892914474,0.0027488914784044027
1772720942858523000,7.77452294921875,0.0011453714687377214,0.00007635809743078426,0.001832594396546483
1772720942877119500,7.793119384765625,-0.00007635809743078426,0.00038179047987796366,0.001221729558892548
1772720942895715800,7.8117158203125,0.0005345066892914474,-0.0005345066892914474,0.000610864779446274
1772720942914312400,7.8303125,-0.00038179047987796366,-0.00022907429956831038,0.0015271619195118546
1772720942932909000,7.848908935546875,0.0005345066892914474,-0.00022907429956831038,0
1772720942951505400,7.86750537109375,-0.00007635809743078426,0.00038179047987796366,0.001221729558892548
1772720942970102000,7.88610205078125,0.0005345066892914474,-0.00022907429956831038,0.002443459117785096
1772720942988698600,7.90469873046875,-0.00007635809743078426,-0.0005345066892914474,0.0009162971982732415
1772720943007295200,7.923295166015625,0.0005345066892914474,-0.000839939049910754,0.0021380267571657896
1772720943025891600,7.9418916015625,0.00022907429956831038,-0.000839939049910754,0.001832594396546483
1772720943044488200,7.96048828125,0.000839939049910754,-0.00022907429956831038,0.001832594396546483
1772720943063084800,7.979084716796875,-0.00007635809743078426,0.00038179047987796366,0.001221729558892548
1772720943081681400,7.997681396484375,0.0005345066892914474,-0.0005345066892914474,0.001221729558892548
1772720943100277800,8.01627783203125,0.0011453714687377214,-0.00022907429956831038,0.0021380267571657896
1772720943118874400,8.034874267578125,0.00022907429956831038,-0.00022907429956831038,0.001832594396546483
1772720943137471000,8.053470947265625,-0.00007635809743078426,-0.00022907429956831038,0.0021380267571657896
1772720943156067600,8.072067626953125,-0.00038179047987796366,0.0009926552884280682,0.002443459117785096
1772720943174664000,8.090663818359374,-0.0006872228696011007,0.0006872228696011007,0.0015271619195118546
1772720943193260500,8.109260498046876,-0.00038179047987796366,-0.0005345066892914474,0.001221729558892548
1772720943211857200,8.127857177734375,0.0005345066892914474,-0.000839939049910754,0.0030543238390237093
1772720943230453500,8.14645361328125,0.00022907429956831038,-0.00022907429956831038,0.0015271619195118546
1772720943249050000,8.165050048828125,0.00022907429956831038,0.00038179047987796366,0.0021380267571657896
1772720943267646700,8.183646728515624,0.000839939049910754,-0.000839939049910754,0.001221729558892548
1772720943286243000,8.2022431640625,-0.00038179047987796366,0.00007635809743078426,0.0021380267571657896
1772720943304839700,8.220839599609375,-0.00038179047987796366,0.00038179047987796366,0.0015271619195118546
1772720943323436300,8.239436279296875,-0.00007635809743078426,-0.00022907429956831038,0.001221729558892548
1772720943342032600,8.25803271484375,0.00022907429956831038,0.0006872228696011007,0.0009162971982732415
1772720943360629200,8.276629150390624,-0.00038179047987796366,0.00007635809743078426,0.0015271619195118546
1772720943379225900,8.295225830078126,-0.00038179047987796366,-0.00022907429956831038,0.0021380267571657896
1772720943397822200,8.313822265625,0.000839939049910754,-0.00022907429956831038,0
1772720943416418800,8.332418701171875,0.00022907429956831038,-0.00022907429956831038,0.0021380267571657896
1772720943435015400,8.351015380859375,-0.0009926552884280682,0.00007635809743078426,0.001832594396546483
1772720943453611800,8.36961181640625,-0.00038179047987796366,-0.0005345066892914474,0.001832594396546483
1772720943472208400,8.38820849609375,-0.0006872228696011007,-0.00022907429956831038,0.0021380267571657896
1772720943490805000,8.406804931640625,0.0005345066892914474,-0.00022907429956831038,0.001221729558892548
1772720943509401300,8.4254013671875,0.000839939049910754,-0.0005345066892914474,0.0027488914784044027
1772720943527998000,8.443998046875,-0.0006872228696011007,0.00007635809743078426,0.0009162971982732415
1772720943546594300,8.46259423828125,-0.00007635809743078426,0.00038179047987796366,0.000610864779446274
1772720943565191000,8.48119091796875,0.0005345066892914474,0.00007635809743078426,0.000305432389723137
1772720943583787500,8.49978759765625,-0.00007635809743078426,0.00007635809743078426,0.0015271619195118546
1772720943602384000,8.5183837890625,-0.00007635809743078426,0.0006872228696011007,0.0015271619195118546
1772720943620980500,8.53698046875,-0.0006872228696011007,0.00038179047987796366,0.000610864779446274
1772720943639577000,8.5555771484375,-0.0009926552884280682,-0.00022907429956831038,0
1772720943658173400,8.57417333984375,0.000839939049910754,-0.0005345066892914474,0.0015271619195118546
1772720943676770000,8.59277001953125,0.00022907429956831038,-0.00022907429956831038,0.0009162971982732415
1772720943695366400,8.611366455078125,-0.00007635809743078426,-0.0005345066892914474,0.0021380267571657896
1772720943713963000,8.629962890625,-0.00007635809743078426,-0.0005345066892914474,0.001832594396546483
1772720943732559600,8.6485595703125,0.00022907429956831038,-0.00022907429956831038,0.001221729558892548
1772720943751156000,8.667156005859376,0.00022907429956831038,0.00038179047987796366,0.001832594396546483
1772720943769752300,8.68575244140625,0.0005345066892914474,-0.0005345066892914474,0.001221729558892548
1772720943788349000,8.704348876953125,-0.00007635809743078426,0.00007635809743078426,0.001832594396546483
1772720943806945500,8.722945556640624,-0.0009926552884280682,0.0009926552884280682,0.001221729558892548
1772720943825542000,8.7415419921875,-0.00007635809743078426,0.00007635809743078426,0.001221729558892548
1772720943844138500,8.760138427734375,-0.00007635809743078426,0.00038179047987796366,0.001832594396546483
1772720943862734800,8.77873486328125,-0.00038179047987796366,0.00007635809743078426,0.001832594396546483
1772720943881331500,8.79733154296875,0.00022907429956831038,-0.000839939049910754,0.001221729558892548
1772720943899927800,8.815927734375,0.0005345066892914474,-0.00022907429956831038,0.001221729558892548
1772720943918524400,8.8345244140625,-0.00038179047987796366,-0.00022907429956831038,0.0009162971982732415
1772720943937120800,8.853120849609375,0.00022907429956831038,0.00007635809743078426,0.001221729558892548
1772720943955717400,8.87171728515625,-0.0009926552884280682,0.00038179047987796366,0.001221729558892548
1772720943974314000,8.89031396484375,-0.00038179047987796366,0.00038179047987796366,0.0015271619195118546
1772720943992910300,8.908910400390624,-0.0006872228696011007,0.00038179047987796366,0.000610864779446274
1772720944011506700,8.927506591796876,0.00022907429956831038,0.00007635809743078426,0.0015271619195118546
1772720944030103300,8.946103271484375,-0.00007635809743078426,0.00007635809743078426,0.0015271619195118546
1772720944048700000,8.964699951171875,-0.0006872228696011007,0.0006872228696011007,0.001832594396546483
1772720944067296300,8.983296142578125,0.00022907429956831038,0.00007635809743078426,0.0021380267571657896
1772720944085892600,9.001892578125,0.0005345066892914474,0.00007635809743078426,0.0015271619195118546
1772720944104489200,9.0204892578125,0.00022907429956831038,0.00007635809743078426,0.0015271619195118546
1772720944123085800,9.0390859375,-0.0009926552884280682,0.00038179047987796366,0.0021380267571657896
1772720944141682200,9.05768212890625,0.00022907429956831038,0.00007635809743078426,0.0021380267571657896
1772720944160278800,9.07627880859375,-0.00007635809743078426,0.00007635809743078426,0.001832594396546483
1772720944178875100,9.094875244140624,-0.00038179047987796366,-0.000839939049910754,0.0009162971982732415
1772720944197471500,9.113471435546876,0.0005345066892914474,-0.0011453714687377214,0.001221729558892548
1772720944216068000,9.132068115234375,0.000839939049910754,0.00007635809743078426,0.001832594396546483
1772720944234664400,9.15066455078125,-0.00007635809743078426,-0.00022907429956831038,0.0015271619195118546
1772720944253261000,9.169260986328124,-0.00007635809743078426,0.00038179047987796366,0.001832594396546483
1772720944271857400,9.187857421875,-0.00007635809743078426,0.00007635809743078426,0.0021380267571657896
1772720944290454000,9.2064541015625,0.000839939049910754,0.00007635809743078426,0.0015271619195118546
1772720944309050400,9.22505029296875,0.000839939049910754,-0.0005345066892914474,0.0009162971982732415
1772720944327647000,9.24364697265625,0.0005345066892914474,-0.00022907429956831038,0.001832594396546483
1772720944346243300,9.262243408203124,-0.00007635809743078426,-0.0005345066892914474,0.001221729558892548
1772720944364839700,9.280839599609376,0.000839939049910754,-0.0005345066892914474,0.001832594396546483
1772720944383436300,9.299436279296875,-0.00038179047987796366,0.00038179047987796366,0.0015271619195118546
1772720944402032600,9.31803271484375,-0.00038179047987796366,-0.0005345066892914474,0.0015271619195118546
1772720944420629200,9.336629150390625,0.0005345066892914474,0.00007635809743078426,0.001832594396546483
1772720944439225600,9.3552255859375,-0.00007635809743078426,-0.0017562361899763346,0.0009162971982732415
1772720944457822200,9.373822265625,0.000839939049910754,0.0016035200096666813,0.003359756199643016
1772720944476418600,9.39241845703125,-0.0016035200096666813,-0.001450803829357028,0.001832594396546483
1772720944495015000,9.411014892578125,0.0005345066892914474,0.00007635809743078426,0.000610864779446274
1772720944513611500,9.429611572265625,0.00022907429956831038,0.0009926552884280682,0.0015271619195118546
1772720944532207900,9.448207763671874,0.0005345066892914474,-0.0005345066892914474,0.001221729558892548
1772720944550804500,9.466804443359376,0.0005345066892914474,0.00007635809743078426,0.0021380267571657896
1772720944569400800,9.48540087890625,-0.00007635809743078426,-0.00022907429956831038,0.0009162971982732415
1772720944587997200,9.5039970703125,0.0005345066892914474,0.0009926552884280682,0.001221729558892548
1772720944606593800,9.52259375,0.00022907429956831038,-0.00022907429956831038,0.0015271619195118546
1772720944625190100,9.541190185546874,0.0005345066892914474,-0.0005345066892914474,0.0009162971982732415
1772720944643786800,9.559786865234376,0.00022907429956831038,-0.0005345066892914474,0.001832594396546483
1772720944662383000,9.578383056640625,-0.00007635809743078426,-0.00022907429956831038,0.0009162971982732415
1772720944680979700,9.596979736328125,0.00022907429956831038,-0.0005345066892914474,0.0015271619195118546
1772720944699576000,9.615576171875,-0.00007635809743078426,-0.00022907429956831038,0.002443459117785096
1772720944718172400,9.63417236328125,0.0005345066892914474,-0.000839939049910754,0.0015271619195118546
1772720944736768800,9.652768798828125,-0.00038179047987796366,-0.0005345066892914474,0.0009162971982732415
1772720944755365400,9.671365478515625,0.00022907429956831038,-0.00022907429956831038,0.001221729558892548
1772720944773961700,9.689961669921875,-0.00007635809743078426,-0.000839939049910754,0.001221729558892548
1772720944792558300,9.708558349609374,-0.00038179047987796366,-0.0005345066892914474,0.001221729558892548
1772720944811154700,9.72715478515625,0.0005345066892914474,0.0006872228696011007,0.000610864779446274
1772720944829751000,9.7457509765625,0.00022907429956831038,-0.00022907429956831038,0.001832594396546483
1772720944848347400,9.764347412109375,-0.00007635809743078426,-0.00022907429956831038,0.001221729558892548
1772720944866944000,9.782944091796875,-0.00007635809743078426,0.00038179047987796366,0.0021380267571657896
1772720944885540400,9.801540283203124,0.0005345066892914474,0.00007635809743078426,0.0015271619195118546
1772720944904137000,9.820136962890626,0.00022907429956831038,-0.0005345066892914474,0.001832594396546483
1772720944922733300,9.8387333984375,-0.00007635809743078426,-0.000839939049910754,0.000610864779446274
1772720944941329700,9.85732958984375,0.00022907429956831038,0.00038179047987796366,0.0009162971982732415
1772720944959926300,9.87592626953125,-0.0009926552884280682,-0.00022907429956831038,0.001832594396546483
1772720944978522600,9.894522705078124,-0.00038179047987796366,-0.000839939049910754,0.0015271619195118546
1772720944997119000,9.913118896484375,-0.0006872228696011007,-0.00022907429956831038,0.001832594396546483
1772720945015715600,9.931715576171875,-0.00007635809743078426,-0.00022907429956831038,0.001221729558892548
1772720945034312000,9.95031201171875,-0.00038179047987796366,-0.000839939049910754,0.0009162971982732415
1772720945052908300,9.968908203125,-0.00007635809743078426,-0.000839939049910754,0.001832594396546483
1772720945071505000,9.9875048828125,0.000839939049910754,-0.0005345066892914474,0.0021380267571657896
1772720945090101200,10.006101318359375,0.00022907429956831038,-0.000839939049910754,0.001832594396546483
1772720945108697600,10.024697509765625,-0.00038179047987796366,0.00038179047987796366,0.001221729558892548
1772720945127294000,10.0432939453125,-0.00007635809743078426,-0.0005345066892914474,0.0009162971982732415
1772720945145890600,10.061890625,-0.0006872228696011007,0.00007635809743078426,0.001832594396546483
1772720945164487000,10.08048681640625,-0.00007635809743078426,-0.0005345066892914474,0.001221729558892548
1772720945183083300,10.099083251953125,-0.00007635809743078426,-0.00022907429956831038,0.001221729558892548
1772720945201680000,10.117679931640625,0.0005345066892914474,-0.00022907429956831038,0.0015271619195118546
1772720945220276200,10.136276123046875,-0.0012980876490473747,0.00007635809743078426,0.000610864779446274
1772720945238872600,10.15487255859375,0.00022907429956831038,-0.00022907429956831038,0.0009162971982732415
1772720945257469200,10.17346923828125,0.0011453714687377214,-0.00022907429956831038,0.001832594396546483
1772720945276065500,10.1920654296875,-0.0006872228696011007,0.0006872228696011007,0.0015271619195118546
1772720945294662000,10.210661865234375,-0.00007635809743078426,0.00007635809743078426,0.0021380267571657896
1772720945313258200,10.22925830078125,0.0005345066892914474,0.00038179047987796366,0.001832594396546483
1772720945331854600,10.2478544921875,-0.00038179047987796366,-0.0005345066892914474,0.0021380267571657896
1772720945350451200,10.266451171875,0.0005345066892914474,-0.000839939049910754,0.0015271619195118546
1772720945369047600,10.285047607421875,-0.00038179047987796366,-0.000839939049910754,0.0009162971982732415
1772720945387644000,10.303643798828125,-0.00038179047987796366,-0.00022907429956831038,0.0009162971982732415
1772720945406240500,10.322240478515624,-0.00007635809743078426,0.00007635809743078426,0.0015271619195118546
1772720945424836900,10.3408369140625,-0.00007635809743078426,-0.0005345066892914474,0.001221729558892548
1772720945443433200,10.35943310546875,-0.00007635809743078426,-0.0005345066892914474,0.0009162971982732415
1772720945462029600,10.378029541015625,-0.0006872228696011007,-0.00022907429956831038,0.0015271619195118546
1772720945480626200,10.396626220703125,0.0005345066892914474,-0.000839939049910754,0.001221729558892548
1772720945499222500,10.415222412109374,-0.00038179047987796366,-0.00022907429956831038,0.000610864779446274
1772720945517819000,10.43381884765625,-0.00007635809743078426,-0.00022907429956831038,0.0009162971982732415
1772720945536415200,10.452415283203125,-0.0006872228696011007,-0.00022907429956831038,0.001832594396546483
1772720945555011600,10.471011474609375,-0.0006872228696011007,0.00038179047987796366,0.001221729558892548
1772720945573608000,10.48960791015625,0.00022907429956831038,-0.0005345066892914474,0.0015271619195118546
1772720945592204500,10.50820458984375,0.00022907429956831038,-0.0005345066892914474,0.001832594396546483
1772720945610801000,10.52680078125,-0.00038179047987796366,-0.00022907429956831038,0.0015271619195118546
1772720945629397200,10.545397216796875,-0.00038179047987796366,-0.0005345066892914474,0.0009162971982732415
1772720945647993600,10.56399365234375,-0.00007635809743078426,0.00007635809743078426,0.001832594396546483
1772720945666590200,10.582590087890624,0.00022907429956831038,0.0009926552884280682,0.0015271619195118546
1772720945685186600,10.6011865234375,-0.00007635809743078426,-0.000839939049910754,0.001832594396546483
1772720945703783000,10.619782958984375,-0.00007635809743078426,0.00007635809743078426,0.001832594396546483
1772720945722379300,10.638379150390625,0.00022907429956831038,-0.00022907429956831038,0.001221729558892548
1772720945740975600,10.6569755859375,0.00022907429956831038,0.00007635809743078426,0.000610864779446274
1772720945759572000,10.675572021484374,-0.00007635809743078426,-0.000839939049910754,0.0009162971982732415
1772720945778168600,10.69416845703125,-0.00007635809743078426,-0.0005345066892914474,0.001832594396546483
1772720945796765000,10.712764892578125,-0.00007635809743078426,0.00007635809743078426,0.001221729558892548
1772720945815361300,10.731361328125,0.00022907429956831038,-0.0005345066892914474,0.001221729558892548
1772720945833957600,10.74995751953125,0.00022907429956831038,0.00007635809743078426,0.002443459117785096
1772720945852554000,10.768553955078126,0.00022907429956831038,-0.00022907429956831038,0.0009162971982732415
1772720945871150600,10.787150634765625,-0.00007635809743078426,-0.0005345066892914474,0.0015271619195118546
1772720945889747000,10.805746826171875,0.00022907429956831038,0.00038179047987796366,0.000610864779446274
1772720945908343300,10.82434326171875,-0.00038179047987796366,-0.000839939049910754,0.001221729558892548
1772720945926939600,10.842939697265624,-0.00038179047987796366,-0.0005345066892914474,0.0015271619195118546
1772720945945536000,10.861535888671876,-0.00007635809743078426,-0.00022907429956831038,0.001221729558892548
1772720945964132600,10.880132568359375,0.000839939049910754,0.00007635809743078426,0.0015271619195118546
1772720945982729000,10.89872900390625,0.0005345066892914474,-0.00022907429956831038,0.001221729558892548
1772720946001325300,10.9173251953125,0.00022907429956831038,-0.00022907429956831038,0.001221729558892548
1772720946019921700,10.935921630859376,-0.00007635809743078426,0.00007635809743078426,0
1772720946038518000,10.95451806640625,0.0005345066892914474,0.00007635809743078426,0.001221729558892548
1772720946057114400,10.9731142578125,0.00022907429956831038,-0.00022907429956831038,0.001832594396546483
1772720946075710700,10.991710693359375,-0.00038179047987796366,0.00007635809743078426,0.001221729558892548
1772720946094307000,11.01030712890625,-0.00038179047987796366,0.00007635809743078426,0.001221729558892548
1772720946112903700,11.028903564453126,-0.0006872228696011007,0.00038179047987796366,0.0009162971982732415
1772720946131500000,11.0475,-0.00007635809743078426,0.00007635809743078426,0.001221729558892548
1772720946150096400,11.066096435546875,-0.00038179047987796366,-0.00022907429956831038,0.0009162971982732415
1772720946168692700,11.084692626953125,-0.00038179047987796366,-0.0005345066892914474,0.001221729558892548
1772720946187289000,11.1032890625,0.00022907429956831038,0.00007635809743078426,0.001221729558892548
1772720946205885400,11.121885498046876,-0.0006872228696011007,-0.00022907429956831038,0.0009162971982732415
1772720946224481800,11.140481689453125,-0.0009926552884280682,-0.0005345066892914474,0.001832594396546483
1772720946243078100,11.159078125,-0.004352411720901728,0.12591449916362762,0.0717766135931015
1772720946261674800,11.1776748046875,-0.0009926552884280682,-0.03657552972435951,-0.008857538923621178
1772720946280271000,11.19627099609375,0.001450803829357028,-0.07597630470991135,-0.036651886999607086
1772720946298867500,11.214867431640625,0.0011453714687377214,-0.04604393243789673,-0.023823726922273636
1772720946317463800,11.2334638671875,-0.0006872228696011007,0.0193185992538929,0.009773836471140385
