time,seconds_elapsed,z,y,x
1772721086853278500,0.092278564453125,0,0,0
1772721086871874300,0.110874267578125,-0.012041091918945312,-0.081216961145401,-0.07587790489196777
1772721086890470100,0.12947021484375,0.2317790985107422,-0.28619688749313354,0.04567694664001465
1772721086909066200,0.148066162109375,0.5942316055297852,-0.3559330403804779,0.1321735978126526
1772721086927662000,0.166662109375,0.7275667190551758,-0.30825912952423096,0.3375732898712158
1772721086946258000,0.1852578125,0.5180854797363281,-0.25768929719924927,0.5822303891181946
1772721086964853800,0.203853759765625,0.14152145385742188,-0.6324437856674194,1.3894879817962646
1772721086983449600,0.22244970703125,-0.5775651931762695,-0.573976457118988,1.3108937740325928
1772721087002045400,0.24104541015625,-0.970555305480957,-0.43693408370018005,0.035278916358947754
1772721087020641300,0.259641357421875,-0.5659103393554688,0.04810789227485657,-0.30310550332069397
1772721087039237400,0.2782373046875,-0.00025653839111328125,0.29158663749694824,0.1351180374622345
1772721087057833200,0.296833251953125,0.5422687530517578,0.31021201610565186,0.43458667397499084
1772721087076429000,0.315428955078125,0.9557828903198242,0.17388498783111572,0.5247625112533569
1772721087095025000,0.33402490234375,0.9761447906494141,-0.13920319080352783,0.21216078102588654
1772721087113620700,0.352620849609375,-0.009068489074707031,-0.5054287910461426,-0.19492968916893005
1772721087132216600,0.371216552734375,-0.9901666641235352,-0.6046533584594727,-0.370420902967453
1772721087150812700,0.389812744140625,-1.7243003845214844,-0.5491373538970947,-0.13283643126487732
1772721087169408500,0.408408447265625,-1.758131980895996,-0.10954475402832031,0.5245526432991028
1772721087188004400,0.42700439453125,-1.3833179473876953,0.39727920293807983,1.6562182903289795
1772721087206600200,0.44560009765625,-0.22774028778076172,0.061458587646484375,2.1383020877838135
1772721087225196300,0.4641962890625,1.0279455184936523,-0.006051257252693176,1.5111833810806274
1772721087243792000,0.4827919921875,1.8189449310302734,0.5078901052474976,1.0345662832260132
1772721087262388000,0.501387939453125,2.5629072189331055,0.7766062617301941,0.3994969129562378
1772721087280983800,0.51998388671875,2.751286506652832,0.8196898102760315,-0.02048206329345703
1772721087308877600,0.547877685546875,1.2697267532348633,0.7193987369537354,-0.7821632027626038
1772721087327473700,0.5664736328125,0.04983234405517578,0.7840837240219116,-0.9926201105117798
1772721087346069500,0.585069580078125,-0.7656869888305664,0.8828164339065552,-0.860049307346344
1772721087364665300,0.603665283203125,-1.1875057220458984,0.9009884595870972,-0.7554097175598145
1772721087383261200,0.62226123046875,-1.263986587524414,0.7962799072265625,-0.6626299619674683
1772721087401857000,0.64085693359375,-0.8388080596923828,0.607350766658783,-0.62136310338974
1772721087420453000,0.659453125,-0.520665168762207,0.6501243114471436,-0.9920243620872498
1772721087439049000,0.678049072265625,-0.3235435485839844,0.8742531538009644,-1.3495333194732666
1772721087457644800,0.696644775390625,-0.16471576690673828,1.4131850004196167,-1.1585383415222168
1772721087476240600,0.71524072265625,-0.008960723876953125,1.7425384521484375,-0.8774431347846985
1772721087494836500,0.73383642578125,0.25299930572509766,1.888976812362671,-0.4871125817298889
1772721087513432600,0.7524326171875,0.7282190322875977,1.4928674697875977,-0.29683902859687805
1772721087532028400,0.7710283203125,0.6830673217773438,1.2660822868347168,-0.8755537271499634
1772721087550624300,0.789624267578125,0.23722076416015625,1.0631818771362305,-1.112483263015747
1772721087569220400,0.808220458984375,-0.3627796173095703,0.8862066268920898,-1.1096150875091553
1772721087587816000,0.82681591796875,-0.7213411331176758,0.8091421723365784,-0.9893670082092285
1772721087606412000,0.845412109375,-0.9190740585327148,0.5884785652160645,-0.7617567777633667
1772721087625007900,0.8640078125,-0.8694801330566406,0.5625245571136475,-0.24767127633094788
1772721087643603700,0.882603759765625,-0.6705255508422852,0.5592167377471924,0.46758660674095154
1772721087662199800,0.90119970703125,-0.25389862060546875,0.5060819983482361,1.1253529787063599
1772721087680795600,0.919795654296875,0.004399299621582031,0.5321589112281799,1.2813469171524048
1772721087699391500,0.9383916015625,0.1419086456298828,0.47569334506988525,0.8414534330368042
1772721087717987300,0.9569873046875,0.2440195083618164,0.5149661898612976,0.10063919425010681
1772721087736583400,0.97558349609375,0.2817354202270508,0.6491081714630127,-0.6418949365615845
1772721087755179300,0.99417919921875,0.31085968017578125,1.0021443367004395,-0.7537931203842163
1772721087773775000,1.012775146484375,0.09612560272216797,1.1388494968414307,0.0795702114701271
1772721087792371000,1.031370849609375,-0.36229515075683594,1.3056738376617432,0.9763486981391907
1772721087810967000,1.049967041015625,-0.671295166015625,1.4464037418365479,1.3373805284500122
1772721087829563000,1.06856298828125,-0.7666721343994141,1.6695489883422852,1.5663323402404785
1772721087848158700,1.08715869140625,-0.8100366592407227,1.5737119913101196,1.4390214681625366
1772721087866754800,1.1057548828125,-0.5038509368896484,1.3266515731811523,0.6983436346054077
1772721087885350700,1.1243505859375,0.2185516357421875,1.147214651107788,0.42196711897850037
1772721087903946500,1.142946533203125,0.5613908767700195,1.162258505821228,0.6720136404037476
1772721087922542300,1.161542236328125,0.37935638427734375,1.1588544845581055,0.9401662349700928
1772721087941138400,1.180138427734375,-0.09100818634033203,1.1593378782272339,1.0317262411117554
1772721087959734300,1.198734375,0.015806198120117188,1.3261173963546753,0.3369671702384949
1772721087978330000,1.217330078125,0.3424348831176758,1.1160895824432373,-0.32945340871810913
1772721087996926000,1.235926025390625,0.700322151184082,0.7505310773849487,-0.8632804751396179
1772721088015522000,1.25452197265625,1.0741081237792969,0.44732046127319336,-1.5444484949111938
1772721088034118000,1.273117919921875,1.8348407745361328,-0.07651805877685547,-2.2611145973205566
1772721088052714000,1.2917138671875,2.57515811920166,-0.22792625427246094,-2.1878302097320557
1772721088071309800,1.310309814453125,2.542222023010254,-0.4110424518585205,-1.1937763690948486
1772721088089905700,1.32890576171875,1.351506233215332,-0.9532667398452759,-0.09398075938224792
1772721088108501500,1.34750146484375,-0.1329183578491211,-1.4072043895721436,0.441710501909256
1772721088127097600,1.36609765625,-1.4071035385131836,-1.6954833269119263,-0.015144526958465576
1772721088145693400,1.384693359375,-1.9157490730285645,-1.9455970525741577,-0.5225648880004883
1772721088164289300,1.403289306640625,-1.9807109832763672,-2.032219648361206,-0.7039180994033813
1772721088182885000,1.421885009765625,-1.858504295349121,-2.009632110595703,-0.39844173192977905
1772721088201481200,1.440481201171875,-1.5870161056518555,-1.896346926689148,-0.13807731866836548
1772721088220077000,1.4590771484375,-0.9179000854492188,-1.619974136352539,-0.3386789560317993
1772721088238673000,1.4776728515625,-0.11808013916015625,-1.2177350521087646,-0.9131461977958679
1772721088257269000,1.49626904296875,0.5449552536010742,-1.0675103664398193,-1.9125745296478271
1772721088275864800,1.51486474609375,0.8789043426513672,-1.0757501125335693,-3.0671064853668213
1772721088294460700,1.533460693359375,0.8120498657226562,-1.194706678390503,-3.643157482147217
1772721088313056800,1.552056884765625,0.5245733261108398,-0.8360933065414429,-3.013700008392334
1772721088331652600,1.570652587890625,0.23423385620117188,-0.38914954662323,-1.6961418390274048
1772721088350248400,1.58924853515625,0.058760643005371094,-0.08708393573760986,-0.7045928239822388
1772721088368844300,1.60784423828125,-0.3460531234741211,-0.03237748146057129,-0.3654060363769531
1772721088387440400,1.6264404296875,-0.4026937484741211,-0.05065202713012695,-0.8693531155586243
1772721088406036200,1.6450361328125,-0.26306724548339844,-0.1783677339553833,-1.432444453239441
1772721088424632000,1.663632080078125,-0.17242050170898438,-0.021924376487731934,-1.6729176044464111
1772721088443228200,1.682228271484375,-0.44514942169189453,0.24084973335266113,-1.4311250448226929
1772721088461824000,1.700823974609375,-0.7367029190063477,0.5260952711105347,-1.0737004280090332
1772721088480419800,1.719419921875,-0.5247068405151367,0.6346527338027954,-0.5463142395019531
1772721088499016000,1.738015869140625,0.0189666748046875,0.5604465007781982,-0.33896249532699585
1772721088517611800,1.75661181640625,0.6791772842407227,0.37786567211151123,-0.20384609699249268
1772721088536207600,1.77520751953125,1.0735902786254883,0.2732049226760864,0.0325467586517334
1772721088554803500,1.793803466796875,1.1631193161010742,0.3594776391983032,0.022167682647705078
1772721088573399600,1.812399658203125,1.0693140029907227,0.4314030408859253,0.013415277004241943
1772721088591995400,1.830995361328125,0.6996231079101562,0.4011836051940918,0.07080411911010742
1772721088610591500,1.849591552734375,0.04326438903808594,0.19901716709136963,-0.024239301681518555
1772721088629187300,1.868187255859375,-0.6337404251098633,0.04889369010925293,-0.15451455116271973
1772721088647783200,1.886783203125,-0.7788496017456055,-0.12920260429382324,-0.1346028447151184
1772721088666379000,1.90537890625,-0.6646203994750977,-0.20811700820922852,-0.1850709319114685
1772721088684975000,1.92397509765625,-0.5727939605712891,-0.03674113750457764,-0.3079509139060974
1772721088703571000,1.942571044921875,-0.6225671768188477,0.14733219146728516,-0.23020869493484497
1772721088722166800,1.961166748046875,-0.6950836181640625,0.20947182178497314,-0.11628150939941406
1772721088740763000,1.979762939453125,-0.5233240127563477,0.3334311246871948,-0.23111587762832642
1772721088759358700,1.998358642578125,-0.20096206665039062,0.6368560791015625,-0.38906413316726685
1772721088777954600,2.01695458984375,0.13677501678466797,0.9841883182525635,-0.2916712760925293
1772721088796550700,2.035550537109375,0.6824483871459961,1.5886733531951904,-0.04649496078491211
1772721088815146200,2.054146240234375,0.957733154296875,1.9596977233886719,0.1458202600479126
1772721088833742000,2.0727421875,0.9203996658325195,1.7371084690093994,0.1228141188621521
1772721088852338200,2.091338134765625,0.63421630859375,1.427402377128601,0.08438920974731445
1772721088870934300,2.109934326171875,0.33706092834472656,1.0197398662567139,0.26377636194229126
1772721088889530000,2.128530029296875,0.06205463409423828,0.7458934783935547,0.2473410964012146
1772721088908126000,2.1471259765625,-0.09048080444335938,0.627860426902771,0.13058161735534668
1772721088926721800,2.1657216796875,0.058531761169433594,0.5344016551971436,-0.2860487997531891
1772721088945318000,2.18431787109375,0.22919845581054688,0.09132826328277588,-1.1963309049606323
1772721088963913700,2.202913818359375,0.7926101684570312,-0.46202147006988525,-1.997806191444397
1772721088982509600,2.221509521484375,1.3641281127929688,-0.8536982536315918,-1.5369564294815063
1772721089001105700,2.240105712890625,1.0795097351074219,-1.299691081047058,-0.2278984636068344
1772721089019701500,2.258701416015625,-0.08197402954101562,-1.6092448234558105,1.1197657585144043
1772721089038297300,2.27729736328125,-1.2682695388793945,-1.5893723964691162,1.8126194477081299
1772721089056893400,2.2958935546875,-1.514887809753418,-1.3537518978118896,1.5104275941848755
1772721089075489300,2.3144892578125,-0.6212062835693359,-1.1666221618652344,0.2985555827617645
1772721089094085000,2.333085205078125,0.5230083465576172,-1.0325384140014648,-0.9261676073074341
1772721089112681200,2.35168115234375,1.4929723739624023,-1.039695382118225,-1.691744327545166
1772721089131277000,2.370277099609375,2.057638168334961,-1.4752702713012695,-1.826229214668274
1772721089149873000,2.388872802734375,1.7055397033691406,-1.9464442729949951,-1.9911549091339111
1772721089168468700,2.40746875,0.5334558486938477,-2.2656989097595215,-1.5923237800598145
1772721089187064800,2.42606494140625,-0.8389778137207031,-2.346397876739502,-0.9350411891937256
1772721089205660700,2.44466064453125,-1.4873571395874023,-2.1619348526000977,0.32527869939804077
1772721089224256800,2.4632568359375,-1.4903545379638672,-1.7066744565963745,2.5977530479431152
1772721089242852600,2.4818525390625,-1.0341739654541016,-0.68105149269104,5.036086559295654
1772721089261448400,2.500448486328125,0.2615680694580078,0.0470120906829834,6.851213455200195
1772721089280044500,2.51904443359375,2.32584285736084,0.21264219284057617,5.334590435028076
1772721089298640400,2.537640380859375,3.2616682052612305,0.07740020751953125,1.4605414867401123
1772721089317236200,2.556236328125,2.827153205871582,-0.19648802280426025,-1.685065507888794
1772721089335832000,2.57483203125,1.851266860961914,-0.13199448585510254,-3.273803949356079
1772721089354428200,2.59342822265625,0.6240787506103516,-0.04754352569580078,-3.364901304244995
1772721089373024000,2.61202392578125,-0.9460477828979492,-0.046211957931518555,-2.6483166217803955
1772721089391620000,2.6306201171875,-2.135878562927246,-0.08095955848693848,-1.4057085514068604
1772721089410216000,2.6492158203125,-2.245595932006836,-0.13128161430358887,0.052839070558547974
1772721089428811800,2.667811767578125,-1.8925647735595703,-0.030744314193725586,1.2919566631317139
1772721089447407900,2.686407958984375,-1.1961746215820312,0.04904007911682129,2.0772130489349365
1772721089466003700,2.705003662109375,-0.6854209899902344,0.03765153884887695,1.5707001686096191
1772721089484599800,2.723599853515625,-0.48668861389160156,-0.09051752090454102,0.8760429620742798
1772721089503195400,2.7421953125,-0.5195417404174805,0.11179208755493164,0.36254215240478516
1772721089521791500,2.76079150390625,-0.4010763168334961,0.38478732109069824,0.26368820667266846
1772721089540387300,2.77938720703125,-0.07481861114501953,0.631702184677124,0.7454428672790527
1772721089558983400,2.7979833984375,0.21593379974365234,0.7356643676757812,1.3212156295776367
1772721089577579300,2.816579345703125,0.49710655212402344,0.6597089767456055,1.712139368057251
1772721089596175000,2.835175048828125,0.4364204406738281,0.7330687046051025,1.5044307708740234
1772721089614771200,2.853771240234375,0.03125190734863281,0.8521074056625366,1.010521411895752
1772721089633367000,2.872366943359375,-0.5558137893676758,0.890800952911377,0.3881421685218811
1772721089651963100,2.890963134765625,-0.9945220947265625,0.8839190006256104,-0.06388682126998901
1772721089670558700,2.909558837890625,-0.9009389877319336,0.8203483819961548,-0.05670952796936035
1772721089689154800,2.92815478515625,-0.5978126525878906,0.768841028213501,0.20558610558509827
1772721089707750700,2.946750732421875,-0.3960733413696289,0.7991434335708618,0.6588849425315857
1772721089726346800,2.9653466796875,-0.21732425689697266,0.9710770845413208,1.4066073894500732
1772721089744942600,2.983942626953125,0.045284271240234375,1.1018695831298828,1.8220224380493164
1772721089763538400,3.002538330078125,0.45052051544189453,1.145263910293579,1.762241244316101
1772721089782134500,3.021134521484375,0.8389549255371094,1.0081220865249634,1.677438497543335
1772721089800730400,3.03973046875,0.9276676177978516,1.0473475456237793,1.1010395288467407
1772721089819326500,3.058326416015625,0.7827863693237305,0.9290820360183716,0.920857846736908
1772721089837922300,3.07692236328125,0.7516212463378906,0.8808251619338989,0.8181416988372803
1772721089856518100,3.09551806640625,1.1881961822509766,0.6903619766235352,1.123991847038269
1772721089875114000,3.114114013671875,1.7758636474609375,0.31730079650878906,1.2052931785583496
1772721089893710000,3.1327099609375,1.8341922760009766,0.007800102233886719,0.9656486511230469
1772721089912306000,3.151305908203125,1.247920036315918,-0.3663104772567749,0.2610265910625458
1772721089930901800,3.16990185546875,1.052464485168457,-0.9106011390686035,-0.7565147280693054
1772721089949497900,3.188497802734375,1.5351238250732422,-1.4017584323883057,-1.4738222360610962
1772721089968093700,3.20709375,1.6489629745483398,-1.6078487634658813,-1.6480523347854614
1772721089986689800,3.225689697265625,0.8667507171630859,-1.7658910751342773,-0.699277400970459
1772721090005285600,3.24428564453125,-0.45810699462890625,-1.7344475984573364,0.5710902214050293
1772721090023881500,3.262881591796875,-1.543203353881836,-1.844711184501648,1.1983683109283447
1772721090042477300,3.281477294921875,-2.0357823371887207,-1.8430936336517334,1.0507100820541382
1772721090061073400,3.300073486328125,-2.2743611335754395,-1.8305267095565796,1.0111231803894043
1772721090079669200,3.318669189453125,-1.8972268104553223,-2.104261875152588,0.4148794710636139
1772721090098265000,3.33726513671875,-1.0134353637695312,-2.333117961883545,-0.42200031876564026
1772721090116861200,3.355861083984375,-0.3992033004760742,-2.222421169281006,-0.9377251863479614
1772721090135457000,3.37445703125,-0.24826622009277344,-1.5929425954818726,-1.787781000137329
1772721090154053000,3.39305322265625,-0.19567489624023438,-0.9979037046432495,-2.419973373413086
1772721090172649000,3.41164892578125,-0.11252021789550781,-0.383556604385376,-2.3712663650512695
1772721090191244800,3.430244873046875,0.2253866195678711,-0.05268216133117676,-1.9066267013549805
1772721090209840600,3.448840576171875,0.5027885437011719,-0.2755788564682007,-1.6185954809188843
1772721090228436700,3.467436767578125,0.6313896179199219,-0.5822650194168091,-1.5162266492843628
1772721090247032600,3.486032470703125,0.7496957778930664,-0.8415251970291138,-0.9501351714134216
1772721090265628400,3.50462841796875,0.7476406097412109,-0.9135347604751587,-0.2058749794960022
1772721090284224500,3.523224609375,0.5339908599853516,-0.9318022131919861,-0.03969019651412964
1772721090302820400,3.5418203125,0.22127151489257812,-0.6373275518417358,-0.49824613332748413
1772721090321416400,3.56041650390625,-0.09196662902832031,-0.5515387058258057,-0.7340044379234314
1772721090340012300,3.57901220703125,-0.2366342544555664,-0.6758754253387451,-0.9139992594718933
1772721090358608100,3.597608154296875,-0.2902565002441406,-0.854158878326416,-1.0307776927947998
1772721090377204200,3.616204345703125,-0.26160430908203125,-0.8406791090965271,-0.8570606112480164
1772721090395800000,3.634800048828125,-0.2770395278930664,-0.7113800048828125,-0.43464022874832153
1772721090414396200,3.653396240234375,-0.3384742736816406,-0.2575587034225464,0.047437846660614014
1772721090432992000,3.671991943359375,-0.20535564422607422,0.07767462730407715,0.7246900796890259
1772721090451587800,3.690587890625,-0.30292701721191406,0.2884633541107178,0.8180232048034668
1772721090470184000,3.709183837890625,-0.46405601501464844,0.4138537645339966,0.1256847381591797
1772721090488779800,3.72777978515625,-0.077606201171875,0.4692736864089966,-0.12856543064117432
1772721090507375600,3.746375732421875,0.4554471969604492,0.668513298034668,-0.06700587272644043
1772721090525971700,3.7649716796875,0.7948093414306641,0.9004340171813965,-0.21863055229187012
1772721090544567600,3.783567626953125,1.2434425354003906,0.776954174041748,-0.18149781227111816
1772721090563163600,3.80216357421875,1.1882562637329102,0.42806780338287354,-0.5197018384933472
1772721090581759500,3.820759521484375,0.6038341522216797,0.3414534330368042,-1.1919636726379395
1772721090600355300,3.839355224609375,0.12384700775146484,0.6633111238479614,-1.7470321655273438
1772721090618951400,3.857951416015625,-0.12668418884277344,0.9041740894317627,-1.4811300039291382
1772721090637547300,3.87654736328125,-0.45641136169433594,0.8201926946640015,-1.0082720518112183
1772721090656143000,3.89514306640625,-0.5882654190063477,0.43737292289733887,-0.7660154104232788
1772721090674739200,3.9137392578125,-0.17710113525390625,-0.28431856632232666,-0.7445763349533081
1772721090693335000,3.9323349609375,-0.08126449584960938,-1.0063965320587158,-0.9000347852706909
1772721090711931100,3.95093115234375,-0.011930465698242188,-1.1275302171707153,-0.5256326198577881
1772721090730527000,3.96952685546875,-0.23812580108642578,-1.0893343687057495,0.5187052488327026
1772721090749122800,3.988122802734375,-0.7791805267333984,-1.18861985206604,1.107764720916748
1772721090767719000,4.006718994140625,-1.3639678955078125,-1.5211613178253174,0.884384036064148
1772721090786314800,4.025314697265625,-1.3926420211791992,-1.6930158138275146,-0.3013761043548584
1772721090804910800,4.043910888671875,-0.4996938705444336,-1.3300772905349731,-1.068126916885376
1772721090823506700,4.062506591796875,0.9496059417724609,-0.9346489906311035,-0.5633544921875
1772721090842102800,4.081102783203125,1.8573904037475586,-0.7773826122283936,0.17409753799438477
1772721090860698600,4.09969873046875,2.029285430908203,-0.8696441650390625,0.5907307863235474
1772721090879294500,4.11829443359375,1.3107633590698242,-1.1183384656906128,-0.4532703161239624
1772721090897890600,4.136890625,0.6212234497070312,-1.2743780612945557,-1.5991013050079346
1772721090916486400,4.155486328125,0.1603221893310547,-1.2451443672180176,-1.3625292778015137
1772721090935082500,4.17408251953125,-0.12117862701416016,-1.110922932624817,-0.5583947896957397
1772721090953678300,4.19267822265625,-0.2622108459472656,-0.962587833404541,0.7186935544013977
1772721090972274200,4.211274169921875,-0.11305904388427734,-0.8961272239685059,2.2157373428344727
1772721090990870300,4.229870361328125,-0.035407066345214844,-0.8563840985298157,3.213266372680664
1772721091009466400,4.24846630859375,0.20820999145507812,-0.7381194233894348,3.672121286392212
1772721091028062200,4.267062255859375,0.12005996704101562,-0.8408304452896118,2.6374549865722656
1772721091046658000,4.285657958984375,-0.0030002593994140625,-0.5912761688232422,0.9745059013366699
1772721091065254100,4.304254150390625,0.16030311584472656,0.0111922025680542,0.04276186227798462
1772721091083850000,4.32285009765625,0.23075103759765625,0.1666790246963501,-1.0822794437408447
1772721091102446000,4.341446044921875,0.27803516387939453,0.25748777389526367,-1.7846490144729614
1772721091121042000,4.3600419921875,0.3969736099243164,0.16705727577209473,-1.3593125343322754
1772721091139638000,4.378637939453125,0.1746673583984375,0.2791895866394043,-0.457927942276001
1772721091158233900,4.39723388671875,-0.19989299774169922,0.1924724578857422,0.6705191135406494
1772721091176829700,4.41582958984375,-0.36374664306640625,-0.16001474857330322,0.912915825843811
1772721091195425800,4.43442578125,-0.1730976104736328,-0.24619388580322266,0.8033402562141418
1772721091214022000,4.45302197265625,0.2091970443725586,-0.23677504062652588,0.752359926700592
1772721091232617700,4.47161767578125,0.3975658416748047,0.06575191020965576,0.6493447422981262
1772721091251213600,4.490213623046875,0.3632831573486328,0.38084137439727783,0.20462822914123535
1772721091269809700,4.5088095703125,0.1805591583251953,0.536846399307251,-0.11927908658981323
1772721091288405500,4.527405517578125,0.11562442779541016,0.740485429763794,-0.4513200521469116
1772721091307001600,4.546001708984375,0.13103961944580078,0.7820456027984619,-0.6965683102607727
1772721091325597400,4.564597412109375,0.16860389709472656,0.9347845315933228,-0.7164111733436584
1772721091344193500,4.583193603515625,0.17639636993408203,0.8121169805526733,-0.13331103324890137
1772721091362789400,4.601789306640625,-0.2737293243408203,0.8588322401046753,0.16149914264678955
1772721091381385500,4.620385498046875,-0.3500080108642578,0.7226417064666748,0.15398776531219482
1772721091399981300,4.638981201171875,-0.5370540618896484,0.5289433002471924,0.23015707731246948
1772721091418577400,4.657577392578125,-0.9390792846679688,0.7250458002090454,0.048030972480773926
1772721091437173200,4.67617333984375,-0.8560514450073242,0.8157855272293091,0.19404387474060059
1772721091455769300,4.694769287109375,-0.48732566833496094,0.7578215599060059,0.5418541431427002
1772721091474365200,4.713365234375,-0.2818450927734375,0.8226437568664551,0.6170957088470459
1772721091492961300,4.731961181640625,-0.30584049224853516,0.8797192573547363,0.592335045337677
1772721091511557000,4.75055712890625,-0.5620946884155273,0.8777364492416382,0.549668550491333
1772721091530153200,4.7691533203125,-0.7287864685058594,1.0087021589279175,0.6814942359924316
1772721091548749000,4.7877490234375,-0.7556734085083008,1.126112699508667,1.0160343647003174
1772721091567345200,4.80634521484375,-0.7974758148193359,1.2158184051513672,0.8600698709487915
1772721091585941200,4.824941162109375,-0.706883430480957,1.198923110961914,0.32611197233200073
1772721091604537000,4.843537109375,-0.3677701950073242,1.0137099027633667,0.3381232023239136
1772721091623133000,4.8621328125,0.18691444396972656,0.8553345203399658,0.5464127063751221
1772721091641729000,4.88072900390625,0.40771484375,0.8751875162124634,0.6345537900924683
1772721091660325000,4.8993251953125,0.3447990417480469,0.8726365566253662,0.838128387928009
1772721091678921000,4.9179208984375,0.174285888671875,0.8577073812484741,1.138174057006836
1772721091697517000,4.93651708984375,0.049050331115722656,0.9820458889007568,1.3704142570495605
1772721091716113000,4.95511279296875,0.29581165313720703,1.117803931236267,2.038773536682129
1772721091734708700,4.973708740234375,1.1043500900268555,1.3288384675979614,1.9848573207855225
1772721091753304800,4.992304931640625,2.0484066009521484,1.1969596147537231,1.1708347797393799
1772721091771901000,5.01090087890625,2.4530820846557617,0.8209551572799683,0.34806254506111145
1772721091790496800,5.029496826171875,2.4254846572875977,0.6258774995803833,-0.4224506616592407
1772721091809092900,5.0480927734375,2.024725914001465,0.43063902854919434,-0.7217856049537659
1772721091827688700,5.066688720703125,1.054518699645996,0.1589263677597046,-0.8831830620765686
1772721091846284800,5.085284912109375,-0.023763656616210938,-0.21828460693359375,-0.8308253884315491
1772721091864880600,5.103880615234375,-0.8082685470581055,-0.5874143838882446,-0.37748396396636963
1772721091883476700,5.122476806640625,-1.2218561172485352,-0.8732335567474365,0.2354467511177063
1772721091902072600,5.141072509765625,-1.269761085510254,-1.1099048852920532,0.5175867080688477
1772721091920668700,5.159668701171875,-0.6269502639770508,-1.259777307510376,0.14083504676818848
1772721091939264500,5.178264404296875,-0.041179656982421875,-1.4188404083251953,-0.3422729969024658
1772721091957860600,5.196860595703125,0.11113262176513672,-1.6002117395401,-0.7261782288551331
1772721091976456400,5.21545654296875,-0.3349781036376953,-1.3277620077133179,-1.3309519290924072
1772721091995052500,5.234052490234375,-0.8052043914794922,-1.10756254196167,-1.5972576141357422
1772721092013648600,5.252648681640625,-1.0096349716186523,-1.2268263101577759,-1.5237282514572144
1772721092032244500,5.271244384765625,-1.2476787567138672,-1.4426783323287964,-1.670333981513977
1772721092050840600,5.289840576171875,-1.3531074523925781,-1.6623705625534058,-1.7797386646270752
1772721092069436400,5.3084365234375,-1.2016067504882812,-1.6777665615081787,-1.7393351793289185
1772721092088032500,5.327032470703125,-1.0420522689819336,-1.336669683456421,-2.0854685306549072
1772721092106628400,5.34562841796875,-0.7815723419189453,-0.8079522848129272,-2.384380340576172
1772721092125224400,5.364224365234375,-0.232025146484375,-0.4715447425842285,-2.2192962169647217
1772721092143820300,5.3828203125,0.36591625213623047,-0.23728680610656738,-1.5794862508773804
1772721092162416400,5.40141650390625,0.5069189071655273,0.025098323822021484,-0.7172899842262268
1772721092181012200,5.42001220703125,0.19041728973388672,0.3228473663330078,-0.27147871255874634
1772721092199608300,5.4386083984375,0.07451152801513672,0.4975697994232178,-0.1808549165725708
1772721092218204200,5.4572041015625,-0.04043292999267578,0.4460996389389038,-0.63715660572052
1772721092236800300,5.47580029296875,-0.20846080780029297,0.46880602836608887,-1.1142895221710205
1772721092255396000,5.49439599609375,-0.3865823745727539,0.3684499263763428,-1.249416708946228
1772721092273992200,5.5129921875,-0.13336944580078125,0.18252110481262207,-0.7268955707550049
1772721092292588000,5.531588134765625,0.13755416870117188,0.11757373809814453,-0.19775664806365967
1772721092311184100,5.55018408203125,0.1932210922241211,0.11990845203399658,-0.04969477653503418
1772721092329780200,5.5687802734375,0.17122268676757812,0.06468617916107178,-0.0025490522384643555
1772721092348376000,5.5873759765625,0.34624385833740234,0.06720256805419922,0.11254072189331055
1772721092366972200,5.60597216796875,0.5603580474853516,0.1345895528793335,0.2885693311691284
1772721092385568000,5.624568115234375,0.6113061904907227,0.2055436372756958,0.5502501130104065
1772721092404163800,5.643163818359375,0.5165700912475586,0.3319377899169922,0.9405056834220886
1772721092422760000,5.661760009765625,0.4106130599975586,0.3072237968444824,1.1201733350753784
1772721092441356000,5.68035595703125,0.20314502716064453,0.25834810733795166,0.8729566931724548
1772721092459951900,5.698951904296875,-0.12751293182373047,0.3213512897491455,0.3817729949951172
1772721092478548000,5.7175478515625,-0.2735137939453125,0.3936213254928589,0.005240917205810547
1772721092497143800,5.736143798828125,-0.14585399627685547,0.2511725425720215,-0.1747264862060547
1772721092515740000,5.754739990234375,-0.26134300231933594,0.20984172821044922,-0.40440118312835693
1772721092534335700,5.773335693359375,-0.3905353546142578,0.3194596767425537,-0.5315843820571899
1772721092552931800,5.791931884765625,-0.34018898010253906,0.5337228775024414,-0.4442969560623169
1772721092571527700,5.810527587890625,-0.08301448822021484,0.6782205104827881,-0.303525447845459
1772721092590123800,5.829123779296875,0.12152481079101562,0.7815923690795898,0.003288865089416504
1772721092608719600,5.8477197265625,0.19852161407470703,0.721325159072876,0.14516901969909668
1772721092627315700,5.866315673828125,0.349029541015625,0.5092284679412842,-0.08572041988372803
1772721092645911600,5.88491162109375,0.24083900451660156,0.5620862245559692,-0.4128533601760864
1772721092664507600,5.903507568359375,0.047351837158203125,0.5997252464294434,-0.45009779930114746
1772721092683103500,5.922103515625,-0.1796560287475586,0.6521573066711426,-0.5116556882858276
1772721092701699600,5.940699462890625,-0.4613943099975586,0.8100486993789673,-0.9116426706314087
1772721092720295400,5.95929541015625,-0.6174535751342773,0.5711009502410889,-1.4706212282180786
1772721092738891500,5.9778916015625,-0.5282154083251953,0.288895845413208,-1.7760021686553955
1772721092757487400,5.9964873046875,-0.6571464538574219,0.040924787521362305,-1.5053398609161377
1772721092776083500,6.01508349609375,-0.6125888824462891,-0.19506680965423584,-0.9596205949783325
1772721092794679300,6.03367919921875,0.5515613555908203,-0.9423131942749023,0.05896434187889099
1772721092813275400,6.052275390625,1.3541479110717773,-1.123949408531189,0.3440149426460266
1772721092831871200,6.070871337890625,1.4888238906860352,-0.7412662506103516,-0.036350518465042114
1772721092850467300,6.08946728515625,1.264998435974121,-0.39060544967651367,0.2552836835384369
1772721092869063200,6.108063232421875,0.6488685607910156,-0.33388853073120117,0.6948390603065491
1772721092887659300,6.1266591796875,0.03942394256591797,-0.3194793462753296,0.7729915380477905
1772721092906255000,6.145255126953125,-0.5271968841552734,-0.3011963367462158,0.5914276838302612
1772721092924851200,6.163851318359375,-0.66455078125,-0.43850111961364746,0.24243712425231934
1772721092943447000,6.182447021484375,-0.3714141845703125,-0.6767003536224365,-0.40301012992858887
1772721092962043100,6.201043212890625,-0.09543704986572266,-0.8090342283248901,-0.8711386919021606
1772721092980639000,6.219638916015625,0.20929718017578125,-1.039957046508789,-0.8998719453811646
1772721092999235000,6.238235107421875,0.46072959899902344,-1.3676416873931885,-0.6797919273376465
1772721093017831000,6.256830810546875,0.38952064514160156,-1.475457787513733,-0.5303970575332642
1772721093036427000,6.275427001953125,0.36081600189208984,-1.1583606004714966,0.10060453414916992
1772721093055022800,6.29402294921875,0.6593179702758789,-0.7193410396575928,1.5907392501831055
1772721093073619000,6.312618896484375,1.074014663696289,-0.5995662212371826,2.792468547821045
1772721093092214800,6.33121484375,1.035017967224121,-0.3475900888442993,3.302682876586914
1772721093110811000,6.349810791015625,0.7161006927490234,-0.12860286235809326,3.1145129203796387
1772721093129406700,6.36840673828125,0.5892734527587891,-0.2943236827850342,2.200625419616699
1772721093148002800,6.3870029296875,0.7571887969970703,-0.6890496015548706,1.0261188745498657
1772721093166598700,6.4055986328125,0.6049270629882812,-0.6979978084564209,0.01937544345855713
1772721093185194800,6.42419482421875,0.16307640075683594,-0.7698690891265869,-0.3507366180419922
1772721093203790600,6.44279052734375,-0.12119293212890625,-0.8430341482162476,-0.5230519771575928
1772721093222386400,6.461386474609375,-0.1701822280883789,-0.9803818464279175,-0.5893193483352661
1772721093240982500,6.479982421875,-0.5701894760131836,-0.9358021020889282,-0.6162027716636658
1772721093259578600,6.49857861328125,-1.1001129150390625,-0.7257070541381836,-0.33742260932922363
1772721093278174500,6.517174560546875,-1.5639104843139648,-0.3577479124069214,0.1906161904335022
1772721093296770300,6.535770263671875,-1.1222305297851562,-0.6292839050292969,0.9004018902778625
1772721093315366400,6.554366455078125,-0.3940877914428711,-0.4905693531036377,0.6313298940658569
1772721093333962200,6.572962158203125,0.20024490356445312,-0.05477643013000488,0.6729893684387207
1772721093352558300,6.591558349609375,0.33243370056152344,0.1553899049758911,1.2507147789001465
1772721093371154200,6.610154296875,0.000209808349609375,0.31092369556427,1.1854159832000732
1772721093389750300,6.628750244140625,-0.6609077453613281,0.3388315439224243,0.8257136344909668
1772721093408346000,6.64734619140625,-1.0144777297973633,0.47270309925079346,0.15198767185211182
1772721093426942200,6.665942138671875,-0.8538341522216797,0.4595237970352173,-0.171775221824646
1772721093445538000,6.6845380859375,-0.7927608489990234,0.2618645429611206,0.22741132974624634
1772721093464134100,6.703134033203125,-0.5986452102661133,0.6513932943344116,-0.01260906457901001
1772721093482730000,6.72172998046875,-0.42652416229248047,0.7610691785812378,-0.024172604084014893
1772721093501325800,6.740325927734375,-0.4088449478149414,0.9234784841537476,-0.012426555156707764
1772721093519922000,6.758921875,-0.17113971710205078,0.7967851161956787,0.17453306913375854
1772721093538518000,6.77751806640625,0.34078407287597656,0.45717334747314453,0.2968141734600067
1772721093557113900,6.79611376953125,0.6840896606445312,0.527949333190918,0.3206370174884796
1772721093575709700,6.814709716796875,0.7405500411987305,0.712310791015625,0.7723190784454346
1772721093594305800,6.833305908203125,0.5312976837158203,0.8309645652770996,1.2505850791931152
1772721093612901600,6.851901611328125,0.27358055114746094,0.883273720741272,1.2438410520553589
1772721093631497700,6.870497802734375,0.35060882568359375,0.7246290445327759,1.1018470525741577
1772721093650093600,6.889093505859375,0.47760963439941406,0.6882684230804443,0.833846926689148
1772721093668689700,6.907689697265625,0.36022472381591797,0.7300578355789185,0.6118879318237305
1772721093687285500,6.926285400390625,0.4751615524291992,0.9530115127563477,0.5056358575820923
1772721093705881300,6.94488134765625,0.7301321029663086,0.9107458591461182,0.8375890851020813
1772721093724477400,6.9634775390625,0.6330471038818359,0.9076080322265625,0.7646611928939819
1772721093743073500,6.982073486328125,0.26286888122558594,0.9325209856033325,0.29429545998573303
1772721093761669400,7.00066943359375,0.021210670471191406,0.5538942813873291,0.10064065456390381
1772721093780265200,7.01926513671875,0.03795146942138672,0.23878884315490723,-0.4035593569278717
1772721093798861300,7.037861328125,0.48627281188964844,0.15040802955627441,-0.6471347808837891
1772721093817457200,7.05645703125,0.9127826690673828,0.08484876155853271,-0.606267511844635
1772721093836053200,7.07505322265625,1.3256292343139648,-0.14232826232910156,-0.1142318844795227
1772721093854649000,7.093649169921875,1.5627079010009766,-0.4287770390510559,0.30133283138275146
1772721093873245200,7.1122451171875,1.163003921508789,-0.7789504528045654,0.5922654867172241
1772721093891841000,7.130841064453125,0.4308614730834961,-1.1205134391784668,0.683372974395752
1772721093910436900,7.149436767578125,-0.3309040069580078,-1.2526674270629883,0.621074914932251
1772721093929033000,7.168032958984375,-1.0884933471679688,-1.2775967121124268,0.4443416893482208
1772721093947628800,7.18662890625,-1.719350814819336,-1.3139442205429077,0.5697613954544067
1772721093966225000,7.205224853515625,-2.0232067108154297,-1.3686187267303467,0.32426074147224426
1772721093984820700,7.22382080078125,-2.1272172927856445,-1.445870041847229,-0.24903735518455505
1772721094003416800,7.242416748046875,-1.706197738647461,-1.5317708253860474,-0.739973783493042
1772721094022012700,7.2610126953125,-1.1123409271240234,-1.5527753829956055,-0.8821653127670288
1772721094040608800,7.27960888671875,-0.43804359436035156,-1.3719356060028076,-0.7797482013702393
1772721094059204600,7.29820458984375,0.39665889739990234,-1.3045721054077148,-0.29002752900123596
1772721094077800400,7.316800537109375,0.5916690826416016,-1.1091607809066772,-0.1277698576450348
1772721094096396500,7.335396484375,0.28263187408447266,-0.7914260625839233,-0.30739593505859375
1772721094114992400,7.353992431640625,-0.06696128845214844,-0.595244288444519,-0.4224919080734253
1772721094133588500,7.37258837890625,-0.13579845428466797,-0.51242995262146,-0.6426827311515808
1772721094152184300,7.391184326171875,-0.32950878143310547,-0.6762062907218933,-1.2350001335144043
1772721094170780400,7.409780517578125,-0.38457775115966797,-0.8348180055618286,-1.6303067207336426
1772721094189376300,7.428376220703125,-0.1974639892578125,-0.9975640773773193,-1.5982632637023926
1772721094207972000,7.44697216796875,0.2783222198486328,-0.9448128938674927,-1.1486401557922363
1772721094226568200,7.465568115234375,0.7627382278442383,-0.8300901651382446,-0.4384995102882385
1772721094245164000,7.4841640625,1.1678791046142578,-0.8993842005729675,0.3116947412490845
1772721094263760000,7.502759765625,0.8992395401000977,-1.0084068775177002,0.5984700322151184
1772721094282356000,7.52135595703125,0.3575000762939453,-0.9944056272506714,0.4860241413116455
1772721094300951800,7.539951904296875,-0.25652027130126953,-0.8280060887336731,0.121731698513031
1772721094319548000,7.5585478515625,-0.5740242004394531,-0.6307245492935181,-0.31962263584136963
1772721094338143700,7.577143798828125,-0.5541181564331055,-0.3502911329269409,-0.4773692488670349
1772721094356739800,7.59573974609375,-0.2835197448730469,-0.1272934079170227,-0.3262869119644165
1772721094375335700,7.614335693359375,-0.11722469329833984,-0.06314194202423096,-0.11259537935256958
1772721094393931800,7.632931884765625,-0.13216495513916016,-0.004568994045257568,0.15958547592163086
1772721094412527600,7.651527587890625,0.055736541748046875,0.11702871322631836,0.35615813732147217
1772721094431123500,7.67012353515625,0.15256309509277344,0.04404550790786743,0.39469224214553833
1772721094449719600,7.688719482421875,0.1609954833984375,-0.06076765060424805,0.3674732446670532
1772721094468315400,7.7073154296875,-0.15007877349853516,-0.10937613248825073,0.4011133909225464
1772721094486911200,7.7259111328125,-0.27800559997558594,0.02184760570526123,0.3068603277206421
1772721094505507300,7.74450732421875,-0.28043365478515625,-0.026992619037628174,0.5127772092819214
1772721094524103200,7.763103271484375,0.033168792724609375,-0.06595158576965332,0.8392244577407837
1772721094542699300,7.78169921875,0.3090667724609375,0.20521962642669678,0.49565523862838745
1772721094561295000,7.800295166015625,0.48141002655029297,0.3716247081756592,-0.2609684467315674
1772721094579891000,7.818890869140625,0.5383939743041992,0.5134438872337341,-1.0161526203155518
1772721094598487000,7.837487060546875,0.5383415222167969,0.8968263268470764,-1.4458398818969727
1772721094617083000,7.856082763671875,0.5116910934448242,1.0868593454360962,-1.2210725545883179
1772721094635678700,7.8746787109375,0.1907672882080078,1.0911450386047363,-0.8154066801071167
1772721094654274800,7.89327490234375,0.15305137634277344,0.8940443992614746,-0.549385666847229
1772721094672870700,7.91187060546875,0.15376949310302734,0.24910151958465576,-0.8948951959609985
1772721094691466800,7.930466796875,0.30819129943847656,-0.3264243006706238,-1.2977617979049683
1772721094710062600,7.9490625,0.5830411911010742,-0.7643290758132935,-0.6827213168144226
1772721094728658400,7.967658447265625,0.4224414825439453,-0.8357417583465576,0.3680031895637512
1772721094747254500,7.986254638671875,-0.00040340423583984375,-1.0022567510604858,1.442079782485962
1772721094765850400,8.004850341796875,-0.6548557281494141,-1.0526760816574097,1.894087553024292
1772721094784446500,8.023446533203124,-0.9472570419311523,-0.898517370223999,1.61045503616333
1772721094803042300,8.042042236328125,-0.8462734222412109,-0.9919297695159912,1.2288817167282104
1772721094821638100,8.06063818359375,-0.4452362060546875,-1.045078992843628,0.5168736577033997
1772721094840234200,8.079234130859374,-0.09201335906982422,-0.991223931312561,-0.5361983776092529
1772721094858830000,8.097830078125,0.12887191772460938,-1.0903874635696411,-1.3956170082092285
1772721094877426000,8.116426025390625,0.37450408935546875,-1.0558109283447266,-2.1289141178131104
1772721094896022000,8.13502197265625,0.7692070007324219,-1.010176420211792,-2.146110773086548
1772721094914617900,8.153617919921874,1.0458593368530273,-1.0328304767608643,-1.483075737953186
1772721094933214000,8.1722138671875,1.0138359069824219,-1.1530448198318481,-0.36445140838623047
1772721094961107700,8.200107666015626,0.6165533065795898,-1.1900672912597656,1.3147680759429932
1772721094979703800,8.218703857421875,0.3762969970703125,-1.243472933769226,2.3296854496002197
1772721094998299600,8.237299560546875,0.4144172668457031,-1.4153532981872559,2.5932273864746094
1772721095016895500,8.2558955078125,0.4488563537597656,-1.4779839515686035,2.0266170501708984
1772721095035491300,8.2744912109375,0.25270938873291016,-1.089807391166687,2.026599884033203
1772721095054087400,8.29308740234375,-0.1275339126586914,-0.6614087224006653,1.7332674264907837
1772721095072683300,8.311683349609375,-0.25646114349365234,-0.20157170295715332,0.9089057445526123
1772721095091279400,8.330279296875,0.14094161987304688,0.21837973594665527,0.9331389665603638
1772721095109875200,8.348875244140626,0.594395637512207,0.21165740489959717,0.8248820900917053
1772721095128471000,8.367470947265625,1.009566307067871,0.13179564476013184,0.03837639093399048
1772721095147067100,8.386067138671875,1.327566146850586,0.2002863883972168,-0.3400702476501465
1772721095165663000,8.4046630859375,1.410308837890625,0.3297156095504761,0.10058391094207764
1772721095184259000,8.423259033203125,1.1048259735107422,0.15749239921569824,0.4058377742767334
1772721095202855000,8.44185498046875,0.49621105194091797,-0.12229597568511963,0.24650752544403076
1772721095221450800,8.46045068359375,-0.45177745819091797,-0.13816535472869873,-0.4114988446235657
1772721095240046600,8.479046630859376,-1.2961091995239258,0.0024445056915283203,-0.6278591752052307
1772721095258642700,8.497642578125,-1.7379264831542969,0.24253952503204346,-0.2517249584197998
1772721095277238500,8.516238525390625,-1.7027473449707031,0.42955005168914795,0.4447477459907532
1772721095295834400,8.53483447265625,-1.496424674987793,0.6061580181121826,1.1144227981567383
1772721095314430500,8.553430419921876,-1.2853994369506836,0.701703667640686,1.0929685831069946
1772721095333026300,8.5720263671875,-0.67340087890625,0.6940038204193115,0.7007744908332825
1772721095351622400,8.590622314453125,-0.26894569396972656,0.6437911987304688,0.638412594795227
1772721095370218200,8.60921826171875,-0.2859001159667969,0.8991348743438721,0.46577560901641846
1772721095388814000,8.62781396484375,-0.5678892135620117,0.8929718732833862,0.3531382977962494
1772721095407410000,8.646409912109375,-0.9435176849365234,0.988638162612915,0.36147385835647583
1772721095426006000,8.665006103515625,-0.5631036758422852,1.0771329402923584,0.5252442359924316
1772721095444601900,8.683601806640626,-0.06652259826660156,0.9255999326705933,0.5330793261528015
1772721095463197700,8.70219775390625,-0.0108795166015625,1.1366171836853027,0.43544039130210876
1772721095481793800,8.720793701171875,-0.13264179229736328,1.101788878440857,0.34982869029045105
1772721095500389600,8.7393896484375,-0.4870309829711914,1.209166169166565,0.3888472318649292
1772721095518985500,8.7579853515625,-0.8526821136474609,1.2252191305160522,0.6103302836418152
1772721095537581600,8.77658154296875,-1.0345878601074219,1.1933141946792603,0.9257606863975525
1772721095556177400,8.795177490234375,-1.127004623413086,1.0886720418930054,1.4474165439605713
1772721095574773200,8.813773193359374,-1.1874628067016602,0.991235613822937,1.5433037281036377
1772721095593369300,8.832369384765625,-0.881281852722168,0.8030420541763306,1.8677349090576172
1772721095611965200,8.850965087890625,-0.18223094940185547,0.813795804977417,1.8662583827972412
1772721095630561000,8.86956103515625,0.5556879043579102,0.9117574691772461,1.1908425092697144
1772721095649156900,8.888156982421876,0.913874626159668,1.0630507469177246,1.0265597105026245
1772721095667753000,8.9067529296875,1.1273488998413086,1.1841055154800415,1.1169627904891968
1772721095695646700,8.934646728515625,0.860107421875,1.2487287521362305,0.6178959012031555
1772721095714242800,8.953242919921875,0.7607278823852539,1.1450659036636353,0.6238069534301758
1772721095732838700,8.971838623046875,0.9414329528808594,0.8535386323928833,1.0158848762512207
1772721095751434500,8.9904345703125,1.408951759338379,0.3352757692337036,1.3402769565582275
1772721095770030300,9.0090302734375,1.2701349258422852,-0.1595708131790161,1.1446199417114258
1772721095788626400,9.02762646484375,0.8727045059204102,-0.4849356412887573,0.7386758327484131
1772721095807222300,9.04622216796875,0.1613759994506836,-0.8158470392227173,0.2988011837005615
1772721095825818000,9.064818115234376,-0.6843547821044922,-0.9851137399673462,-0.08419227600097656
1772721095844414000,9.0834140625,-1.1823091506958008,-1.2732973098754883,-0.3963446319103241
1772721095863010000,9.102010009765625,-0.40561866760253906,-1.707722783088684,-0.696510910987854
1772721095881606000,9.12060595703125,0.15938377380371094,-2.1719489097595215,-1.3613193035125732
1772721095900201700,9.13920166015625,-0.162261962890625,-1.8628129959106445,-1.2766640186309814
1772721095918797800,9.1577978515625,-0.6299161911010742,-1.5583343505859375,-0.5827141404151917
1772721095937393700,9.1763935546875,-0.8922300338745117,-1.4159653186798096,-0.1792825162410736
1772721095955989500,9.194989501953126,-1.1319465637207031,-1.301495909690857,-0.17167973518371582
1772721095974585300,9.21358544921875,-0.8610811233520508,-1.550774335861206,-0.714501142501831
1772721095993181400,9.232181396484375,-0.08634757995605469,-1.6734753847122192,-1.233514428138733
1772721096011777300,9.25077734375,0.8707246780395508,-1.2664265632629395,-1.0660507678985596
1772721096030373000,9.269373046875,1.4585332870483398,-0.7840190529823303,-0.42944037914276123
1772721096048969000,9.287968994140625,1.452901840209961,-0.680733323097229,-0.13351106643676758
1772721096067564800,9.306564697265625,0.8845653533935547,-0.6189042329788208,-0.4880642592906952
1772721096086161000,9.325160888671874,0.13351917266845703,-0.543748676776886,-1.2739814519882202
1772721096104756700,9.3437568359375,-0.41817283630371094,-0.4670802354812622,-1.8647617101669312
1772721096123352600,9.3623525390625,-0.7776632308959961,-0.2938234806060791,-1.7116200923919678
1772721096141948400,9.380948486328125,-0.8302602767944336,-0.21296179294586182,-1.4271976947784424
1772721096160544500,9.39954443359375,-0.10635662078857422,-0.18600332736968994,-1.349373459815979
1772721096179140400,9.418140380859375,0.8764734268188477,-0.34619414806365967,-0.9159300923347473
1772721096197736200,9.436736083984375,1.0886764526367188,-0.34437716007232666,-0.39057761430740356
1772721096216332000,9.45533203125,0.5208539962768555,-0.30308663845062256,-0.2554158866405487
1772721096234928000,9.47392822265625,-0.0033311843872070312,-0.47787320613861084,-0.519157886505127
1772721096253524000,9.49252392578125,-0.2225351333618164,-0.5657620429992676,-0.554797887802124
1772721096272119800,9.511119873046875,-0.14420032501220703,-0.4425047039985657,-0.32958316802978516
1772721096290715600,9.529715576171874,-0.22828102111816406,-0.3071324825286865,-0.2117380052804947
1772721096309311700,9.548311767578125,-0.5487356185913086,-0.39016270637512207,-0.3717781901359558
1772721096327907600,9.566907470703125,-0.8567438125610352,-0.2809457778930664,-0.08034439384937286
1772721096346503400,9.58550341796875,-0.6267614364624023,-0.3154550790786743,0.04450583457946777
1772721096365099300,9.604099365234376,-0.07787227630615234,-0.2575664520263672,-0.4676154553890228
1772721096383695000,9.622695068359375,0.34795284271240234,0.08037447929382324,-0.5971567630767822
1772721096402291200,9.641291259765625,0.7141265869140625,0.28545987606048584,-0.47734636068344116
1772721096420887000,9.659886962890624,0.8795051574707031,0.3374718427658081,-0.628442645072937
1772721096439483000,9.67848291015625,0.5420770645141602,0.2424219846725464,-0.7997356653213501
1772721096458078700,9.69707861328125,0.012452125549316406,0.12210118770599365,-0.82321697473526
1772721096476674600,9.715674560546875,-0.47032642364501953,0.09759438037872314,-1.0484589338302612
1772721096495270700,9.734270751953124,-0.5172109603881836,0.11738872528076172,-1.1233799457550049
1772721096513866500,9.752866455078125,-0.4627666473388672,0.38455021381378174,-0.7993139028549194
1772721096532462300,9.77146240234375,-0.3031339645385742,0.6605132818222046,-0.5856956243515015
1772721096551058200,9.79005810546875,0.010311126708984375,0.4100470542907715,-0.5708811283111572
1772721096569654300,9.808654296875,0.48500823974609375,-0.1386803388595581,-0.7881980538368225
1772721096588250000,9.82725,0.7732839584350586,-0.6850489377975464,-0.679144024848938
1772721096606846000,9.845845947265625,0.6834936141967773,-1.0137351751327515,-0.2526836395263672
1772721096625441800,9.86444189453125,0.30171966552734375,-1.091570496559143,0.15170186758041382
1772721096644037600,9.88303759765625,-0.40949249267578125,-0.9678704738616943,0.4163214862346649
1772721096662633700,9.9016337890625,-1.0987682342529297,-0.7662844061851501,0.29251983761787415
1772721096681229600,9.9202294921875,-1.4114065170288086,-0.6860793828964233,-0.1504610776901245
1772721096699825400,9.938825439453124,-1.2025041580200195,-0.6042629480361938,-0.7853193283081055
1772721096718421200,9.957421142578125,-0.6252298355102539,-0.44968366622924805,-1.1965522766113281
1772721096737017000,9.97601708984375,0.003025054931640625,-0.4576150178909302,-1.0247172117233276
1772721096755613000,9.994613037109374,0.07869434356689453,-0.39790284633636475,-0.8951784372329712
1772721096774209000,10.013208984375,-0.2709770202636719,-0.2445530891418457,-0.5596697926521301
1772721096792804900,10.031804931640625,-0.7175979614257812,-0.16228866577148438,0.053938090801239014
1772721096811400700,10.050400634765625,-0.47791099548339844,-0.1305297613143921,0.7456931471824646
1772721096829996500,10.06899658203125,-0.010214805603027344,-0.17702364921569824,1.0443508625030518
1772721096848592400,10.08759228515625,0.4448986053466797,-0.09546267986297607,1.0044716596603394
1772721096867188200,10.106188232421875,0.6322536468505859,0.08854317665100098,1.369182825088501
1772721096885784300,10.124784423828125,0.8502311706542969,0.36090219020843506,1.5557527542114258
1772721096904380200,10.143380126953126,1.1218318939208984,0.4790078401565552,1.4491857290267944
1772721096922976000,10.16197607421875,1.4194622039794922,0.5493240356445312,1.1973778009414673
1772721096941571800,10.18057177734375,1.3949527740478516,0.49878692626953125,1.0531013011932373
1772721096960167700,10.199167724609374,1.091731071472168,0.38921618461608887,0.8002763390541077
1772721096978763500,10.217763427734376,0.705225944519043,0.4014432430267334,0.44810837507247925
1772721096997359600,10.236359619140625,0.2958812713623047,0.48314690589904785,0.14001208543777466
1772721097015955500,10.25495556640625,0.038787841796875,0.6257843971252441,0.09801030158996582
1772721097034551300,10.27355126953125,-0.19792556762695312,0.678433895111084,-0.052681565284729004
1772721097053147100,10.292147216796875,-0.45564937591552734,0.4694373607635498,-0.020183086395263672
1772721097071743200,10.3107431640625,-0.5403785705566406,0.28671085834503174,0.03793811798095703
1772721097090339000,10.329339111328125,-0.6007003784179688,0.062335848808288574,-0.08975136280059814
1772721097108935000,10.347934814453126,-0.8446836471557617,-0.0151139497756958,-0.29944664239883423
1772721097127530800,10.36653076171875,-0.6742830276489258,-0.11699831485748291,-0.08278012275695801
1772721097146126600,10.385126708984375,-0.19715309143066406,0.16687703132629395,0.11530095338821411
1772721097164722400,10.403722412109374,0.17223739624023438,0.5590338706970215,0.19642502069473267
1772721097183318300,10.422318359375,0.2518444061279297,0.5369845628738403,0.13181382417678833
1772721097201914400,10.440914306640625,0.013030052185058594,0.6354230642318726,0.16231274604797363
1772721097220510200,10.45951025390625,-0.2884407043457031,0.5650091171264648,0.025584518909454346
1772721097239106000,10.47810595703125,-0.4962158203125,0.49584269523620605,-0.1632993221282959
1772721097257702000,10.496701904296875,-0.04854011535644531,0.5282038450241089,-0.1663723587989807
1772721097276297700,10.515297607421875,0.10401725769042969,0.6356484889984131,-0.506279706954956
1772721097294893600,10.5338935546875,-0.015559196472167969,0.9089752435684204,-0.5288116931915283
1772721097313489400,10.552489501953126,-0.2644062042236328,1.1333510875701904,-0.06590333580970764
1772721097332085500,10.57108544921875,-0.1232757568359375,1.0947716236114502,0.6119083166122437
1772721097350681300,10.589681396484375,-0.015773773193359375,1.0909119844436646,0.6674041748046875
1772721097369277200,10.608277099609374,-0.17894458770751953,0.9081876873970032,0.6395478844642639
1772721097387873000,10.626873046875,-0.4004192352294922,0.888108491897583,0.7224277853965759
1772721097406468900,10.64546875,-0.16683101654052734,0.6606082916259766,1.220217227935791
1772721097425064700,10.664064697265625,-0.14749622344970703,0.4600057601928711,1.1584069728851318
1772721097443660500,10.68266064453125,-0.4022674560546875,0.33255791664123535,0.924689531326294
1772721097462256600,10.701256591796875,-0.30167675018310547,0.2643169164657593,0.798973798751831
1772721097480852500,10.7198525390625,-0.44278621673583984,0.20925861597061157,0.8016179800033569
1772721097499448300,10.7384482421875,-0.8059120178222656,0.4032209515571594,0.6312867999076843
1772721097518044200,10.757044189453126,-0.6229524612426758,0.8036607503890991,0.7852396965026855
1772721097536640000,10.775639892578125,0.4163484573364258,0.898765504360199,1.0176950693130493
1772721097555235800,10.79423583984375,1.321004867553711,0.9783982038497925,1.0280051231384277
1772721097573831700,10.812831787109374,1.397989273071289,1.2335278987884521,0.6556640863418579
1772721097592427500,10.831427490234375,1.5452985763549805,1.1420001983642578,0.14226269721984863
1772721097611023600,10.850023681640625,1.4662818908691406,0.9906944036483765,-0.3359624147415161
1772721097629619500,10.868619384765625,0.8580923080444336,0.8841667175292969,-0.5253983736038208
1772721097648215300,10.88721533203125,0.4091911315917969,0.7492761611938477,-0.37742865085601807
1772721097666811100,10.90581103515625,-0.07529830932617188,0.5231022834777832,-0.3999309539794922
1772721097685407000,10.924406982421875,-0.30200862884521484,0.42495787143707275,-0.2748424708843231
1772721097704002800,10.9430029296875,-0.11234474182128906,0.17213129997253418,0.326832115650177
1772721097722598700,10.9615986328125,-0.1457843780517578,0.023104071617126465,0.680924654006958
1772721097741194500,10.980194580078125,-0.4034290313720703,-0.06738650798797607,0.7367000579833984
1772721097759790600,10.99879052734375,-0.515376091003418,-0.1293426752090454,0.6891962289810181
1772721097778386400,11.017386474609374,-0.32356834411621094,-0.2413005828857422,0.33216917514801025
1772721097796982300,11.035982177734375,-0.19769573211669922,-0.3084433078765869,-0.00043320655822753906
1772721097815578000,11.054578125,-0.46862316131591797,-0.4323429465293884,-0.35881471633911133
1772721097834174000,11.073174072265624,-0.8205862045288086,-0.43673813343048096,-0.8464521765708923
1772721097852769800,11.091769775390626,-0.5021810531616211,-0.41382479667663574,-0.9149764776229858
1772721097871365600,11.11036572265625,0.029605865478515625,-0.3048652410507202,-1.0310111045837402
1772721097889961500,11.12896142578125,0.3243751525878906,-0.11825668811798096,-0.9182438850402832
1772721097908557300,11.147557373046874,0.3230609893798828,-0.18847572803497314,-0.9340081214904785
1772721097927153400,11.1661533203125,0.0032329559326171875,-0.4030247926712036,-1.3263086080551147
1772721097945749200,11.184749267578125,-0.18445777893066406,-0.45634496212005615,-1.646779179573059
1772721097964345000,11.203344970703125,-0.42523956298828125,-0.45150554180145264,-1.5717353820800781
1772721097982941000,11.22194091796875,-0.7100315093994141,-0.5110632181167603,-1.300185203552246
1772721098001536800,11.240536865234375,-0.9569463729858398,-0.5476078987121582,-0.9630792140960693
1772721098020132600,11.259132568359375,-0.8278446197509766,-0.6049549579620361,-0.5283186435699463
1772721098038728400,11.277728515625,-0.2943277359008789,-0.61262047290802,-0.30245137214660645
1772721098057324300,11.29632421875,-0.3813009262084961,-0.3778524398803711,-0.3554115891456604
1772721098075920100,11.314920166015625,-0.7137727737426758,-0.24729156494140625,-1.210963487625122
1772721098094516200,11.33351611328125,-0.41568470001220703,-0.0989077091217041,-1.9592535495758057
1772721098113112000,11.352112060546874,0.16161441802978516,0.08237099647521973,-1.571748971939087
1772721098131708000,11.3707080078125,0.3560972213745117,0.27457666397094727,-1.333056926727295
