time,seconds_elapsed,z,y,x
1772721086853278500,0.092278564453125,-1.4636319875717163,-0.29451319575309753,0.43776097893714905
1772721086871874300,0.110874267578125,-1.4211769104003906,-0.28443390130996704,0.3678169548511505
1772721086890470100,0.12947021484375,-1.3674207925796509,-0.23892448842525482,0.36079201102256775
1772721086909066200,0.148066162109375,-1.2440260648727417,-0.1983019858598709,0.4970148503780365
1772721086927662000,0.166662109375,-1.0015127658843994,-0.10850485414266586,0.719369649887085
1772721086946258000,0.1852578125,-0.7877101302146912,-0.05719221383333206,0.8513164520263672
1772721086964853800,0.203853759765625,-0.9773836731910706,-0.008323032408952713,0.8137482404708862
1772721086983449600,0.22244970703125,-1.305112600326538,-0.16226094961166382,0.5635991096496582
1772721087002045400,0.24104541015625,-1.4107922315597534,-0.4032471179962158,0.24839289486408234
1772721087020641300,0.259641357421875,-1.360395908355713,-0.6216312646865845,0.008017600513994694
1772721087039237400,0.2782373046875,-1.2892301082611084,-0.6402626633644104,-0.1505018174648285
1772721087057833200,0.296833251953125,-1.2663227319717407,-0.5654317140579224,-0.1764635592699051
1772721087076429000,0.315428955078125,-1.2733476161956787,-0.4725802540779114,-0.046654798090457916
1772721087095025000,0.33402490234375,-1.2263110876083374,-0.40691229701042175,0.1683696061372757
1772721087113620700,0.352620849609375,-1.1233803033828735,-0.3800342381000519,0.3067304790019989
1772721087132216600,0.371216552734375,-0.9630283117294312,-0.36140286922454834,0.3064250349998474
1772721087150812700,0.389812744140625,-0.8118392825126648,-0.189444437623024,0.10300707072019577
1772721087169408500,0.408408447265625,-0.7535017132759094,0.013668099418282509,-0.24029892683029175
1772721087188004400,0.42700439453125,-0.9141591191291809,0.12301289290189743,-0.6379718780517578
1772721087206600200,0.44560009765625,-1.2061525583267212,0.23846633732318878,-0.8780417442321777
1772721087225196300,0.4641962890625,-1.4480549097061157,0.289168119430542,-0.9015600681304932
1772721087243792000,0.4827919921875,-1.6853759288787842,0.14653119444847107,-0.8245911002159119
1772721087262388000,0.501387939453125,-1.8817689418792725,-0.05994110554456711,-0.6254491806030273
1772721087280983800,0.51998388671875,-2.0436480045318604,-0.2545015513896942,-0.26595523953437805
1772721087299579600,0.53857958984375,-2.140164852142334,-0.48296496272087097,0.04589121788740158
1772721087318175500,0.557175537109375,-2.1032073497772217,-0.6033053398132324,0.16042836010456085
1772721087336771600,0.575771484375,-2.0436480045318604,-0.598723828792572,0.12072215229272842
1772721087355367400,0.594367431640625,-1.9871431589126587,-0.5339722037315369,-0.0011453714687377214
1772721087373963300,0.61296337890625,-1.9364413022994995,-0.4264599680900574,-0.1712712198495865
1772721087392559000,0.63155908203125,-1.9391902685165405,-0.2654971182346344,-0.28703010082244873
1772721087411155000,0.650155029296875,-1.961181402206421,-0.1430187225341797,-0.3300960659980774
1772721087429751000,0.6687509765625,-1.9107850790023804,-0.0703258067369461,-0.33803731203079224
1772721087448347000,0.687346923828125,-1.8368704319000244,-0.0703258067369461,-0.320933073759079
1772721087466942700,0.705942626953125,-1.7983858585357666,-0.09506583213806152,-0.29558220505714417
1772721087485538600,0.72453857421875,-1.784030556678772,-0.04802924394607544,-0.28611379861831665
1772721087504134400,0.743134521484375,-1.8029674291610718,0.10713040828704834,-0.20578506588935852
1772721087522730500,0.76173046875,-1.7800599336624146,0.17921245098114014,-0.04451677203178406
1772721087541326300,0.780326416015625,-1.6349796056747437,0.13278673589229584,0.10239620506763458
1772721087559922200,0.798922119140625,-1.4578287601470947,0.08697187155485153,0.17569997906684875
1772721087578518000,0.81751806640625,-1.316108226776123,0.06559160351753235,0.15065452456474304
1772721087597114000,0.836114013671875,-1.191797137260437,0.1043815165758133,0.04650207981467247
1772721087615710000,0.8547099609375,-1.101083755493164,0.19417864084243774,-0.072921983897686
1772721087634305800,0.873305908203125,-1.0668753385543823,0.30779948830604553,-0.19051344692707062
1772721087652902000,0.89190185546875,-1.0977239608764648,0.4424951672554016,-0.2699258625507355
1772721087671497700,0.910497802734375,-1.1704169511795044,0.5790234804153442,-0.2790888547897339
1772721087690093600,0.929093505859375,-1.2568542957305908,0.6214785575866699,-0.2543488144874573
1772721087708689400,0.947689453125,-1.2993093729019165,0.5640572905540466,-0.2121991515159607
1772721087727285500,0.966285400390625,-1.2715150117874146,0.35239261388778687,-0.14592032134532928
1772721087745881300,0.98488134765625,-1.1560616493225098,-0.06849320977926254,-0.03627009689807892
1772721087764477200,1.003477294921875,-0.9364557266235352,-0.3064250349998474,0.10392337292432785
1772721087783073000,1.022072998046875,-0.8011491298675537,-0.37178757786750793,0.19494222104549408
1772721087801668900,1.0406689453125,-0.7535017132759094,-0.3055087625980377,0.1986074149608612
1772721087820265000,1.059264892578125,-0.7434224486351013,-0.256334125995636,0.1735619604587555
1772721087838860800,1.07786083984375,-0.8167262077331543,-0.30856308341026306,0.1476002037525177
1772721087857457000,1.096456787109375,-0.9004147052764893,-0.40782859921455383,0.1066722646355629
1772721087876052700,1.115052734375,-0.8915571570396423,-0.5755109786987305,0.17936517298221588
1772721087894648600,1.133648681640625,-0.8817833065986633,-0.7731257081031799,0.38522660732269287
1772721087913244400,1.152244384765625,-0.9169080257415771,-0.8534544706344604,0.5687914490699768
1772721087931840500,1.170840576171875,-1.0109812021255493,-0.757243275642395,0.5984184145927429
1772721087950436400,1.189436279296875,-1.0693187713623047,-0.48418670892715454,0.4753291606903076
1772721087969032200,1.2080322265625,-0.9819651246070862,-0.18058690428733826,0.31039565801620483
1772721087987628000,1.2266279296875,-0.8298597931861877,0.24029892683029175,0.14088068902492523
1772721088006224100,1.24522412109375,-0.6291907429695129,0.6431642770767212,-0.06650790572166443
1772721088024820000,1.263820068359375,-0.3607156574726105,0.8325323462486267,-0.19356778264045715
1772721088043415800,1.282415771484375,-0.0766635313630104,0.7091376781463623,-0.10132719576358795
1772721088062012000,1.301011962890625,0.09957095980644226,0.37835437059402466,0.19280420243740082
1772721088080607700,1.319607666015625,0.10018182545900345,-0.029703300446271896,0.5541307330131531
1772721088099203600,1.33820361328125,0.010995565913617611,-0.36567893624305725,0.7902299761772156
1772721088117799400,1.35679931640625,-0.08338304609060287,-0.5880337357521057,0.7981712222099304
1772721088136395500,1.3753955078125,-0.09315688163042068,-0.6958513259887695,0.6133846044540405
1772721088154991400,1.393991455078125,-0.0824667438864708,-0.7074577808380127,0.40294167399406433
1772721088173587200,1.412587158203125,-0.11972949653863907,-0.6494256258010864,0.22120940685272217
1772721088192183000,1.43118310546875,-0.26542073488235474,-0.4609738290309906,0.03153589367866516
1772721088210779100,1.449779052734375,-0.46975502371788025,-0.14149154722690582,-0.16241367161273956
1772721088229375000,1.468375,-0.6869174242019653,0.09827287495136261,-0.27572908997535706
1772721088247971000,1.48697119140625,-0.896138608455658,0.21555891633033752,-0.2931387424468994
1772721088266567000,1.50556689453125,-0.9883792400360107,0.21464261412620544,-0.23999349772930145
1772721088285162800,1.524162841796875,-0.9092722535133362,0.1700494885444641,-0.14836378395557404
1772721088303758600,1.542758544921875,-0.7003564834594727,0.12728895246982574,-0.061620984226465225
1772721088322354700,1.561354736328125,-0.5510000586509705,0.10957387089729309,-0.009697478264570236
1772721088340950500,1.579950439453125,-0.5076286196708679,0.09705114364624023,0.01779143698513508
1772721088359546400,1.59854638671875,-0.5519163012504578,0.09613484144210815,0.024816380813717842
1772721088378142200,1.61714208984375,-0.5876519083976746,0.11720968037843704,-0.030466880649328232
1772721088396738300,1.63573828125,-0.5665770769119263,0.19540037214756012,-0.1043815165758133
1772721088415334100,1.654334228515625,-0.4990765154361725,0.2629009187221527,-0.1245400533080101
1772721088433930200,1.67293017578125,-0.44868019223213196,0.29741477966308594,-0.1043815165758133
1772721088452526000,1.691526123046875,-0.4221075773239136,0.4027889668941498,-0.1550832986831665
1772721088471122000,1.710121826171875,-0.4276053309440613,0.5622246861457825,-0.2690095901489258
1772721088489717800,1.7287177734375,-0.4682278633117676,0.6856193542480469,-0.3606393039226532
1772721088508313900,1.74731396484375,-0.47464191913604736,0.7097485065460205,-0.3508654534816742
1772721088526909700,1.76590966796875,-0.4679224193096161,0.6443859934806824,-0.25618141889572144
1772721088545505500,1.784505615234375,-0.4783071279525757,0.4699840843677521,-0.1245400533080101
1772721088564101600,1.8031015625,-0.4761691093444824,0.2021198868751526,0.008017600513994694
1772721088582697500,1.821697509765625,-0.4917461574077606,-0.07643445581197739,0.1170569658279419
1772721088601293300,1.840293212890625,-0.516791582107544,-0.28870996832847595,0.17661628127098083
1772721088619889400,1.858889404296875,-0.5119046568870544,-0.4108829200267792,0.12713623046875
1772721088638485200,1.8774853515625,-0.4917461574077606,-0.4307360351085663,0.023594651371240616
1772721088657081000,1.8960810546875,-0.4780016839504242,-0.3849211633205414,-0.05001455545425415
1772721088675677200,1.91467724609375,-0.46456265449523926,-0.26763513684272766,-0.1092684343457222
1772721088694273000,1.93327294921875,-0.46028661727905273,-0.11033745110034943,-0.16943861544132233
1772721088712868900,1.951868896484375,-0.4862483739852905,0.050930850207805634,-0.22655446827411652
1772721088731464700,1.970464599609375,-0.5140427350997925,0.17402009665966034,-0.27603453397750854
1772721088750060800,1.989060791015625,-0.5152644515037537,0.2720639109611511,-0.2720639109611511
1772721088768656600,2.00765673828125,-0.48563748598098755,0.29710936546325684,-0.23541201651096344
1772721088787252700,2.026252685546875,-0.4984656572341919,0.2067013680934906,-0.1505018174648285
1772721088805848300,2.044848388671875,-0.6038398146629333,-0.05933023989200592,0.028787001967430115
1772721088824444200,2.063444091796875,-0.7938187718391418,-0.35010188817977905,0.1992182731628418
1772721088843040000,2.0820400390625,-0.9407317638397217,-0.5300015807151794,0.34124433994293213
1772721088861636000,2.100635986328125,-1.046105980873108,-0.6442332863807678,0.42340564727783203
1772721088880232200,2.119232177734375,-1.1346813440322876,-0.69096440076828,0.4759400188922882
1772721088898828000,2.137828125,-1.2009601593017578,-0.6598103046417236,0.5205331444740295
1772721088917423900,2.156423828125,-1.2702933549880981,-0.6045270562171936,0.5489383339881897
1772721088936019700,2.175019775390625,-1.2941170930862427,-0.6478984355926514,0.5694023370742798
1772721088954615800,2.19361572265625,-1.191491723060608,-0.8265764117240906,0.5990293025970459
1772721088973211600,2.212211669921875,-1.0018181800842285,-1.040684461593628,0.7398335933685303
1772721088991807500,2.230807373046875,-0.9001092314720154,-1.234939455986023,0.9435570240020752
1772721089010403600,2.249403564453125,-0.9361502528190613,-1.0941351652145386,0.9667698740959167
1772721089028999400,2.26799951171875,-1.073289394378662,-0.5358047485351562,0.6753873825073242
1772721089047595500,2.286595458984375,-1.232114315032959,0.13889537751674652,0.2346484363079071
1772721089066191400,2.30519140625,-1.3136646747589111,0.6449968218803406,-0.16394083201885223
1772721089084787200,2.323787109375,-1.2699878215789795,0.899727463722229,-0.37316203117370605
1772721089103383000,2.342383056640625,-1.0668753385543823,0.8896481990814209,-0.3603338599205017
1772721089121979100,2.360979248046875,-0.7803797721862793,0.7402917742729187,-0.14836378395557404
1772721089140575000,2.379574951171875,-0.4401280879974365,0.45623964071273804,0.1885281354188919
1772721089159170800,2.3981708984375,-0.07483093440532684,0.08269581943750381,0.5031235218048096
1772721089177767000,2.416766845703125,0.231212317943573,-0.33574655652046204,0.6393463611602783
1772721089196362800,2.43536279296875,0.4465421438217163,-0.6967676281929016,0.5590176582336426
1772721089214958800,2.453958740234375,0.4364628791809082,-0.8082504868507385,0.34582582116127014
1772721089233554700,2.4725546875,0.08521563559770584,-0.607886791229248,0.014126247726380825
1772721089252150500,2.491150634765625,-0.4978547990322113,0.0017562361899763346,-0.38385215401649475
1772721089270746400,2.509746337890625,-1.2382229566574097,0.5869646668434143,-0.586048424243927
1772721089289342500,2.528342529296875,-1.6252057552337646,0.6825650334358215,-0.44463321566581726
1772721089307938300,2.546938232421875,-1.5784746408462524,0.45104727149009705,-0.14683662354946136
1772721089326534100,2.5655341796875,-1.2541054487228394,0.09949459880590439,0.13446660339832306
1772721089345130200,2.584130126953125,-0.8139773011207581,-0.21113014221191406,0.3278053104877472
1772721089363726000,2.60272607421875,-0.39736753702163696,-0.49976375699043274,0.40691229701042175
1772721089382322200,2.621322265625,-0.022907428443431854,-0.6851612329483032,0.32414013147354126
1772721089400918000,2.63991796875,0.22785256803035736,-0.7392227649688721,0.14851650595664978
1772721089419513900,2.658513916015625,0.29077163338661194,-0.7123447060585022,-0.013973532244563103
1772721089438109700,2.677109619140625,0.16615521907806396,-0.4566977918148041,-0.13248129189014435
1772721089456705800,2.695705810546875,-0.04581485688686371,-0.13874267041683197,-0.2222784161567688
1772721089475301600,2.714301513671875,-0.20433427393436432,0.15966477990150452,-0.28183773159980774
1772721089493897500,2.7328974609375,-0.3170388340950012,0.3753000497817993,-0.3294851779937744
1772721089512493600,2.75149365234375,-0.39828383922576904,0.478841632604599,-0.3807978332042694
1772721089531089400,2.77008935546875,-0.4621191918849945,0.48220139741897583,-0.3872119188308716
1772721089549685500,2.788685546875,-0.5418370366096497,0.39942920207977295,-0.3362047076225281
1772721089568281300,2.80728125,-0.6307178735733032,0.2745073735713959,-0.2473238706588745
1772721089586877200,2.825877197265625,-0.7141009569168091,0.1196531355381012,-0.12331832945346832
1772721089605473000,2.84447314453125,-0.749531090259552,-0.022983787581324577,-0.023747367784380913
1772721089624069000,2.863069091796875,-0.7275399565696716,-0.12072215229272842,0.019624030217528343
1772721089642665000,2.8816650390625,-0.6450732350349426,-0.23067781329154968,0.005268708802759647
1772721089661261000,2.900260986328125,-0.5180133581161499,-0.2713003158569336,-0.043600473552942276
1772721089679857000,2.91885693359375,-0.40347617864608765,-0.22762349247932434,-0.07414371520280838
1772721089698452700,2.93745263671875,-0.3042106628417969,-0.1729510873556137,-0.08269581943750381
1772721089717048800,2.956048828125,-0.22876885533332825,-0.11094831675291061,-0.0781143307685852
1772721089735644700,2.974644775390625,-0.22235478460788727,-0.029397867619991302,-0.08513928204774857
1772721089754240500,2.993240478515625,-0.26878049969673157,0.04451677203178406,-0.08208495378494263
1772721089772836400,3.01183642578125,-0.35094180703163147,0.013057234697043896,-0.0023671009112149477
1772721089791432400,3.030432373046875,-0.43279770016670227,-0.116751529276371,0.116751529276371
1772721089810028300,3.0490283203125,-0.4526508152484894,-0.23067781329154968,0.19738568365573883
1772721089828624400,3.067624267578125,-0.42302384972572327,-0.2303723841905594,0.19097159802913666
1772721089847220200,3.08622021484375,-0.38301220536231995,-0.05108356848359108,0.09689842909574509
1772721089865816000,3.104816162109375,-0.374765545129776,0.1911243200302124,0.024816380813717842
1772721089884412200,3.123412109375,-0.40317076444625854,0.40523242950439453,0.03550651669502258
1772721089903008000,3.142008056640625,-0.46486809849739075,0.6172025203704834,0.029397867619991302
1772721089921603800,3.160603759765625,-0.5067123174667358,0.7589231133460999,-0.057955797761678696
1772721089940199700,3.17919970703125,-0.4667007029056549,0.6468294262886047,0.0058795735239982605
1772721089958795800,3.197795654296875,-0.31673339009284973,0.3099375069141388,0.26855143904685974
1772721089977391600,3.2163916015625,-0.1487455666065216,-0.04069886729121208,0.5700132250785828
1772721089995987700,3.23498779296875,-0.13194678723812103,-0.4725802540779114,0.756632387638092
1772721090014583600,3.25358349609375,-0.2162461280822754,-0.8705586791038513,0.7691551446914673
1772721090033179400,3.272179443359375,-0.3692677617073059,-1.1167371273040771,0.6506473422050476
1772721090051775500,3.290775390625,-0.48013970255851746,-0.9395864009857178,0.3693441152572632
1772721090070371300,3.309371337890625,-0.5809323787689209,-0.5999455451965332,0.05933023989200592
1772721090088967200,3.32796728515625,-0.5980366468429565,-0.3473529815673828,-0.12026400119066238
1772721090107563000,3.34656298828125,-0.6139190793037415,-0.15004366636276245,-0.17493639886379242
1772721090126159000,3.3651591796875,-0.6701186895370483,-0.030314164236187935,-0.16394083201885223
1772721090144755000,3.3837548828125,-0.6994401812553406,0.04451677203178406,-0.17157664895057678
1772721090163351000,3.40235107421875,-0.7171552777290344,0.12331832945346832,-0.2213621288537979
1772721090181947000,3.42094677734375,-0.7611374855041504,0.2485456019639969,-0.29588761925697327
1772721090200542700,3.439542724609375,-0.8090903759002686,0.30169084668159485,-0.31604617834091187
1772721090219138800,3.458138916015625,-0.7745765447616577,0.2537379562854767,-0.27695080637931824
1772721090237734700,3.476734619140625,-0.6743947267532349,0.18287764489650726,-0.23999349772930145
1772721090256330500,3.49533056640625,-0.5830704569816589,0.14378230273723602,-0.17829616367816925
1772721090274926600,3.513926513671875,-0.5665770769119263,0.06406444311141968,-0.12270746380090714
1772721090293522400,3.5325224609375,-0.5540543794631958,-0.046807512640953064,-0.09735657274723053
1772721090312118300,3.5511181640625,-0.5360338687896729,-0.15095995366573334,-0.10499238222837448
1772721090330714400,3.56971435546875,-0.5412262082099915,-0.22334744036197662,-0.14286600053310394
1772721090349310200,3.588310302734375,-0.5442805290222168,-0.24106250703334808,-0.19204062223434448
1772721090367906000,3.606906005859375,-0.5409207344055176,-0.23251040279865265,-0.22288928925991058
1772721090386502100,3.625502197265625,-0.5827649831771851,-0.18577924370765686,-0.2216675579547882
1772721090414396200,3.653396240234375,-0.7886264324188232,-0.06666062027215958,-0.21861323714256287
1772721090432992000,3.671991943359375,-1.025336503982544,0.03993528336286545,-0.19448406994342804
1772721090451587800,3.690587890625,-1.2666281461715698,0.11323905736207962,-0.17676898837089539
1772721090470184000,3.709183837890625,-1.3814706802368164,0.13675735890865326,-0.21861323714256287
1772721090488779800,3.72777978515625,-1.4101812839508057,0.12820523977279663,-0.23419028520584106
1772721090507375600,3.746375732421875,-1.4559961557388306,0.025579962879419327,-0.170965775847435
1772721090525971700,3.7649716796875,-1.4950915575027466,-0.10300707072019577,-0.07628174126148224
1772721090544567600,3.783567626953125,-1.5607595443725586,-0.1986074149608612,0.10209077596664429
1772721090563163600,3.80216357421875,-1.620624303817749,-0.2874882221221924,0.30459246039390564
1772721090581759500,3.820759521484375,-1.609323263168335,-0.3644571900367737,0.4313468933105469
1772721090600355300,3.839355224609375,-1.546709656715393,-0.4762454628944397,0.48479756712913513
1772721090618951400,3.857951416015625,-1.5680898427963257,-0.5770381689071655,0.5003746151924133
1772721090637547300,3.87654736328125,-1.6719368696212769,-0.4909062087535858,0.4493674039840698
1772721090656143000,3.89514306640625,-1.7327179908752441,-0.26702427864074707,0.3388008773326874
1772721090674739200,3.9137392578125,-1.7067562341690063,-0.1833357959985733,0.3223075270652771
1772721090693335000,3.9323349609375,-1.6029092073440552,-0.19097159802913666,0.32078036665916443
1772721090711931100,3.95093115234375,-1.505781650543213,-0.27343833446502686,0.3339139521121979
1772721090730527000,3.96952685546875,-1.5485422611236572,-0.3165042996406555,0.3314704895019531
1772721090749122800,3.988122802734375,-1.7455461025238037,-0.3082576394081116,0.2612210512161255
1772721090767719000,4.006718994140625,-2.0210461616516113,-0.3317759335041046,0.08407026529312134
1772721090786314800,4.025314697265625,-2.138026714324951,-0.27863070368766785,-0.10041090101003647
1772721090804910800,4.043910888671875,-2.0766348838806152,-0.2651916742324829,-0.22411102056503296
1772721090823506700,4.062506591796875,-2.0631957054138184,-0.2398407906293869,-0.15172353386878967
1772721090842102800,4.081102783203125,-2.068082809448242,-0.1417969912290573,0.10086904466152191
1772721090860698600,4.09969873046875,-2.045480728149414,-0.06971494108438492,0.3898080885410309
1772721090879294500,4.11829443359375,-1.8353432416915894,-0.008323032408952713,0.5022072196006775
1772721090897890600,4.136890625,-1.4193443059921265,0.030772313475608826,0.45853036642074585
1772721090916486400,4.155486328125,-1.0454950332641602,-0.028787001967430115,0.3778962194919586
1772721090935082500,4.17408251953125,-0.8472694754600525,-0.16226094961166382,0.27801984548568726
1772721090953678300,4.19267822265625,-0.8524618148803711,-0.26244276762008667,0.18577924370765686
1772721090972274200,4.211274169921875,-1.0754274129867554,-0.32994332909584045,0.1628718227148056
1772721090990870300,4.229870361328125,-1.3756674528121948,-0.377285361289978,0.203799769282341
1772721091009466400,4.24846630859375,-1.7037018537521362,-0.5031235218048096,0.2853502035140991
1772721091028062200,4.267062255859375,-1.9074252843856812,-0.5855902433395386,0.3116174042224884
1772721091046658000,4.285657958984375,-1.8955134153366089,-0.617660641670227,0.260915607213974
1772721091065254100,4.304254150390625,-1.8405355215072632,-0.6564505696296692,0.2047160565853119
1772721091083850000,4.32285009765625,-1.7617340087890625,-0.674165666103363,0.14668390154838562
1772721091102446000,4.341446044921875,-1.6511675119400024,-0.6256018877029419,0.09842558950185776
1772721091121042000,4.3600419921875,-1.5854995250701904,-0.6014727354049683,0.1430187225341797
1772721091139638000,4.378637939453125,-1.5726714134216309,-0.5547415614128113,0.18730641901493073
1772721091158233900,4.39723388671875,-1.6148210763931274,-0.44325876235961914,0.1573740392923355
1772721091176829700,4.41582958984375,-1.6697988510131836,-0.3745364546775818,0.07460185885429382
1772721091195425800,4.43442578125,-1.7073670625686646,-0.3641517758369446,0.013209951110184193
1772721091214022000,4.45302197265625,-1.7669264078140259,-0.38614290952682495,0.023594651371240616
1772721091232617700,4.47161767578125,-1.8463387489318848,-0.39133524894714355,0.06788235157728195
1772721091251213600,4.490213623046875,-1.904370903968811,-0.3415497839450836,0.07887791097164154
1772721091269809700,4.5088095703125,-1.925140380859375,-0.2242637276649475,0.04894553869962692
1772721091288405500,4.527405517578125,-1.9113959074020386,-0.08834631741046906,-0.004810560029000044
1772721091307001600,4.546001708984375,-1.8558071851730347,0.0066431546583771706,-0.01977674663066864
1772721091325597400,4.564597412109375,-1.7690644264221191,0.004810560029000044,0.00679587060585618
1772721091344193500,4.583193603515625,-1.693317174911499,0.03352120518684387,0.06330086290836334
1772721091362789400,4.601789306640625,-1.6129884719848633,0.053985174745321274,0.06299543380737305
1772721091381385500,4.620385498046875,-1.5015056133270264,0.07383827865123749,0.03275762498378754
1772721091399981300,4.638981201171875,-1.3921607732772827,0.07414371520280838,0.028176138177514076
1772721091418577400,4.657577392578125,-1.2764019966125488,0.0475710928440094,-0.03657552972435951
1772721091437173200,4.67617333984375,-1.18446683883667,0.06681333482265472,-0.11995857208967209
1772721091455769300,4.694769287109375,-1.1450660228729248,0.093691386282444,-0.1193477064371109
1772721091474365200,4.713365234375,-1.120326042175293,0.03779725730419159,-0.049709122627973557
1772721091492961300,4.731961181640625,-1.0735948085784912,-0.03886627033352852,0.01870773360133171
1772721091511557000,4.75055712890625,-1.0021237134933472,-0.07735075056552887,0.05230529606342316
1772721091530153200,4.7691533203125,-0.9172134399414062,-0.07765618711709976,0.05352702736854553
1772721091548749000,4.7877490234375,-0.8533781170845032,-0.00923932995647192,0.04222602769732475
1772721091567345200,4.80634521484375,-0.7980948090553284,0.03260490670800209,-0.00022907429956831038
1772721091585941200,4.824941162109375,-0.6536253094673157,0.03260490670800209,-0.06925679743289948
1772721091604537000,4.843537109375,-0.4740310609340668,0.023136503994464874,-0.10651954263448715
1772721091623133000,4.8621328125,-0.3295615613460541,0.0066431546583771706,-0.053985174745321274
1772721091641729000,4.88072900390625,-0.22785256803035736,-0.11094831675291061,0.05169443041086197
1772721091660325000,4.8993251953125,-0.16584978997707367,-0.28321218490600586,0.1625663936138153
1772721091678921000,4.9179208984375,-0.1637117564678192,-0.47380200028419495,0.2343430072069168
1772721091697517000,4.93651708984375,-0.1698204129934311,-0.5403862595558167,0.21693335473537445
1772721091716113000,4.95511279296875,-0.2938259541988373,-0.42310020327568054,0.11797326058149338
1772721091734708700,4.973708740234375,-0.46486809849739075,-0.22579088807106018,0.04802924394607544
1772721091753304800,4.992304931640625,-0.5390881896018982,-0.11308634281158447,0.11766783148050308
1772721091771901000,5.01090087890625,-0.5540543794631958,-0.05627591907978058,0.24258968234062195
1772721091790496800,5.029496826171875,-0.5332849621772766,-0.016875140368938446,0.38583746552467346
1772721091809092900,5.0480927734375,-0.5247328281402588,0.010613775812089443,0.5565741658210754
1772721091827688700,5.066688720703125,-0.49663305282592773,0.05948295816779137,0.6521745324134827
1772721091846284800,5.085284912109375,-0.4202749729156494,0.10346522182226181,0.6424006819725037
1772721091864880600,5.103880615234375,-0.3298669755458832,0.08483384549617767,0.5516872406005859
1772721091883476700,5.122476806640625,-0.2629773020744324,0.03993528336286545,0.40141451358795166
1772721091902072600,5.141072509765625,-0.2367101013660431,-0.049861837178468704,0.27313292026519775
1772721091920668700,5.159668701171875,-0.2461785078048706,-0.3021489977836609,0.2703840136528015
1772721091939264500,5.178264404296875,-0.28008151054382324,-0.5635991096496582,0.3733147382736206
1772721091957860600,5.196860595703125,-0.3738492429256439,-0.700738251209259,0.4970148503780365
1772721091976456400,5.21545654296875,-0.47067132592201233,-0.7587704062461853,0.5052615404129028
1772721091995052500,5.234052490234375,-0.5729911923408508,-0.6943241953849792,0.39102980494499207
1772721092013648600,5.252648681640625,-0.693636953830719,-0.543440580368042,0.260915607213974
1772721092032244500,5.271244384765625,-0.7770199775695801,-0.3528507649898529,0.11461350321769714
1772721092050840600,5.289840576171875,-0.804814338684082,-0.10086904466152191,-0.03840812295675278
1772721092069436400,5.3084365234375,-0.815199077129364,0.10285435616970062,-0.15355613827705383
1772721092088032500,5.327032470703125,-0.7535017132759094,0.20883940160274506,-0.24671301245689392
1772721092106628400,5.34562841796875,-0.6175842881202698,0.22899793088436127,-0.33895358443260193
1772721092125224400,5.364224365234375,-0.4673115611076355,0.26106834411621094,-0.3862956166267395
1772721092143820300,5.3828203125,-0.3497200906276703,0.33162322640419006,-0.34322965145111084
1772721092162416400,5.40141650390625,-0.3087921440601349,0.3710239827632904,-0.2479347437620163
1772721092181012200,5.42001220703125,-0.29565855860710144,0.3963748812675476,-0.21983496844768524
1772721092199608300,5.4386083984375,-0.29413139820098877,0.42416924238204956,-0.22869250178337097
1772721092218204200,5.4572041015625,-0.2605338394641876,0.39851289987564087,-0.2323576956987381
1772721092236800300,5.47580029296875,-0.18264856934547424,0.3032180070877075,-0.252210795879364
1772721092255396000,5.49439599609375,-0.0821613147854805,0.2369391769170761,-0.30718863010406494
1772721092273992200,5.5129921875,-0.049480047076940536,0.21281002461910248,-0.3145190179347992
1772721092292588000,5.531588134765625,-0.10415244847536087,0.18348850309848785,-0.2629009187221527
1772721092311184100,5.55018408203125,-0.1737910360097885,0.1914297491312027,-0.2222784161567688
1772721092329780200,5.5687802734375,-0.25045454502105713,0.22441644966602325,-0.22655446827411652
1772721092348376000,5.5873759765625,-0.3454440236091614,0.2482401728630066,-0.21067199110984802
1772721092366972200,5.60597216796875,-0.47952884435653687,0.1703549176454544,-0.1395062506198883
1772721092385568000,5.624568115234375,-0.6224712133407593,0.050930850207805634,-0.042684175074100494
1772721092404163800,5.643163818359375,-0.7703005075454712,-0.040088001638650894,0.044669486582279205
1772721092422760000,5.661760009765625,-0.916297197341919,-0.116751529276371,0.11888955533504486
1772721092441356000,5.68035595703125,-1.017395257949829,-0.18700097501277924,0.15157082676887512
1772721092459951900,5.698951904296875,-1.0393863916397095,-0.2242637276649475,0.12499820441007614
1772721092478548000,5.7175478515625,-1.0329723358154297,-0.24442227184772491,0.08284853398799896
1772721092497143800,5.736143798828125,-1.0195332765579224,-0.21082471311092377,0.07612902671098709
1772721092515740000,5.754739990234375,-0.9966259002685547,-0.1882227063179016,0.07338013499975204
1772721092534335700,5.773335693359375,-0.9608902931213379,-0.16378812491893768,0.039477135986089706
1772721092552931800,5.791931884765625,-0.9593631625175476,-0.1891390085220337,0.01259908638894558
1772721092571527700,5.810527587890625,-0.9960150122642517,-0.24136795103549957,0.013515383005142212
1772721092590123800,5.829123779296875,-1.0876446962356567,-0.2926805913448334,0.03764454275369644
1772721092608719600,5.8477197265625,-1.2104285955429077,-0.3827831447124481,0.07735075056552887
1772721092627315700,5.866315673828125,-1.268460750579834,-0.46769335865974426,0.1631772518157959
1772721092645911600,5.88491162109375,-1.2498292922973633,-0.5840631127357483,0.26305365562438965
1772721092664507600,5.903507568359375,-1.2101231813430786,-0.6521745324134827,0.3427715003490448
1772721092683103500,5.922103515625,-1.1899645328521729,-0.7065414786338806,0.40141451358795166
1772721092701699600,5.940699462890625,-1.1548398733139038,-0.7819832563400269,0.40660688281059265
1772721092720295400,5.95929541015625,-1.0204496383666992,-0.8235220909118652,0.3519344627857208
1772721092738891500,5.9778916015625,-0.8200859427452087,-0.8833868503570557,0.3155880272388458
1772721092757487400,5.9964873046875,-0.6896663308143616,-0.9466113448143005,0.22884522378444672
1772721092776083500,6.01508349609375,-0.6704241037368774,-0.9179006814956665,0.06849320977926254
1772721092794679300,6.03367919921875,-0.7629700899124146,-0.5416079759597778,0.018096869811415672
1772721092813275400,6.052275390625,-0.8839213252067566,-0.28504478931427,0.10728313028812408
1772721092831871200,6.070871337890625,-0.8820887207984924,-0.14576761424541473,0.1931096315383911
1772721092850467300,6.08946728515625,-0.8729257583618164,-0.06696604937314987,0.2554178237915039
1772721092869063200,6.108063232421875,-0.9181297421455383,-0.0077121676877141,0.2908479869365692
1772721092887659300,6.1266591796875,-0.9532544612884521,0.12667807936668396,0.26855143904685974
1772721092906255000,6.145255126953125,-0.9379828572273254,0.2842811942100525,0.1784488707780838
1772721092924851200,6.163851318359375,-0.8371901512145996,0.44066259264945984,0.07399099320173264
1772721092943447000,6.182447021484375,-0.6291907429695129,0.5429824590682983,0.005268708802759647
1772721092962043100,6.201043212890625,-0.3857611119747162,0.530154287815094,-0.03321577236056328
1772721092980639000,6.219638916015625,-0.13958260416984558,0.4580722153186798,-0.04512763395905495
1772721092999235000,6.238235107421875,0.059864748269319534,0.34811657667160034,-0.00847574882209301
1772721093017831000,6.256830810546875,0.2528980076313019,0.2219729870557785,0.02237292192876339
1772721093036427000,6.275427001953125,0.4312705397605896,0.06559160351753235,0.015958841890096664
1772721093055022800,6.29402294921875,0.39248061180114746,-0.11980585753917694,0.05413788929581642
1772721093073619000,6.312618896484375,0.17562362551689148,-0.20685409009456635,0.16439898312091827
1772721093092214800,6.33121484375,-0.07910698652267456,-0.059024810791015625,0.17447824776172638
1772721093110811000,6.349810791015625,-0.38331764936447144,0.07536543905735016,0.060551971197128296
1772721093129406700,6.36840673828125,-0.5632173418998718,0.09094249457120895,-0.053985174745321274
1772721093148002800,6.3870029296875,-0.6236929297447205,-0.04528035223484039,-0.042684175074100494
1772721093166598700,6.4055986328125,-0.5794052481651306,-0.2569449841976166,0.016875140368938446
1772721093185194800,6.42419482421875,-0.508544921875,-0.36018115282058716,0.01626427471637726
1772721093203790600,6.44279052734375,-0.43829548358917236,-0.3485747277736664,-0.012751801870763302
1772721093222386400,6.461386474609375,-0.3689623177051544,-0.3745364546775818,0.007101302966475487
1772721093240982500,6.479982421875,-0.3020726442337036,-0.41149377822875977,0.02390008419752121
1772721093259578600,6.49857861328125,-0.2678641974925995,-0.40569058060646057,-0.030466880649328232
1772721093278174500,6.517174560546875,-0.28038692474365234,-0.3009272515773773,-0.20395247638225555
1772721093296770300,6.535770263671875,-0.33597561717033386,-0.022067490965127945,-0.37988153100013733
1772721093315366400,6.554366455078125,-0.33169957995414734,0.10102175921201706,-0.4217257797718048
1772721093333962200,6.572962158203125,-0.32100942730903625,0.10346522182226181,-0.3618610203266144
1772721093352558300,6.591558349609375,-0.42332929372787476,0.11537708342075348,-0.2720639109611511
1772721093371154200,6.610154296875,-0.5400044918060303,0.06986765563488007,-0.19784383475780487
1772721093389750300,6.628750244140625,-0.6181951761245728,-0.022678354755043983,-0.19876012206077576
1772721093408346000,6.64734619140625,-0.5919279456138611,-0.16592614352703094,-0.26473352313041687
1772721093426942200,6.665942138671875,-0.5271763205528259,-0.349185585975647,-0.344451367855072
1772721093445538000,6.6845380859375,-0.526565432548523,-0.40110909938812256,-0.3850739002227783
1772721093464134100,6.703134033203125,-0.4679224193096161,-0.3644571900367737,-0.39393141865730286
1772721093482730000,6.72172998046875,-0.406530499458313,-0.3161988854408264,-0.37927067279815674
1772721093501325800,6.740325927734375,-0.36224281787872314,-0.2926805913448334,-0.3765217661857605
1772721093519922000,6.758921875,-0.30451610684394836,-0.22701261937618256,-0.3349829614162445
1772721093538518000,6.77751806640625,-0.21441353857517242,-0.1014799103140831,-0.20883940160274506
1772721093557113900,6.79611376953125,-0.09865466505289078,-0.06391172856092453,-0.09124792367219925
1772721093575709700,6.814709716796875,-0.047952886670827866,-0.016875140368938446,-0.007254019379615784
1772721093594305800,6.833305908203125,-0.04276053607463837,-0.03000873140990734,0.06849320977926254
1772721093612901600,6.851901611328125,-0.05894844979047775,-0.09292780607938766,0.10483966767787933
1772721093631497700,6.870497802734375,-0.0766635313630104,-0.20654866099357605,0.14026983082294464
1772721093650093600,6.889093505859375,-0.08399390429258347,-0.28962627053260803,0.19524765014648438
1772721093668689700,6.907689697265625,-0.07269290834665298,-0.34002259373664856,0.20715951919555664
1772721093687285500,6.926285400390625,-0.034208428114652634,-0.3336085379123688,0.20318889617919922
1772721093705881300,6.94488134765625,-0.04153880476951599,-0.15645773708820343,0.20685409009456635
1772721093724477400,6.9634775390625,-0.05283980444073677,0.0475710928440094,0.17967060208320618
1772721093743073500,6.982073486328125,-0.006414080038666725,0.19326233863830566,0.09506583213806152
1772721093761669400,7.00066943359375,0.05222893878817558,0.2995528280735016,-0.040546149015426636
1772721093780265200,7.01926513671875,0.16340632736682892,0.3591121435165405,-0.1908188909292221
1772721093798861300,7.037861328125,0.2764163017272949,0.33712100982666016,-0.2796997129917145
1772721093817457200,7.05645703125,0.37751442193984985,0.2216675579547882,-0.2592357397079468
1772721093836053200,7.07505322265625,0.4043924808502197,0.09155336022377014,-0.10193806141614914
1772721093854649000,7.093649169921875,0.3539961278438568,-0.10270164161920547,0.1891390085220337
1772721093873245200,7.1122451171875,0.3039052188396454,-0.25205808877944946,0.497320294380188
1772721093891841000,7.130841064453125,0.2733619809150696,-0.3339139521121979,0.7212022542953491
1772721093910436900,7.149436767578125,0.268169641494751,-0.3836994469165802,0.8009200692176819
1772721093929033000,7.168032958984375,0.28405213356018066,-0.37270388007164,0.7254782915115356
1772721093947628800,7.18662890625,0.25961753726005554,-0.25266894698143005,0.5587121844291687
1772721093966225000,7.205224853515625,0.21319180727005005,-0.13507747650146484,0.3436878025531769
1772721093984820700,7.22382080078125,0.18784092366695404,-0.06604975461959839,0.08743002265691757
1772721094003416800,7.242416748046875,0.19914191961288452,0.07200568914413452,-0.15905392169952393
1772721094022012700,7.2610126953125,0.22296564280986786,0.25984659790992737,-0.3401753306388855
1772721094040608800,7.27960888671875,0.23976442217826843,0.42080947756767273,-0.4314996004104614
1772721094059204600,7.29820458984375,0.19914191961288452,0.5634464025497437,-0.40309441089630127
1772721094077800400,7.316800537109375,0.12370011955499649,0.5985711216926575,-0.298331081867218
1772721094096396500,7.335396484375,0.05925388261675835,0.5240456461906433,-0.2323576956987381
1772721094114992400,7.353992431640625,0.005803215317428112,0.41867145895957947,-0.21922409534454346
1772721094133588500,7.37258837890625,-0.007941242307424545,0.345062255859375,-0.20822852849960327
1772721094152184300,7.391184326171875,0.05528326332569122,0.252210795879364,-0.2515999376773834
1772721094170780400,7.409780517578125,0.19669845700263977,0.16882775723934174,-0.35789039731025696
1772721094189376300,7.428376220703125,0.3539961278438568,0.13187043368816376,-0.45135271549224854
1772721094207972000,7.44697216796875,0.4364628791809082,0.06772962957620621,-0.48586657643318176
1772721094226568200,7.465568115234375,0.3955349326133728,0.014889828860759735,-0.4366919696331024
1772721094245164000,7.4841640625,0.2409861534833908,0.02802342176437378,-0.2735910713672638
1772721094263760000,7.502759765625,0.06780599057674408,0.06345357745885849,-0.08727730810642242
1772721094282356000,7.52135595703125,-0.06230820715427399,0.09918916970491409,0.038560837507247925
1772721094300951800,7.539951904296875,-0.12370011955499649,0.10713040828704834,0.05719221383333206
1772721094319548000,7.5585478515625,-0.13439024984836578,0.08025235682725906,0.010766491293907166
1772721094338143700,7.577143798828125,-0.1279761642217636,0.047265663743019104,-0.045738499611616135
1772721094356739800,7.59573974609375,-0.15149445831775665,0.057955797761678696,-0.07506000995635986
1772721094375335700,7.614335693359375,-0.185092031955719,0.12759438157081604,-0.07536543905735016
1772721094393931800,7.632931884765625,-0.22479823231697083,0.22899793088436127,-0.05887209251523018
1772721094412527600,7.651527587890625,-0.26511532068252563,0.28550294041633606,0.004963276442140341
1772721094431123500,7.67012353515625,-0.2809978127479553,0.29649847745895386,0.07826705276966095
1772721094449719600,7.688719482421875,-0.3039052188396454,0.30291256308555603,0.1320231556892395
1772721094468315400,7.7073154296875,-0.35124725103378296,0.26503896713256836,0.10881029069423676
1772721094486911200,7.7259111328125,-0.4214966893196106,0.14622575044631958,0.029703300446271896
1772721094505507300,7.74450732421875,-0.5241219997406006,0.11782054603099823,-0.0475710928440094
1772721094524103200,7.763103271484375,-0.7226530313491821,0.129426971077919,-0.03810269013047218
1772721094542699300,7.78169921875,-0.9532544612884521,0.046654798090457916,0.037033677101135254
1772721094561295000,7.800295166015625,-1.1572833061218262,-0.03917170315980911,0.1274416595697403
1772721094579891000,7.818890869140625,-1.2809834480285645,-0.10728313028812408,0.22090397775173187
1772721094598487000,7.837487060546875,-1.3435970544815063,-0.2138790339231491,0.3131445646286011
1772721094617083000,7.856082763671875,-1.408348798751831,-0.28260132670402527,0.40141451358795166
1772721094635678700,7.8746787109375,-1.451414704322815,-0.29481860995292664,0.4609738290309906
1772721094654274800,7.89327490234375,-1.4923427104949951,-0.368122398853302,0.49915286898612976
1772721094672870700,7.91187060546875,-1.4074324369430542,-0.4964039921760559,0.5296961069107056
1772721094691466800,7.930466796875,-1.2101231813430786,-0.6976839303970337,0.5348884463310242
1772721094710062600,7.9490625,-1.044884204864502,-0.8604794144630432,0.607886791229248
1772721094728658400,7.967658447265625,-0.9853248596191406,-1.0333541631698608,0.6863829493522644
1772721094747254500,7.986254638671875,-1.0906990766525269,-1.0306051969528198,0.6723330616950989
1772721094765850400,8.004850341796875,-1.3011419773101807,-0.876056432723999,0.5168679356575012
1772721094784446500,8.023446533203124,-1.472795009613037,-0.572151243686676,0.28840452432632446
1772721094803042300,8.042042236328125,-1.5922189950942993,-0.24350596964359283,0.06177370250225067
1772721094821638100,8.06063818359375,-1.6572761535644531,0.0475710928440094,-0.07750347256660461
1772721094840234200,8.079234130859374,-1.5867213010787964,0.33803731203079224,-0.16821688413619995
1772721094858830000,8.097830078125,-1.3823870420455933,0.6019308567047119,-0.24060437083244324
1772721094877426000,8.116426025390625,-1.0754274129867554,0.761366605758667,-0.28244858980178833
1772721094896022000,8.13502197265625,-0.7467821836471558,0.7656426429748535,-0.25495967268943787
1772721094914617900,8.153617919921874,-0.47433650493621826,0.5643627047538757,-0.12545634806156158
1772721094933214000,8.1722138671875,-0.29962918162345886,0.2925278842449188,0.026343543082475662
1772721094951809800,8.190809814453125,-0.20219624042510986,0.026190826669335365,0.14485131204128265
1772721094970405600,8.209405517578125,-0.1957821547985077,-0.22762349247932434,0.20746494829654694
1772721094989001700,8.228001708984374,-0.2611446976661682,-0.441426157951355,0.24228423833847046
1772721095007597600,8.24659765625,-0.3497200906276703,-0.6369028687477112,0.28840452432632446
1772721095026193400,8.265193359375,-0.4221075773239136,-0.7071523666381836,0.3271944522857666
1772721095044789500,8.28378955078125,-0.5943714380264282,-0.6451495885848999,0.32047492265701294
1772721095063385300,8.30238525390625,-0.7788525819778442,-0.4664716124534607,0.19158247113227844
1772721095081981400,8.3209814453125,-0.9297361969947815,-0.1011744812130928,0.005268708802759647
1772721095100577300,8.339577392578125,-1.1429280042648315,0.3349829614162445,-0.1505018174648285
1772721095119173000,8.358173095703124,-1.2916735410690308,0.5655844211578369,-0.20395247638225555
1772721095137769000,8.37676904296875,-1.2651009559631348,0.5310705900192261,-0.11507165431976318
1772721095156365000,8.395364990234375,-1.1591159105300903,0.30107998847961426,0.06421715766191483
1772721095174961000,8.4139609375,-1.0409135818481445,-0.0550541877746582,0.26427537202835083
1772721095193557000,8.432556884765624,-0.952032744884491,-0.451200008392334,0.44325876235961914
1772721095212152800,8.45115283203125,-0.814588189125061,-0.7871756553649902,0.5309178233146667
1772721095230748700,8.469748779296875,-0.6517927050590515,-1.0431280136108398,0.4817432463169098
1772721095249344800,8.4883447265625,-0.5482511520385742,-1.1747692823410034,0.3519344627857208
1772721095267940600,8.506940673828124,-0.5305360555648804,-1.0843613147735596,0.18486295640468597
1772721095286536400,8.525536376953125,-0.6169734001159668,-0.8097776174545288,0.026648975908756256
1772721095305132500,8.544132568359375,-0.7507528066635132,-0.44325876235961914,-0.12087486684322357
1772721095323728400,8.562728271484374,-0.8497129082679749,-0.18150319159030914,-0.2164752036333084
1772721095342324200,8.58132421875,-0.8723149299621582,0.000839939049910754,-0.20059272646903992
1772721095360920300,8.59992041015625,-0.8674280047416687,0.07567087560892105,-0.124845489859581
1772721095379516200,8.61851611328125,-0.8338304162025452,0.10499238222837448,-0.093691386282444
1772721095398112000,8.637112060546874,-0.7470875978469849,0.14683662354946136,-0.12362375855445862
1772721095416708000,8.6557080078125,-0.6612611413002014,0.13553562760353088,-0.20547963678836823
1772721095435304000,8.674303955078125,-0.5888736248016357,0.09063705801963806,-0.20273074507713318
1772721095453899800,8.692899658203125,-0.4871646761894226,-0.06238456442952156,-0.1043815165758133
1772721095472495600,8.71149560546875,-0.4101957082748413,-0.2541961073875427,0.005574141163378954
1772721095491091700,8.730091796875,-0.3231474757194519,-0.4337903559207916,0.1066722646355629
1772721095509687600,8.7486875,-0.26389357447624207,-0.6143009066581726,0.1573740392923355
1772721095528283600,8.76728369140625,-0.22235478460788727,-0.7673225402832031,0.152487114071846
1772721095546879500,8.78587939453125,-0.2055560052394867,-0.7987820506095886,0.07215840369462967
1772721095565475300,8.804475341796875,-0.20677772164344788,-0.700738251209259,-0.08086322247982025
1772721095584071200,8.8230712890625,-0.20952661335468292,-0.4441750645637512,-0.2574031352996826
1772721095602667300,8.841667236328124,-0.2779434621334076,-0.20593778789043427,-0.36277732253074646
1772721095621263000,8.86026318359375,-0.35277441143989563,-0.12102758139371872,-0.35850125551223755
1772721095639859000,8.87885888671875,-0.3692677617073059,-0.16195552051067352,-0.26687154173851013
1772721095658454800,8.897454833984375,-0.4053087830543518,-0.1582903414964676,-0.16180281341075897
1772721095677051000,8.91605078125,-0.44929105043411255,-0.15126539766788483,-0.10224349051713943
1772721095695646700,8.934646728515625,-0.4169152081012726,-0.16165009140968323,-0.08544471114873886
1772721095714242800,8.953242919921875,-0.3744601011276245,-0.1573740392923355,-0.1037706509232521
1772721095732838700,8.971838623046875,-0.4324922561645508,-0.06238456442952156,-0.08910989761352539
1772721095751434500,8.9904345703125,-0.5876519083976746,0.1443931609392166,0.027259841561317444
1772721095770030300,9.0090302734375,-0.7452550530433655,0.2827540338039398,0.20318889617919922
1772721095788626400,9.02762646484375,-0.8573487401008606,0.3774380683898926,0.36628979444503784
1772721095807222300,9.04622216796875,-0.9419534802436829,0.33681556582450867,0.43776097893714905
1772721095825818000,9.064818115234376,-0.9746347665786743,0.2015090137720108,0.4102720618247986
1772721095844414000,9.0834140625,-0.9957095980644226,0.07506000995635986,0.26366451382637024
1772721095863010000,9.102010009765625,-0.9755510687828064,0.024052800610661507,0.22579088807106018
1772721095881606000,9.12060595703125,-0.8237511515617371,0.023136503994464874,0.32505643367767334
1772721095900201700,9.13920166015625,-0.6655371785163879,0.015806125476956367,0.3427715003490448
1772721095918797800,9.1577978515625,-0.6496546864509583,0.072921983897686,0.21784965693950653
1772721095937393700,9.1763935546875,-0.6627882719039917,0.28000515699386597,0.07276926934719086
1772721095955989500,9.194989501953126,-0.6685914993286133,0.32795801758766174,-0.11293362826108932
1772721095974585300,9.21358544921875,-0.5925388336181641,0.31635159254074097,-0.30566146969795227
1772721095993181400,9.232181396484375,-0.4474584460258484,0.24976733326911926,-0.41439539194107056
1772721096011777300,9.25077734375,-0.3381136655807495,0.10835213959217072,-0.35239261388778687
1772721096030373000,9.269373046875,-0.35735589265823364,-0.0654388889670372,-0.15874847769737244
1772721096048969000,9.287968994140625,-0.4780016839504242,-0.20685409009456635,0.08712458610534668
1772721096067564800,9.306564697265625,-0.5849030017852783,-0.2923751473426819,0.245338574051857
1772721096086161000,9.325160888671874,-0.5937605500221252,-0.31375542283058167,0.24900375306606293
1772721096104756700,9.3437568359375,-0.4877755343914032,-0.3384954333305359,0.1424078494310379
1772721096123352600,9.3623525390625,-0.3860665261745453,-0.26244276762008667,-0.012140937149524689
1772721096141948400,9.380948486328125,-0.3494146466255188,-0.16378812491893768,-0.20945025980472565
1772721096160544500,9.39954443359375,-0.323452889919281,-0.13568833470344543,-0.30566146969795227
1772721096179140400,9.418140380859375,-0.33536475896835327,-0.10728313028812408,-0.20456334948539734
1772721096197736200,9.436736083984375,-0.4370737373828888,-0.08865175396203995,-0.03840812295675278
1772721096216332000,9.45533203125,-0.5589412450790405,-0.08681915700435638,0.03306305781006813
1772721096234928000,9.47392822265625,-0.6096430420875549,-0.09537126123905182,0.027870705351233482
1772721096253524000,9.49252392578125,-0.6356047987937927,-0.106366828083992,0.007101302966475487
1772721096272119800,9.511119873046875,-0.6893609166145325,-0.08895718306303024,0.00923932995647192
1772721096290715600,9.529715576171874,-0.7571669220924377,-0.10025817900896072,0.01259908638894558
1772721096309311700,9.548311767578125,-0.7984002828598022,-0.095982126891613,-0.033826638013124466
1772721096327907600,9.566907470703125,-0.8527672290802002,-0.008323032408952713,-0.15844304859638214
1772721096346503400,9.58550341796875,-0.9584468603134155,0.053985174745321274,-0.2577085793018341
1772721096365099300,9.604099365234376,-1.0122029781341553,0.02741255611181259,-0.2540434002876282
1772721096383695000,9.622695068359375,-1.0690133571624756,-0.06666062027215958,-0.1761581301689148
1772721096402291200,9.641291259765625,-1.1352921724319458,-0.09414953738451004,-0.06956222653388977
1772721096420887000,9.659886962890624,-1.1792744398117065,-0.11430807411670685,0.05169443041086197
1772721096439483000,9.67848291015625,-1.1768310070037842,-0.12041672319173813,0.14851650595664978
1772721096458078700,9.69707861328125,-1.1701115369796753,-0.11217004805803299,0.1937204897403717
1772721096476674600,9.715674560546875,-1.1545344591140747,-0.09781472384929657,0.17081306874752045
1772721096495270700,9.734270751953124,-1.1429280042648315,-0.04650207981467247,0.14393500983715057
1772721096513866500,9.752866455078125,-1.1866048574447632,-0.0058795735239982605,0.1222493126988411
1772721096532462300,9.77146240234375,-1.288313865661621,0.0319940410554409,0.0755181610584259
1772721096551058200,9.79005810546875,-1.387273907661438,0.06559160351753235,0.05322159454226494
1772721096569654300,9.808654296875,-1.4291181564331055,0.042684175074100494,0.11339177191257477
1772721096588250000,9.82725,-1.4291181564331055,-0.025732679292559624,0.2248746007680893
1772721096606846000,9.845845947265625,-1.4114030599594116,-0.11094831675291061,0.3543779253959656
1772721096625441800,9.86444189453125,-1.387579321861267,-0.21540619432926178,0.4542543292045593
1772721096644037600,9.88303759765625,-1.3921607732772827,-0.28351762890815735,0.43226319551467896
1772721096662633700,9.9016337890625,-1.4306453466415405,-0.3073413372039795,0.2874882221221924
1772721096681229600,9.9202294921875,-1.4495820999145508,-0.2819904685020447,0.10422880202531815
1772721096699825400,9.938825439453124,-1.443168044090271,-0.2767980992794037,-0.0475710928440094
1772721096718421200,9.957421142578125,-1.4025455713272095,-0.25877758860588074,-0.11354449391365051
1772721096737017000,9.97601708984375,-1.3753620386123657,-0.18486295640468597,-0.054901473224163055
1772721096755613000,9.994613037109374,-1.3002257347106934,-0.15676318109035492,0.02328922040760517
1772721096774209000,10.013208984375,-1.2171480655670166,-0.13965895771980286,0.06085740402340889
1772721096792804900,10.031804931640625,-1.1297943592071533,-0.16592614352703094,0.008017600513994694
1772721096811400700,10.050400634765625,-1.0852012634277344,-0.11858412623405457,-0.051847148686647415
1772721096829996500,10.06899658203125,-1.0931425094604492,-0.08345939964056015,-0.09185878932476044
1772721096848592400,10.08759228515625,-1.1142174005508423,-0.027259841561317444,-0.145614892244339
1772721096867188200,10.106188232421875,-1.1753038167953491,0.06375901401042938,-0.16699515283107758
1772721096885784300,10.124784423828125,-1.2831214666366577,0.1251509189605713,-0.18776455521583557
1772721096904380200,10.143380126953126,-1.4107922315597534,0.1764635592699051,-0.18379394710063934
1772721096922976000,10.16197607421875,-1.5198315382003784,0.19234605133533478,-0.13645191490650177
1772721096941571800,10.18057177734375,-1.6074906587600708,0.20334161818027496,-0.04146244749426842
1772721096960167700,10.199167724609374,-1.6578869819641113,0.19265148043632507,0.07246383279561996
1772721096978763500,10.217763427734376,-1.6426154375076294,0.18379394710063934,0.16745330393314362
1772721096997359600,10.236359619140625,-1.5940515995025635,0.07078395783901215,0.24320054054260254
1772721097015955500,10.25495556640625,-1.5427390336990356,-0.04711294546723366,0.28321218490600586
1772721097034551300,10.27355126953125,-1.4966187477111816,-0.19646938145160675,0.28779366612434387
1772721097053147100,10.292147216796875,-1.4376702308654785,-0.34063348174095154,0.2566395699977875
1772721097071743200,10.3107431640625,-1.3848304748535156,-0.4802160859107971,0.2202931046485901
1772721097090339000,10.329339111328125,-1.324660301208496,-0.5581013560295105,0.1582903414964676
1772721097108935000,10.347934814453126,-1.2018764019012451,-0.5104538798332214,0.03733910992741585
1772721097127530800,10.36653076171875,-1.1163554191589355,-0.35559967160224915,-0.03840812295675278
1772721097146126600,10.385126708984375,-1.0977239608764648,-0.27435463666915894,-0.05062541738152504
1772721097164722400,10.403722412109374,-1.1233803033828735,-0.3577376902103424,-0.04696023091673851
1772721097183318300,10.422318359375,-1.1655299663543701,-0.44203701615333557,-0.023441936820745468
1772721097201914400,10.440914306640625,-1.1658353805541992,-0.43684467673301697,-0.043600473552942276
1772721097220510200,10.45951025390625,-1.145676851272583,-0.3580431044101715,-0.07994692772626877
1772721097239106000,10.47810595703125,-1.0598503351211548,-0.27252206206321716,-0.14286600053310394
1772721097257702000,10.496701904296875,-0.9932661056518555,-0.2795470058917999,-0.12637265026569366
1772721097276297700,10.515297607421875,-0.8927788734436035,-0.3424660563468933,-0.08239039033651352
1772721097294893600,10.5338935546875,-0.7498365044593811,-0.3888917863368988,-0.06956222653388977
1772721097313489400,10.552489501953126,-0.639270007610321,-0.34582582116127014,-0.11843141168355942
1772721097332085500,10.57108544921875,-0.6371319890022278,-0.32444554567337036,-0.12667807936668396
1772721097350681300,10.589681396484375,-0.5971203446388245,-0.35498878359794617,-0.10529781877994537
1772721097369277200,10.608277099609374,-0.5189296007156372,-0.4237110912799835,-0.08941533416509628
1772721097387873000,10.626873046875,-0.42791077494621277,-0.46799877285957336,-0.10804671049118042
1772721097406468900,10.64546875,-0.4050033390522003,-0.4307360351085663,-0.06406444311141968
1772721097425064700,10.664064697265625,-0.4016436040401459,-0.4469239413738251,-0.008781181648373604
1772721097443660500,10.68266064453125,-0.3894262909889221,-0.4716639816761017,0.018096869811415672
1772721097462256600,10.701256591796875,-0.3738492429256439,-0.4441750645637512,0.0602465383708477
1772721097480852500,10.7198525390625,-0.37720900774002075,-0.4154644012451172,0.06696604937314987
1772721097499448300,10.7384482421875,-0.3634645342826843,-0.31925320625305176,-0.042073313146829605
1772721097518044200,10.757044189453126,-0.3845393657684326,-0.2086866796016693,-0.2176969349384308
1772721097536640000,10.775639892578125,-0.45875945687294006,-0.08743002265691757,-0.2564868628978729
1772721097555235800,10.79423583984375,-0.5479456782341003,0.053374309092760086,-0.1092684343457222
1772721097573831700,10.812831787109374,-0.5934551358222961,0.09185878932476044,-0.000839939049910754
1772721097592427500,10.831427490234375,-0.5897899270057678,0.047265663743019104,0.07857248187065125
1772721097611023600,10.850023681640625,-0.5189296007156372,0.000839939049910754,0.2135736048221588
1772721097629619500,10.868619384765625,-0.4221075773239136,-0.02756527252495289,0.28840452432632446
1772721097648215300,10.88721533203125,-0.34636032581329346,0.008170315995812416,0.3378845751285553
1772721097666811100,10.90581103515625,-0.2886336147785187,0.0243582334369421,0.3158934414386749
1772721097685407000,10.924406982421875,-0.2159406989812851,0.009697478264570236,0.23587016761302948
1772721097704002800,10.9430029296875,-0.21655155718326569,0.032910339534282684,0.229150652885437
1772721097722598700,10.9615986328125,-0.26358816027641296,0.03565923124551773,0.2654971182346344
1772721097741194500,10.980194580078125,-0.31154105067253113,0.06742420047521591,0.28993168473243713
1772721097759790600,10.99879052734375,-0.3536907136440277,0.08544471114873886,0.2716057598590851
1772721097778386400,11.017386474609374,-0.3808741867542267,0.04329504072666168,0.22579088807106018
1772721097796982300,11.035982177734375,-0.3750709891319275,-0.02176205813884735,0.19769111275672913
1772721097815578000,11.054578125,-0.33567020297050476,-0.10606139898300171,0.1573740392923355
1772721097834174000,11.073174072265624,-0.2559523284435272,-0.22243113815784454,0.06330086290836334
1772721097852769800,11.091769775390626,-0.19822561740875244,-0.2810741662979126,0.010155626572668552
1772721097871365600,11.11036572265625,-0.1847866028547287,-0.2960403561592102,0.041615162044763565
1772721097889961500,11.12896142578125,-0.21197007596492767,-0.27893611788749695,0.10575596243143082
1772721097908557300,11.147557373046874,-0.24526220560073853,-0.2709949016571045,0.17905974388122559
1772721097927153400,11.1661533203125,-0.2003636509180069,-0.27252206206321716,0.23220497369766235
1772721097945749200,11.184749267578125,-0.09010255336761475,-0.3433823585510254,0.2599993348121643
1772721097964345000,11.203344970703125,0.0204639695584774,-0.3840048611164093,0.23922991752624512
1772721097982941000,11.22194091796875,0.08857539296150208,-0.38186684250831604,0.1680641770362854
1772721098001536800,11.240536865234375,0.1081230640411377,-0.368122398853302,0.051389001309871674
1772721098020132600,11.259132568359375,0.0409279391169548,-0.28412848711013794,-0.08055779337882996
1772721098038728400,11.277728515625,-0.08796452730894089,-0.10300707072019577,-0.10132719576358795
1772721098057324300,11.29632421875,-0.23518294095993042,0.09338594973087311,-0.10132719576358795
1772721098075920100,11.314920166015625,-0.2977965772151947,0.11812597513198853,-0.19509494304656982
1772721098094516200,11.33351611328125,-0.2211330533027649,-0.05322159454226494,-0.33803731203079224
1772721098113112000,11.352112060546874,-0.15179990231990814,-0.07307469844818115,-0.39851289987564087
1772721098131708000,11.3707080078125,-0.10965022444725037,-0.0859028622508049,-0.3337612450122833
