time,seconds_elapsed,z,y,x
1772721531306496000,0.09249609375,0,0,0
1772721531325092900,0.1110927734375,-0.061163902282714844,0.025797247886657715,-0.00889664888381958
1772721531343689500,0.129689453125,0.17917537689208984,0.07364308834075928,0.031879544258117676
1772721531362286300,0.148286376953125,0.19031810760498047,0.04534101486206055,-0.03740352392196655
1772721531380883000,0.166883056640625,-0.037212371826171875,-0.007200837135314941,-0.23817485570907593
1772721531399479600,0.1854794921875,-0.15238189697265625,-0.0002753734588623047,-0.5122357606887817
1772721531418076400,0.204076416015625,-0.0918130874633789,0.05205333232879639,-0.4896414875984192
1772721531436673000,0.222673095703125,0.37193775177001953,0.106162428855896,-0.060301363468170166
1772721531455270000,0.241269775390625,0.7087011337280273,0.060101866722106934,0.41453075408935547
1772721531473866500,0.259866455078125,0.48752498626708984,0.07104671001434326,0.4967171549797058
1772721531492463000,0.278463134765625,-0.10950756072998047,0.15359139442443848,0.33604681491851807
1772721531511060000,0.29706005859375,-0.2190380096435547,0.2288827896118164,0.102447509765625
1772721531529656600,0.315656494140625,-0.097869873046875,0.05287289619445801,0.2937120795249939
1772721531548253400,0.33425341796875,0.09695816040039062,-0.15070998668670654,0.5425915718078613
1772721531566850000,0.35285009765625,-0.03586769104003906,-0.1950371265411377,0.36867499351501465
1772721531585446700,0.37144677734375,-0.2911195755004883,0.010554790496826172,0.20093673467636108
1772721531604043500,0.39004345703125,-0.20894813537597656,0.3006962537765503,0.1704695224761963
1772721531622640000,0.40864013671875,-0.2524566650390625,0.1890091896057129,0.34326446056365967
1772721531641237000,0.427237060546875,-0.5036211013793945,0.06514906883239746,0.33426153659820557
1772721531659833600,0.44583349609375,-1.1264047622680664,-0.09352540969848633,0.24203652143478394
1772721531678430200,0.46443017578125,-1.6302080154418945,0.01965022087097168,0.16028296947479248
1772721531697027000,0.483027099609375,-2.0430831909179688,0.2410374879837036,0.15710294246673584
1772721531715623700,0.501623779296875,-1.7741689682006836,0.3389711380004883,-0.4862484335899353
1772721531734220300,0.52022021484375,-1.1014766693115234,-0.023960351943969727,-0.2564091682434082
1772721531752817200,0.538817138671875,-0.9933738708496094,-0.4081655740737915,-0.1776127815246582
1772721531771413800,0.557413818359375,-0.9553432464599609,-0.29951387643814087,-0.3254587650299072
1772721531790010400,0.57601025390625,-1.3940958976745605,-0.15572619438171387,-0.36919426918029785
1772721531808607000,0.59460693359375,-1.3665614128112793,0.09579050540924072,-0.22074151039123535
1772721531827203800,0.613203857421875,-0.8464374542236328,0.42399370670318604,-0.14155805110931396
1772721531845800400,0.631800537109375,-0.12405204772949219,0.07601749897003174,-0.830325722694397
1772721531864397000,0.65039697265625,2.197113037109375,0.07896280288696289,-1.7313755750656128
1772721531882994000,0.668993896484375,6.320905685424805,0.6772580146789551,-1.7273728847503662
1772721531901590500,0.687590576171875,10.395853042602539,1.2906303405761719,-1.5745476484298706
1772721531920187400,0.7061875,12.061870574951172,0.04316902160644531,-0.15478163957595825
1772721531938784000,0.724783935546875,10.61773681640625,-1.2838928699493408,2.923874855041504
1772721531957380600,0.743380615234375,6.314017295837402,-0.6798112392425537,2.6495330333709717
1772721531975977500,0.7619775390625,3.7665023803710938,0.30403947830200195,1.1429760456085205
1772721531994574000,0.780573974609375,3.0270309448242188,0.6003897190093994,0.05041700601577759
1772721532013170700,0.799170654296875,2.1577768325805664,-0.028520822525024414,-0.8987329602241516
1772721532031767600,0.817767578125,2.2111454010009766,-0.11461472511291504,-1.205141544342041
1772721532050364200,0.8363642578125,1.7887887954711914,-0.04423236846923828,-0.2934076189994812
1772721532068960800,0.854960693359375,-0.7038536071777344,-0.18828320503234863,0.7367867231369019
1772721532087557400,0.873557373046875,-4.373868942260742,-0.45150262117385864,0.03458636999130249
1772721532106154200,0.892154296875,-7.299607276916504,-0.25109708309173584,-0.2378663718700409
1772721532124750800,0.910750732421875,-9.238779067993164,-0.015282750129699707,-0.02829226851463318
1772721532143347700,0.92934765625,-8.792673110961914,0.38220590353012085,-1.6274080276489258
1772721532161944300,0.9479443359375,-7.994080066680908,-0.3516581654548645,-2.5489888191223145
1772721532180541000,0.966541015625,-7.524720191955566,-1.1884371042251587,-1.7827558517456055
1772721532199137500,0.985137451171875,-7.332597255706787,-1.428532600402832,-0.6317809820175171
1772721532217734400,1.003734375,-6.8303446769714355,-1.178734540939331,0.5714632868766785
1772721532236331000,1.0223310546875,-6.0184173583984375,-0.5358659625053406,1.4242961406707764
1772721532254927600,1.040927734375,-5.865601062774658,-0.26295357942581177,1.5662589073181152
1772721532273524500,1.0595244140625,-6.5171427726745605,-0.632957935333252,1.071533441543579
1772721532292121000,1.07812109375,-6.713660717010498,-0.9189712405204773,0.5178372859954834
1772721532310717700,1.0967177734375,-6.070189952850342,-0.9172431230545044,1.4799983501434326
1772721532329314300,1.115314208984375,-4.342627048492432,-1.042412281036377,1.8340357542037964
1772721532347911000,1.133910888671875,-3.1093177795410156,-1.2899707555770874,1.411510944366455
1772721532366507800,1.1525078125,-1.1706972122192383,-1.439058780670166,0.5013396739959717
1772721532385104400,1.1711044921875,1.7078218460083008,-0.9049281477928162,-0.686286211013794
1772721532403701200,1.189701171875,8.06065559387207,1.92133367061615,-2.1466991901397705
1772721532422297900,1.2082978515625,13.118860244750977,2.80607271194458,-1.5015513896942139
1772721532440894500,1.22689453125,14.59934139251709,2.8893561363220215,-1.2507588863372803
1772721532459491000,1.245490966796875,13.843830108642578,3.3228182792663574,-0.45912373065948486
1772721532478087700,1.264087646484375,14.278084754943848,3.7294836044311523,-1.3972256183624268
1772721532496684500,1.2826845703125,14.550616264343262,2.940335273742676,-1.737749695777893
1772721532515281200,1.30128125,12.782541275024414,2.5790162086486816,-0.5336101055145264
1772721532533877800,1.319877685546875,8.615557670593262,2.3545947074890137,-0.10327517986297607
1772721532552474400,1.338474365234375,4.321854591369629,2.220568895339966,-0.308990478515625
1772721532571071200,1.3570712890625,0.5012750625610352,1.6325372457504272,0.4845505356788635
1772721532589667800,1.375667724609375,-2.392045021057129,0.709375262260437,1.2727044820785522
1772721532608264400,1.394264404296875,-3.2473702430725098,-0.09487223625183105,1.6459696292877197
1772721532626861000,1.412861083984375,-2.7616024017333984,-0.7596681118011475,0.7507650852203369
1772721532645458000,1.4314580078125,-3.5278706550598145,-1.0829482078552246,-0.3324729800224304
1772721532664054500,1.450054443359375,-5.308380126953125,-0.3655381202697754,-0.7975257039070129
1772721532682651100,1.468651123046875,-5.750929832458496,1.0743727684020996,-0.30067187547683716
1772721532701247700,1.487247802734375,-5.656627178192139,1.6254323720932007,-0.647310197353363
1772721532719844400,1.50584423828125,-5.415149688720703,1.3380285501480103,-2.076949119567871
1772721532738441200,1.524441162109375,-5.357114791870117,0.7598106861114502,-3.1435601711273193
1772721532757037800,1.543037841796875,-5.768598556518555,0.15883922576904297,-3.115121841430664
1772721532775634400,1.561634521484375,-7.2384185791015625,-0.349468469619751,-2.782848358154297
1772721532794231000,1.58023095703125,-8.502559661865234,-0.33405566215515137,-2.0724120140075684
1772721532812828000,1.598827880859375,-7.746403694152832,0.3452968895435333,-1.4976905584335327
1772721532831424500,1.617424560546875,-6.043408393859863,1.0144027471542358,-0.931748628616333
1772721532850021000,1.636021240234375,-4.644667148590088,0.9975318312644958,-0.6375063061714172
1772721532868617700,1.65461767578125,-4.682553291320801,0.2837566137313843,-0.0691508948802948
1772721532887214300,1.67321435546875,-4.718400001525879,-0.47018876671791077,0.3758562505245209
1772721532905811000,1.69181103515625,-3.9015417098999023,-0.6742206811904907,0.8827484846115112
1772721532924407800,1.71040771484375,-3.246464729309082,-1.1499850749969482,1.2898837327957153
1772721532943004400,1.72900439453125,-2.6245298385620117,-1.6568411588668823,1.0758016109466553
1772721532961601000,1.74760107421875,-0.2912149429321289,-1.1680660247802734,0.37204182147979736
1772721532980197600,1.76619775390625,3.500676155090332,0.00047892332077026367,-1.933931589126587
1772721532998794200,1.784794189453125,7.3355865478515625,0.6175243258476257,-2.268421173095703
1772721533017390800,1.803390869140625,11.469258308410645,0.2937204837799072,-1.0968713760375977
1772721533035987700,1.82198779296875,14.293723106384277,0.007409572601318359,0.2793726921081543
1772721533054584300,1.840584228515625,13.24052619934082,0.3602631092071533,-0.4543488025665283
1772721533073181000,1.859180908203125,11.552128791809082,0.910007119178772,-1.6429671049118042
1772721533091777500,1.877777587890625,11.38502311706543,0.9983381032943726,-2.158499240875244
1772721533110374100,1.8963740234375,9.9319486618042,1.1596972942352295,-1.915522813796997
1772721533128970800,1.914970703125,7.770964622497559,1.5093036890029907,-1.6191978454589844
1772721533147567600,1.933567626953125,5.361106872558594,1.6233019828796387,-0.7807996273040771
1772721533166164200,1.952164306640625,1.8842058181762695,1.0553836822509766,0.15533077716827393
1772721533184760800,1.9707607421875,-2.199610710144043,0.20945191383361816,0.5400007963180542
1772721533203357400,1.989357421875,-4.839339256286621,-0.4653935730457306,0.8663148283958435
1772721533221954000,2.0079541015625,-4.8237714767456055,-0.7149374485015869,0.7247803211212158
1772721533240550700,2.026550537109375,-3.8509836196899414,-0.42936456203460693,-0.08209443092346191
1772721533259147300,2.045147216796875,-3.1367273330688477,0.3808407783508301,-0.8279334902763367
1772721533277744000,2.063744140625,-3.2318878173828125,1.0762865543365479,-0.920673668384552
1772721533296340700,2.0823408203125,-4.708393096923828,1.273179531097412,-1.3021374940872192
1772721533314937300,2.100937255859375,-6.99996280670166,1.0463712215423584,-2.3663125038146973
1772721533333534000,2.119533935546875,-8.376764297485352,1.0097126960754395,-3.046464443206787
1772721533352130600,2.138130615234375,-8.338586807250977,1.6237964630126953,-2.2034354209899902
1772721533370727200,2.15672705078125,-8.098231315612793,1.8563008308410645,-0.6371133923530579
1772721533389323800,2.17532373046875,-7.606744766235352,1.778784990310669,0.7626246213912964
1772721533407920400,2.19392041015625,-7.619119167327881,2.0675570964813232,1.1141704320907593
1772721533426517200,2.212517333984375,-6.766745090484619,2.199993133544922,1.2303444147109985
1772721533445113900,2.23111376953125,-5.094827651977539,2.372725009918213,1.1607348918914795
1772721533463710500,2.24971044921875,-4.112218379974365,1.707323670387268,0.7243059873580933
1772721533482307000,2.26830712890625,-3.6727023124694824,0.6078051328659058,-0.09994387626647949
1772721533500903700,2.286903564453125,-2.2107362747192383,-0.35138416290283203,-0.20277851819992065
1772721533519500300,2.305500244140625,-1.0120201110839844,-0.8131446838378906,-0.03207051753997803
1772721533538097000,2.324096923828125,0.2508201599121094,-0.42119044065475464,0.7318655252456665
1772721533556693800,2.34269384765625,4.705788612365723,0.8897532224655151,-0.13560473918914795
1772721533575290400,2.361290283203125,12.1857271194458,0.4093555510044098,-2.1140358448028564
1772721533593887000,2.379886962890625,13.49355411529541,-0.899462103843689,-1.9675712585449219
1772721533612483600,2.398483642578125,12.7342529296875,-1.0355138778686523,0.03445029258728027
1772721533631080200,2.417080078125,13.0381441116333,0.018247127532958984,1.4350584745407104
1772721533649676800,2.4356767578125,14.125274658203125,0.38500356674194336,1.6283211708068848
1772721533668273400,2.4542734375,11.523738861083984,-0.31373918056488037,0.5454137325286865
1772721533686870000,2.4728701171875,7.496939659118652,-0.55430668592453,0.22206878662109375
1772721533705466600,2.491466552734375,4.965174674987793,-0.2240910530090332,0.44704270362854004
1772721533724063200,2.510063232421875,3.2064208984375,0.434863805770874,1.0559723377227783
1772721533742660000,2.52866015625,1.5896806716918945,0.5190823078155518,1.3578431606292725
1772721533761256400,2.54725634765625,-1.0172185897827148,-0.15906822681427002,1.2545063495635986
1772721533779853300,2.565853271484375,-2.975998878479004,-0.4625754654407501,0.5679380893707275
1772721533798450000,2.584449951171875,-1.771376609802246,-0.5710970759391785,-0.37126773595809937
1772721533817046500,2.603046630859375,-1.2099218368530273,-0.310649573802948,-1.010833978652954
1772721533835643100,2.62164306640625,-2.7046666145324707,0.13250824809074402,-1.2099931240081787
1772721533854239700,2.64023974609375,-5.454529762268066,0.28749412298202515,-0.8681535720825195
1772721533872836400,2.65883642578125,-8.238516807556152,0.27893373370170593,-0.2595924139022827
1772721533891433000,2.677432861328125,-9.650580406188965,0.6101251244544983,0.4327004551887512
1772721533910029600,2.696029541015625,-10.29326343536377,0.8187571167945862,1.1451141834259033
1772721533928626200,2.714626220703125,-9.908076286315918,1.009512186050415,1.4810614585876465
1772721533947222800,2.733222900390625,-8.432662010192871,1.1234147548675537,1.773832082748413
1772721533965819400,2.7518193359375,-7.527438163757324,1.2558550834655762,1.810195803642273
1772721533984416300,2.770416259765625,-7.548128604888916,1.0097719430923462,1.5352864265441895
1772721534003012600,2.7890126953125,-7.460477828979492,0.8864339590072632,1.1234729290008545
1772721534021609500,2.807609375,-6.509259223937988,0.6542741656303406,0.913811981678009
1772721534040206000,2.8262060546875,-5.0540971755981445,0.43012845516204834,1.0577501058578491
1772721534058802700,2.844802734375,-4.187950134277344,-0.1626024693250656,1.0688928365707397
1772721534077399300,2.8633994140625,-3.122182846069336,-0.040214717388153076,0.4327583909034729
1772721534095996000,2.881995849609375,0.7599000930786133,0.1761922836303711,0.3340444564819336
1772721534114592500,2.900592529296875,3.6699819564819336,-0.25102901458740234,-0.2806124687194824
1772721534133189000,2.919189208984375,5.2448835372924805,0.683969259262085,-2.2584047317504883
1772721534151785700,2.93778564453125,11.357311248779297,1.5826655626296997,-2.032785415649414
1772721534170382300,2.95638232421875,14.845498085021973,0.1763310432434082,-1.3770917654037476
1772721534188979000,2.97497900390625,13.040574073791504,-0.7620135545730591,-2.9254727363586426
1772721534207575600,2.993575439453125,11.194631576538086,-0.17866528034210205,-3.0511741638183594
1772721534226172200,3.012172119140625,11.460350036621094,0.5540241003036499,-2.783846378326416
1772721534244768800,3.030768798828125,11.414814949035645,0.7120659351348877,-2.0991454124450684
1772721534263365400,3.049365478515625,8.826556205749512,1.2674851417541504,-1.4858827590942383
1772721534281962000,3.0679619140625,6.084516525268555,1.836229681968689,-0.6396703720092773
1772721534300558800,3.086558837890625,3.273344039916992,1.732945203781128,-0.5013360977172852
1772721534319155200,3.1051552734375,0.6090946197509766,1.4656356573104858,-0.42623889446258545
1772721534337752000,3.123751953125,-1.2076606750488281,1.0627375841140747,0.050583839416503906
1772721534356348400,3.142348388671875,-1.8617286682128906,0.39425504207611084,0.06542932987213135
1772721534374945300,3.1609453125,-2.3366379737854004,0.3687894940376282,0.531867504119873
1772721534393542000,3.1795419921875,-3.2716445922851562,0.2707831859588623,1.2262084484100342
1772721534412138500,3.198138427734375,-4.17303991317749,0.09923303872346878,0.9134945869445801
1772721534430735000,3.216735107421875,-5.404749870300293,-0.10866552591323853,0.15914714336395264
1772721534449331700,3.235331787109375,-7.129729270935059,-0.3654998242855072,-0.39302825927734375
1772721534467928300,3.25392822265625,-8.339311599731445,0.14571085572242737,-0.3124988079071045
1772721534486525000,3.27252490234375,-8.857751846313477,0.37437617778778076,-0.1125338077545166
1772721534505121500,3.29112158203125,-7.639826774597168,1.024635672569275,-0.0705270767211914
1772721534523718100,3.30971826171875,-6.281855583190918,1.2636706829071045,-0.07279086112976074
1772721534542314800,3.328314697265625,-5.9278035163879395,1.1276230812072754,-0.08859133720397949
1772721534560911400,3.346911376953125,-6.580209732055664,0.9397339820861816,0.14445829391479492
1772721534579508000,3.365508056640625,-6.9892754554748535,1.0425984859466553,0.5654593706130981
1772721534598104600,3.3841044921875,-5.566866874694824,1.1593362092971802,0.9718624353408813
1772721534616701200,3.402701171875,-4.857356071472168,0.8498417139053345,1.0153555870056152
1772721534635297800,3.4212978515625,-4.919829845428467,0.4980613589286804,1.1777758598327637
1772721534653894400,3.439894287109375,-4.413653373718262,0.1047087013721466,1.9070663452148438
1772721534672491000,3.458490966796875,-2.2959799766540527,-0.13036510348320007,1.8735971450805664
1772721534691087600,3.477087646484375,1.0659246444702148,-0.25841987133026123,0.33279669284820557
1772721534709684200,3.495684326171875,4.276824951171875,0.7867476344108582,-1.5931057929992676
1772721534728280800,3.51428076171875,9.003314971923828,1.5224037170410156,-2.104074239730835
1772721534746877400,3.53287744140625,12.074814796447754,0.12652134895324707,-1.9656040668487549
1772721534765474000,3.55147412109375,12.979687690734863,-1.0099833011627197,-2.6317625045776367
1772721534784070700,3.570070556640625,13.04386043548584,-1.219683289527893,-2.3945741653442383
1772721534802667300,3.588667236328125,13.530195236206055,-0.33403193950653076,-1.6030389070510864
1772721534821264000,3.607263916015625,12.829745292663574,0.806428074836731,0.40044260025024414
1772721534839860700,3.62586083984375,9.037354469299316,1.315589427947998,1.2640652656555176
1772721534858457000,3.64445703125,4.610321044921875,1.405982255935669,0.950395941734314
1772721534877053700,3.6630537109375,2.093264579772949,1.0659725666046143,0.11964964866638184
1772721534895650300,3.681650390625,1.0146703720092773,0.8427702188491821,-0.43673110008239746
1772721534914247000,3.700246826171875,0.15343284606933594,0.6756057739257812,0.12238001823425293
1772721534932843500,3.718843505859375,-1.516829490661621,0.544448971748352,0.7754272222518921
1772721534951440100,3.737440185546875,-2.8464460372924805,0.3381640911102295,0.9322080612182617
1772721534970037000,3.756037109375,-3.505290985107422,0.050351619720458984,0.856785774230957
1772721534988633300,3.77463330078125,-3.686063766479492,-0.3611135482788086,0.29705142974853516
1772721535007230200,3.793230224609375,-4.389566898345947,-0.5265370607376099,0.4538803696632385
1772721535025826600,3.81182666015625,-5.844361782073975,-0.5216559171676636,0.22765570878982544
1772721535044423200,3.830423095703125,-7.623637676239014,-0.453355073928833,0.09045833349227905
1772721535063019800,3.849019775390625,-9.434429168701172,-0.324313759803772,-0.21580016613006592
1772721535081616400,3.867616455078125,-10.222953796386719,-0.08525288105010986,-0.293442964553833
1772721535100213000,3.886212890625,-10.261067390441895,0.21030789613723755,0.15068137645721436
1772721535118809600,3.9048095703125,-9.833902359008789,0.5187816619873047,0.5241384506225586
1772721535137406200,3.92340625,-8.775848388671875,1.0650650262832642,0.7192317247390747
1772721535156002800,3.9420029296875,-7.893433570861816,1.3380389213562012,0.9727742671966553
1772721535174599400,3.960599365234375,-6.7178192138671875,1.2106131315231323,0.923614501953125
1772721535193196000,3.979196044921875,-5.7066755294799805,0.7825518250465393,0.9584763050079346
1772721535211792600,3.997792724609375,-4.204912185668945,0.5004578232765198,0.9779289960861206
1772721535230389200,4.01638916015625,-2.9960641860961914,-0.10737967491149902,0.9849165678024292
1772721535248985900,4.03498583984375,-2.5137014389038086,-0.45260900259017944,1.0520325899124146
1772721535267582500,4.05358251953125,1.7799358367919922,0.7574756145477295,-0.8919398784637451
1772721535286179000,4.072178955078125,7.75087833404541,2.208348035812378,-2.5190420150756836
1772721535304775700,4.090775634765625,12.176326751708984,1.5045177936553955,-2.4328200817108154
1772721535323372300,4.109372314453125,15.592974662780762,0.26405346393585205,-2.0754776000976562
1772721535341969000,4.127968994140625,15.859108924865723,-0.3459770083427429,-1.2366151809692383
1772721535360565500,4.1465654296875,14.32270622253418,0.010439872741699219,-1.7600325345993042
1772721535379162000,4.165162109375,14.122570991516113,0.9342213869094849,-0.9831593036651611
1772721535397758700,4.1837587890625,13.260567665100098,1.4477177858352661,0.007416248321533203
1772721535416355300,4.202355224609375,10.567536354064941,1.2235758304595947,-0.07548356056213379
1772721535434952000,4.220951904296875,7.962211608886719,0.6416351795196533,-0.8420271873474121
1772721535453548500,4.239548583984375,6.011564254760742,0.6863250732421875,-1.8103970289230347
1772721535472145200,4.258145263671875,3.8493471145629883,0.9774448871612549,-1.5394814014434814
1772721535490741800,4.27674169921875,0.7626056671142578,0.992888331413269,-0.6443445086479187
1772721535509338000,4.295338134765625,-2.063601493835449,0.8913387060165405,0.6065682768821716
1772721535527935000,4.31393505859375,-4.020023345947266,0.4741858243942261,1.2756133079528809
1772721535546531300,4.33253125,-4.821650505065918,0.24653875827789307,1.5047736167907715
1772721535565128000,4.3511279296875,-5.311620712280273,0.13483327627182007,1.0018283128738403
1772721535583724800,4.369724853515625,-6.018585205078125,0.2290399670600891,0.4651075005531311
1772721535602321200,4.388321044921875,-7.114292144775391,0.24638521671295166,-0.1703508496284485
1772721535620917800,4.406917724609375,-7.853699684143066,0.3695027530193329,-0.7158567309379578
1772721535639514400,4.425514404296875,-8.235617637634277,0.5565731525421143,-0.7180760502815247
1772721535658111000,4.444111083984375,-8.33696460723877,0.735358476638794,-0.49702900648117065
1772721535676707600,4.46270751953125,-8.210248947143555,0.9105880260467529,-0.14451152086257935
1772721535695304200,4.48130419921875,-8.37614917755127,0.4951072931289673,-0.28781789541244507
1772721535713900800,4.49990087890625,-8.736403465270996,0.42872339487075806,0.11955982446670532
1772721535732497400,4.518497314453125,-8.984162330627441,0.1197773814201355,0.2888718843460083
1772721535751094000,4.537093994140625,-8.304299354553223,-0.23652172088623047,0.30753105878829956
1772721535769690600,4.555690673828125,-6.549806118011475,-0.7145529389381409,0.07835853099822998
1772721535788287000,4.574286865234375,-6.675804615020752,-1.1696038246154785,0.6323646306991577
1772721535806883800,4.5928837890625,-5.711747646331787,-1.8366775512695312,0.6219253540039062
1772721535825480200,4.611480224609375,-4.792849540710449,-2.1286513805389404,1.2938380241394043
1772721535844076800,4.630076904296875,-1.9083447456359863,-1.222253441810608,0.92751145362854
1772721535862673400,4.64867333984375,3.52239990234375,-0.3377946615219116,-0.06429052352905273
1772721535881270000,4.66727001953125,7.122430801391602,-0.6065694093704224,-1.8533482551574707
1772721535899866600,4.68586669921875,9.721746444702148,-0.5643060207366943,-3.000250816345215
1772721535918463200,4.704463134765625,12.91377067565918,-0.6237277984619141,0.4087526798248291
1772721535937059800,4.723059814453125,17.18815803527832,1.402126431465149,1.5748937129974365
1772721535955656400,4.741656494140625,20.322954177856445,1.7627274990081787,-0.3636690378189087
1772721535974252800,4.760252685546875,17.388723373413086,0.34576964378356934,-2.455650806427002
1772721535992849700,4.778849609375,13.853598594665527,0.11494410037994385,-3.057119846343994
1772721536011446000,4.797446044921875,12.265913963317871,1.0550944805145264,-2.7880988121032715
1772721536030042600,4.816042724609375,9.937228202819824,1.7140700817108154,-1.274213433265686
1772721536048639200,4.83463916015625,4.747528076171875,1.6873140335083008,-0.6879366636276245
1772721536067235800,4.85323583984375,-2.6921119689941406,1.0766236782073975,-0.06261396408081055
1772721536085832400,4.87183251953125,-5.715020179748535,-0.09222745895385742,0.48871099948883057
1772721536104429000,4.890428955078125,-5.299090385437012,-0.5776970386505127,0.8768461346626282
1772721536123025700,4.909025634765625,-5.750271797180176,-0.5697369575500488,1.435942530632019
1772721536141622300,4.927622314453125,-7.087069988250732,-0.3563128709793091,1.3035780191421509
1772721536160218600,4.946218505859375,-8.692713737487793,-0.2790341377258301,0.34622734785079956
1772721536178815200,4.964815185546875,-10.049290657043457,-0.7080804109573364,-0.9354615211486816
1772721536197411800,4.983411865234375,-10.35689926147461,-0.9008744955062866,-1.9284918308258057
1772721536216008400,5.002008544921875,-9.91158390045166,-0.7512287497520447,-2.527453660964966
1772721536234605000,5.02060498046875,-9.279207229614258,-0.3495626449584961,-2.6121041774749756
1772721536253201700,5.03920166015625,-8.683005332946777,-0.13055044412612915,-2.020131826400757
1772721536271798000,5.057798095703125,-7.782653331756592,0.0018339157104492188,-1.2629740238189697
1772721536290395000,5.076394775390625,-6.5090813636779785,-0.05750250816345215,-0.8368995785713196
1772721536308991200,5.0949912109375,-5.349413871765137,-0.43643319606781006,-0.4691910743713379
1772721536327587800,5.113587890625,-5.480147361755371,-1.1600297689437866,-0.028137028217315674
1772721536346184400,5.132184326171875,-5.949375152587891,-1.4032368659973145,0.20397043228149414
1772721536364781000,5.150781005859375,-4.8576507568359375,-1.1875965595245361,1.2211993932724
1772721536383377700,5.169377685546875,-2.406665325164795,-0.7728389501571655,0.7971126437187195
1772721536401974300,5.187974365234375,-1.9714508056640625,-1.059791088104248,-0.15799200534820557
1772721536420570600,5.206570556640625,0.03646278381347656,0.24527966976165771,-1.0164943933486938
1772721536439167200,5.225167236328125,8.295506477355957,1.847427487373352,-0.05172586441040039
1772721536457763800,5.243763916015625,13.376811027526855,1.0233465433120728,2.558340311050415
1772721536476360400,5.2623603515625,12.614571571350098,0.39627981185913086,2.6551144123077393
1772721536494957000,5.28095703125,10.118416786193848,0.9285087585449219,0.8590387105941772
1772721536513553400,5.299553466796875,10.261054992675781,0.41524744033813477,-0.7131236791610718
1772721536532150000,5.31814990234375,10.524559020996094,-0.32847845554351807,-2.108150005340576
1772721536550746600,5.33674658203125,10.242937088012695,-0.46626949310302734,-1.6738970279693604
1772721536569343200,5.35534326171875,8.838483810424805,0.13268113136291504,-0.6514003276824951
1772721536587939800,5.37393994140625,6.121013641357422,1.0955369472503662,-0.3586091995239258
1772721536606536400,5.392536376953125,3.0457639694213867,1.2160027027130127,-0.47776544094085693
1772721536625132800,5.4111328125,-0.19362163543701172,0.6426100730895996,0.08313041925430298
1772721536643729400,5.4297294921875,-2.7730226516723633,-0.0008461475372314453,0.8794126510620117
1772721536662326000,5.448325927734375,-3.049631118774414,0.018934249877929688,1.826298475265503
1772721536680922600,5.466922607421875,-1.9086637496948242,0.3595844507217407,1.4592876434326172
1772721536699519200,5.485519287109375,-1.5020313262939453,-0.15717244148254395,0.08011031150817871
1772721536718115800,5.50411572265625,-2.481356620788574,-0.8408963084220886,-0.9833163022994995
1772721536736712200,5.522712158203125,-4.055208683013916,-1.0948419570922852,-1.4549247026443481
1772721536755308800,5.541308837890625,-5.437038421630859,-0.7323123216629028,-1.7411359548568726
1772721536773905400,5.559905517578125,-6.524921894073486,-0.21779000759124756,-1.5310728549957275
1772721536792501800,5.578501708984375,-7.123363494873047,0.2637792229652405,-1.7556586265563965
1772721536811098400,5.597098388671875,-7.689911842346191,0.3935585021972656,-2.231353521347046
1772721536829695000,5.615695068359375,-8.01992416381836,0.47129112482070923,-2.2296335697174072
1772721536848291600,5.63429150390625,-7.963858604431152,0.5713447332382202,-1.4235193729400635
1772721536866888200,5.65288818359375,-7.641533851623535,0.7592681646347046,-0.3802946209907532
1772721536885484800,5.67148486328125,-6.902396202087402,0.9326008558273315,-0.018946528434753418
1772721536904081200,5.6900810546875,-6.041749477386475,0.5478129982948303,-0.0831107497215271
1772721536922677800,5.708677734375,-4.929286003112793,-0.4881749749183655,-0.48145896196365356
1772721536941274400,5.7272744140625,-3.259687900543213,-0.7079954147338867,-0.3782041072845459
1772721536959870700,5.74587060546875,-0.7228498458862305,-0.12148690223693848,-0.2508432865142822
1772721536978467300,5.76446728515625,0.9843902587890625,0.10704410076141357,0.5202045440673828
1772721536997064000,5.78306396484375,2.289963722229004,0.7246345281600952,0.23292434215545654
1772721537015660500,5.80166064453125,6.085846900939941,1.765120029449463,-1.3789983987808228
1772721537034257200,5.820257080078125,8.90256404876709,0.1627507209777832,-0.5431263446807861
1772721537052853500,5.838853515625,9.870701789855957,-0.000584721565246582,1.5312875509262085
1772721537071450000,5.8574501953125,11.891647338867188,0.8169269561767578,1.8844228982925415
1772721537090046700,5.876046630859375,13.551644325256348,1.3370115756988525,0.7128810882568359
1772721537108643300,5.894643310546875,13.685517311096191,0.7224413156509399,-0.9038283824920654
1772721537127239700,5.91323974609375,11.89687728881836,0.0073937177658081055,-1.56654691696167
1772721537145836300,5.931836181640625,9.045525550842285,0.278484582901001,-1.1215118169784546
1772721537164433000,5.950432861328125,7.200372695922852,0.8457733392715454,-0.11576366424560547
1772721537183029200,5.969029296875,5.04807186126709,1.2688339948654175,0.6424602270126343
1772721537201625900,5.9876259765625,3.0058631896972656,1.2126336097717285,0.44649791717529297
1772721537220222500,6.006222412109375,1.2212371826171875,0.6717269420623779,0.3554185628890991
1772721537238819000,6.024819091796875,-1.2048425674438477,0.5563387870788574,0.7730873823165894
1772721537257415400,6.04341552734375,-3.9933433532714844,0.4966609477996826,1.1277656555175781
1772721537276012000,6.062011962890625,-6.0513691902160645,0.29172563552856445,0.9599431157112122
1772721537294608600,6.080608642578125,-7.236966133117676,-0.08434438705444336,0.778467059135437
1772721537313205000,6.099205078125,-7.014891624450684,-0.3728511929512024,-0.05817908048629761
1772721537331801600,6.117801513671875,-5.466803550720215,-0.6322448253631592,-1.2295132875442505
1772721537350398200,6.136398193359375,-5.782562732696533,-0.739406943321228,-1.9988850355148315
1772721537368994600,6.15499462890625,-7.762953281402588,-1.3727846145629883,-1.874254584312439
1772721537387591200,6.173591064453125,-9.666585922241211,-1.2631442546844482,-1.0909444093704224
1772721537406187800,6.192187744140625,-10.358263969421387,-0.49550825357437134,0.3996579647064209
1772721537424784400,6.210784423828125,-9.736522674560547,-0.16320323944091797,0.6541379690170288
1772721537443380700,6.229380615234375,-8.810484886169434,0.1714261770248413,0.9200925230979919
1772721537461977300,6.247977294921875,-7.724382400512695,-0.3840775489807129,0.7289929986000061
1772721537480574000,6.266573974609375,-6.415459632873535,-0.9327352046966553,1.2618285417556763
1772721537499170300,6.28517041015625,-5.880372047424316,-1.4478118419647217,1.7766380310058594
1772721537517767000,6.303766845703125,-5.809759140014648,-1.6313362121582031,1.5390980243682861
1772721537536363500,6.322363525390625,-6.534664630889893,-1.894149899482727,0.857754647731781
1772721537554960000,6.3409599609375,-5.424474239349365,-0.80600905418396,0.4206315279006958
1772721537573556500,6.359556396484375,2.7926340103149414,1.492222785949707,-1.290968418121338
1772721537592153000,6.378153076171875,11.514381408691406,2.3848400115966797,-0.322083055973053
1772721537610749700,6.396749755859375,12.088300704956055,1.404170274734497,0.9214618802070618
1772721537629346000,6.415345947265625,9.767287254333496,2.969120979309082,1.1665279865264893
1772721537647942700,6.433942626953125,10.989917755126953,3.335832118988037,3.0657596588134766
1772721537666539300,6.452539306640625,17.456363677978516,3.7098450660705566,1.5561023950576782
1772721537685135600,6.471135498046875,19.161563873291016,2.087581157684326,-0.9021490812301636
1772721537703732200,6.489732177734375,16.232452392578125,0.7572382688522339,-2.4643523693084717
1772721537722328800,6.508328857421875,12.689887046813965,0.6629564762115479,-2.7745985984802246
1772721537740925200,6.52692529296875,8.688708305358887,1.3479914665222168,-1.6969032287597656
1772721537759521800,6.545521728515625,3.8157148361206055,2.071903705596924,0.027730703353881836
1772721537778118100,6.5641181640625,-1.5494270324707031,2.1780457496643066,1.9954279661178589
1772721537796714800,6.58271484375,-4.850129127502441,1.8671408891677856,2.656949281692505
1772721537815311400,6.601311279296875,-5.2112226486206055,1.1686162948608398,1.5330767631530762
1772721537833907700,6.61990771484375,-4.751075744628906,0.4949713349342346,-0.3472854197025299
1772721537852504300,6.63850439453125,-5.68083381652832,-0.18569719791412354,-1.1227525472640991
1772721537871101000,6.657100830078125,-7.4948410987854,-0.28848057985305786,-1.1939077377319336
1772721537889697300,6.675697265625,-8.02161693572998,-0.0019982457160949707,-1.139807939529419
1772721537908294000,6.6942939453125,-8.587554931640625,0.1016971617937088,-1.3003774881362915
1772721537926890500,6.712890380859375,-9.089764595031738,0.244113951921463,-1.6626906394958496
1772721537945486800,6.73148681640625,-9.378382682800293,0.23204481601715088,-1.7129207849502563
1772721537964083500,6.75008349609375,-9.237720489501953,0.24157077074050903,-1.3091797828674316
1772721537982679800,6.7686796875,-8.701751708984375,0.3646109402179718,-0.12478244304656982
1772721538001276400,6.7872763671875,-7.790383338928223,0.6408222913742065,1.048998236656189
1772721538019873000,6.805873046875,-7.32776403427124,0.4959854483604431,1.4216526746749878
1772721538038469400,6.824469482421875,-6.800992012023926,-0.08109307289123535,1.1933244466781616
1772721538057066000,6.84306591796875,-6.371428489685059,-0.7811986207962036,1.0024681091308594
1772721538075662600,6.86166259765625,-5.391722679138184,-1.0353448390960693,0.7458400726318359
1772721538094259000,6.880259033203125,-2.15897274017334,-0.18090686202049255,0.9698500633239746
1772721538112855600,6.89885546875,1.1731605529785156,-0.196689635515213,0.8410522937774658
1772721538131452000,6.917451904296875,3.677593231201172,-0.34895163774490356,-0.9605720043182373
1772721538150048500,6.936048583984375,8.092899322509766,0.37696558237075806,-1.6118731498718262
1772721538168644900,6.954644775390625,14.133487701416016,-0.19161206483840942,0.86100172996521
1772721538187241500,6.973241455078125,14.113871574401855,-1.0313849449157715,0.6164546012878418
1772721538205838000,6.991838134765625,13.123760223388672,-0.9288374781608582,-1.5117318630218506
1772721538224434400,7.010434326171875,12.997105598449707,-0.4406609535217285,-2.0036351680755615
1772721538243031000,7.029031005859375,12.795364379882812,0.19323283433914185,-2.2693896293640137
1772721538261627400,7.04762744140625,12.26544189453125,0.3959539532661438,-2.487081289291382
1772721538280224000,7.06622412109375,8.996780395507812,0.5717878937721252,-1.3376469612121582
1772721538298820600,7.084820556640625,3.501803398132324,0.8852308988571167,0.19204187393188477
1772721538317417000,7.1034169921875,-0.338592529296875,0.7752076387405396,0.6510165333747864
1772721538336013600,7.122013671875,-1.3085441589355469,0.782228946685791,0.4353030323982239
1772721538354610000,7.14060986328125,-2.8846187591552734,0.9077621698379517,-0.659294843673706
1772721538373206500,7.15920654296875,-4.983098983764648,0.6942645907402039,-0.9627189636230469
1772721538391803100,7.17780322265625,-6.093203544616699,0.5320766568183899,-0.8785144090652466
1772721538410399500,7.1963994140625,-6.190369129180908,0.22177088260650635,-1.4881949424743652
1772721538428996000,7.21499609375,-6.015510082244873,-0.06085240840911865,-2.408109188079834
1772721538447592400,7.233592529296875,-6.628498077392578,-0.29236137866973877,-2.883207321166992
1772721538466189000,7.25218896484375,-7.384526252746582,-0.06064066290855408,-2.3279500007629395
1772721538484785400,7.270785400390625,-7.569789886474609,0.2905001640319824,-1.6536245346069336
1772721538503382000,7.289382080078125,-7.143223762512207,0.46806418895721436,-1.237088918685913
1772721538521978400,7.307978271484375,-6.564673900604248,0.2503458857536316,-1.265631914138794
1772721538540575000,7.326574951171875,-6.756443500518799,-0.3707849383354187,-1.182877540588379
1772721538559171300,7.34517138671875,-7.033359527587891,-0.6005434989929199,-0.5652332901954651
1772721538577768000,7.363767822265625,-6.80390739440918,-0.4891866147518158,0.33671921491622925
1772721538596364300,7.3823642578125,-5.935207366943359,-0.064533531665802,1.2642238140106201
1772721538614961000,7.4009609375,-4.595529556274414,0.19668197631835938,1.8678207397460938
1772721538633557500,7.4195576171875,-2.9836788177490234,-0.13454729318618774,1.587677001953125
1772721538652153900,7.43815380859375,-1.2209901809692383,-1.0676274299621582,0.6769217252731323
1772721538670750500,7.45675048828125,0.9021892547607422,-0.9414700865745544,0.3186229467391968
1772721538689346800,7.475346923828125,4.363883972167969,1.3581854104995728,-0.649364709854126
1772721538707943400,7.493943359375,9.163150787353516,3.729623317718506,-1.633773922920227
1772721538726539800,7.512539794921875,12.10176944732666,3.67524790763855,-1.0253574848175049
1772721538745136400,7.531136474609375,13.843689918518066,3.2100818157196045,1.1663131713867188
1772721538763732700,7.549732666015625,15.562032699584961,2.9526917934417725,2.3124163150787354
1772721538782329300,7.568329345703125,14.99528694152832,3.0659382343292236,2.6346383094787598
1772721538800925700,7.58692578125,12.571504592895508,2.777390241622925,1.7272124290466309
1772721538819522300,7.605522216796875,9.218128204345703,2.1467981338500977,-0.01568615436553955
1772721538838118700,7.62411865234375,6.224175453186035,1.5736963748931885,-1.3805689811706543
1772721538856715300,7.64271533203125,3.213533401489258,0.82387375831604,-1.9272164106369019
1772721538875311600,7.6613115234375,0.9035024642944336,0.08445024490356445,-0.9365590810775757
1772721538893908200,7.679908203125,0.8577766418457031,0.3001880645751953,1.1065709590911865
1772721538912504600,7.698504638671875,-0.45446205139160156,0.17897891998291016,1.7533152103424072
1772721538931101200,7.71710107421875,-2.6139864921569824,-0.32192540168762207,0.9392973184585571
1772721538949697500,7.735697509765625,-4.451058864593506,-1.0441172122955322,0.0002530813217163086
1772721538968294100,7.754294189453125,-6.167454719543457,-1.7700426578521729,-1.110694169998169
1772721538986890500,7.772890380859375,-7.6129584312438965,-2.120572328567505,-2.1030454635620117
1772721539005487000,7.791487060546875,-8.477120399475098,-2.0639419555664062,-2.225338935852051
1772721539024083500,7.81008349609375,-8.949832916259766,-1.913460612297058,-1.9434072971343994
1772721539042680000,7.82868017578125,-9.05986213684082,-1.6698620319366455,-1.7117297649383545
1772721539061276400,7.8472763671875,-8.816139221191406,-1.5089597702026367,-1.3536598682403564
1772721539079873000,7.865873046875,-8.649718284606934,-1.547999382019043,-1.1064739227294922
1772721539098469400,7.884469482421875,-8.622686386108398,-1.6867585182189941,-0.47368061542510986
1772721539117066000,7.90306591796875,-8.641302108764648,-1.649639368057251,0.1969287395477295
1772721539135662300,7.921662353515625,-8.78434944152832,-1.5752785205841064,1.018393874168396
1772721539154259000,7.940259033203125,-8.73674488067627,-1.3522496223449707,1.7479004859924316
1772721539172855300,7.958855224609375,-7.635354042053223,-1.3672828674316406,2.1902027130126953
1772721539191451600,7.97745166015625,-5.475256443023682,-1.4569858312606812,2.140838146209717
1772721539210048300,7.99604833984375,-3.720569610595703,-1.8745592832565308,2.624314308166504
1772721539228644600,8.01464453125,-2.431316375732422,-2.0285301208496094,3.2142515182495117
1772721539247241200,8.0332412109375,0.33483123779296875,-0.8066767454147339,3.235642433166504
1772721539265837800,8.051837890625,4.984835624694824,1.9171234369277954,1.7072075605392456
1772721539284434200,8.07043408203125,8.479866981506348,4.04343843460083,-0.024619579315185547
1772721539303030500,8.089030517578125,14.926591873168945,4.472194194793701,-0.12024068832397461
1772721539321627100,8.107627197265625,21.678884506225586,2.4378397464752197,1.6232709884643555
1772721539340223500,8.126223388671875,22.682701110839844,2.7246692180633545,-1.0021370649337769
1772721539358820000,8.144820068359374,24.81609344482422,1.9273258447647095,-2.3165721893310547
1772721539377416400,8.16341650390625,19.721614837646484,1.5684312582015991,-2.414992570877075
1772721539396012800,8.1820126953125,11.190991401672363,1.921860694885254,-2.4118802547454834
1772721539414609400,8.200609375,4.503900527954102,1.9785795211791992,-2.4022018909454346
1772721539433205800,8.219205810546875,0.72674560546875,1.8802742958068848,-2.0402426719665527
1772721539451802400,8.23780224609375,-1.6372089385986328,1.8138628005981445,-0.5471219420433044
1772721539470398700,8.256398681640626,-2.064059257507324,1.4786736965179443,0.40019282698631287
1772721539488995000,8.2749951171875,-3.0790529251098633,0.14956527948379517,0.11464881896972656
1772721539507591700,8.293591796875,-7.203781604766846,-1.724759817123413,-2.3021109104156494
1772721539526188300,8.312188232421875,-10.878582954406738,-2.317821741104126,-2.572821855545044
1772721539544784600,8.33078466796875,-13.047389030456543,-1.7694623470306396,-1.0368068218231201
1772721539563381200,8.34938134765625,-12.188118934631348,-1.05458664894104,-0.4723380208015442
1772721539581977600,8.3679775390625,-10.58148193359375,-0.7263979911804199,-0.39378368854522705
1772721539600574000,8.386573974609375,-9.61097526550293,-0.8853347301483154,-0.2695026397705078
1772721539619170600,8.405170654296874,-6.893709182739258,-0.15673351287841797,-0.2153332233428955
1772721539637767000,8.423766845703126,-3.943380355834961,0.6239543557167053,1.158747911453247
1772721539656363500,8.442363525390626,-3.5983543395996094,0.8423497676849365,1.287541389465332
1772721539674960000,8.4609599609375,-5.181979179382324,-0.18355023860931396,0.6680639982223511
1772721539693556200,8.47955615234375,-6.466115474700928,-1.4638409614562988,0.15637093782424927
1772721539712152800,8.49815283203125,-6.635261058807373,-2.195744514465332,0.250543475151062
1772721539730749200,8.516749267578126,-4.9114484786987305,-1.9059109687805176,0.7799210548400879
1772721539749345800,8.535345703125,-2.7740845680236816,-0.8663594722747803,1.4961934089660645
1772721539767942100,8.553942138671875,-2.4794883728027344,-0.6538140773773193,2.192284107208252
1772721539786538800,8.572538818359375,-1.3271937370300293,0.31540560722351074,0.6925750970840454
1772721539805135000,8.591135009765624,3.185670852661133,1.3360040187835693,-2.5137760639190674
1772721539823731500,8.6097314453125,8.562272071838379,1.2954890727996826,-2.0131137371063232
1772721539842327800,8.628327880859375,12.183945655822754,0.9425692558288574,-0.3211655616760254
1772721539860924400,8.64692431640625,12.835676193237305,1.9269578456878662,0.6378009915351868
1772721539879520800,8.665520751953125,14.050289154052734,2.8505189418792725,0.43400728702545166
1772721539898117400,8.684117431640624,13.87275218963623,2.049952268600464,-0.6020026206970215
1772721539916713700,8.702713623046876,11.023966789245605,0.8883612155914307,-2.224869728088379
1772721539935310000,8.72131005859375,8.80911922454834,0.6058778762817383,-2.5253310203552246
1772721539953906700,8.73990673828125,7.6301679611206055,0.83893883228302,-2.1860713958740234
1772721539972503000,8.7585029296875,5.270530700683594,1.0210827589035034,-1.6410104036331177
1772721539991099600,8.777099609375,1.3387479782104492,1.055976152420044,-0.3230366110801697
1772721540009696000,8.795696044921876,-2.603928565979004,0.7000454664230347,0.9324651956558228
1772721540028292600,8.814292724609375,-4.815975189208984,-0.13818347454071045,0.8817076683044434
1772721540046889000,8.832888916015625,-4.578924179077148,-0.7096261978149414,0.5460953116416931
1772721540065485300,8.8514853515625,-3.482079029083252,-0.186520516872406,0.3099979758262634
1772721540084081700,8.87008154296875,-3.1752166748046875,0.093874990940094,-0.4995306134223938
1772721540102678300,8.88867822265625,-4.756011486053467,-0.24715834856033325,-1.1632969379425049
1772721540121274600,8.907274658203125,-7.837357044219971,-1.0387747287750244,-1.2787120342254639
1772721540139871200,8.925871337890625,-10.77995777130127,-1.043138861656189,-0.692376971244812
1772721540158467600,8.944467529296874,-10.592449188232422,-0.3772386312484741,-0.24959468841552734
1772721540177064000,8.96306396484375,-8.720118522644043,0.0943523645401001,-0.7692040205001831
1772721540195660500,8.98166064453125,-7.285440444946289,0.377352774143219,-0.9239814281463623
1772721540214257000,9.0002568359375,-6.597461700439453,0.5781280994415283,-0.6252259016036987
1772721540232853200,9.018853271484375,-6.21270751953125,0.2727423906326294,0.24346685409545898
1772721540251449900,9.037449951171874,-5.118849754333496,0.0026674270629882812,1.0133538246154785
1772721540270046200,9.056046142578126,-4.472046375274658,-0.6343398094177246,1.2877508401870728
1772721540288642800,9.074642822265625,-3.221139907836914,-1.165919542312622,0.4923066794872284
1772721540307239200,9.0932392578125,-2.207272529602051,-1.1377873420715332,-0.07717651128768921
1772721540325835500,9.11183544921875,-1.3503408432006836,0.08999979496002197,0.08928453922271729
1772721540344431900,9.130431884765626,1.6523780822753906,1.9533721208572388,-0.16633236408233643
1772721540363028500,9.149028564453126,8.363065719604492,2.8435420989990234,0.048978567123413086
1772721540381624800,9.167624755859375,12.077947616577148,0.5137848854064941,0.037206053733825684
1772721540400221400,9.186221435546875,10.648240089416504,-0.576289176940918,-1.541736125946045
1772721540418817800,9.20481787109375,9.811627388000488,0.48426342010498047,-1.6396658420562744
1772721540437414100,9.2234140625,10.001252174377441,1.9779932498931885,0.26620185375213623
1772721540456010500,9.242010498046875,10.846930503845215,3.031132459640503,0.6304241418838501
1772721540474607000,9.260607177734375,10.457151412963867,2.6989903450012207,-0.8001168966293335
1772721540493203500,9.279203369140625,10.240372657775879,1.7161872386932373,-1.3948384523391724
1772721540511799800,9.2977998046875,6.994184494018555,1.5059010982513428,0.07534676790237427
1772721540530396400,9.316396484375,2.9839372634887695,1.0787379741668701,1.2379591464996338
1772721540548992800,9.33499267578125,-0.7580833435058594,0.4553208351135254,1.202660322189331
1772721540567589400,9.35358935546875,-3.593876838684082,-0.10191929340362549,-0.09257951378822327
1772721540586185700,9.372185791015625,-4.345215797424316,-0.36207711696624756,-1.0886623859405518
1772721540604782000,9.390781982421874,-4.845530986785889,-0.7544111013412476,-1.3448857069015503
1772721540623378400,9.40937841796875,-5.317338943481445,-0.7367126941680908,-1.6018407344818115
1772721540641975000,9.42797509765625,-6.089919567108154,-0.5127566456794739,-1.4325217008590698
1772721540660571400,9.4465712890625,-7.633767127990723,-0.24582692980766296,-0.7050531506538391
1772721540679167700,9.465167724609374,-9.297868728637695,-0.010577499866485596,0.08243361115455627
1772721540697764400,9.483764404296876,-10.14535140991211,0.5332884192466736,0.39196866750717163
1772721540716360700,9.502360595703125,-9.537088394165039,0.9657823443412781,0.2948438227176666
1772721540734957000,9.52095703125,-8.313813209533691,1.1540870666503906,0.32221975922584534
1772721540753553400,9.539553466796875,-7.315175533294678,0.9657049775123596,0.4351229667663574
1772721540772150000,9.55814990234375,-6.912233352661133,0.641667366027832,0.5194670557975769
1772721540790746400,9.576746337890626,-6.658322334289551,0.4091264605522156,0.7301865816116333
1772721540809342700,9.5953427734375,-5.7021589279174805,0.4109930992126465,1.0483943223953247
1772721540827939300,9.613939208984375,-4.727373123168945,0.5881530046463013,1.114706039428711
1772721540846535700,9.63253564453125,-2.6972622871398926,0.5755050182342529,1.725660800933838
1772721540865132000,9.651132080078124,1.7854175567626953,0.4425729513168335,0.3742298185825348
1772721540883728600,9.669728759765626,4.712375640869141,-0.143906831741333,-0.9822785258293152
1772721540902325000,9.688324951171875,5.687255859375,0.07166552543640137,-1.0393259525299072
1772721540920921300,9.70692138671875,7.752002716064453,0.8790225982666016,1.4538191556930542
1772721540939517700,9.725517578125,12.019951820373535,1.2763969898223877,2.546189308166504
1772721540958114000,9.744114013671876,14.960481643676758,0.26229405403137207,0.7048899531364441
1772721540976710700,9.762710693359375,13.670635223388672,-1.2074121236801147,-2.0826897621154785
1772721540995307000,9.78130712890625,12.1504545211792,-1.013293743133545,-3.362337827682495
1772721541013903400,9.7999033203125,10.281737327575684,-0.41765332221984863,-3.3207387924194336
1772721541032499700,9.818499755859374,7.08664608001709,0.3058624267578125,-1.6774897575378418
1772721541051096300,9.837096435546876,2.4532041549682617,0.881885290145874,0.804187536239624
1772721541069692700,9.855692626953125,-1.3475914001464844,1.1044502258300781,1.4958317279815674
1772721541088289000,9.8742890625,-2.052164077758789,0.38246631622314453,2.174760341644287
1772721541106885600,9.8928857421875,-0.8355770111083984,0.1047370433807373,1.6254699230194092
1772721541125482000,9.91148193359375,-0.49346923828125,0.02943575382232666,0.39215078949928284
1772721541144078300,9.930078369140626,-1.5291376113891602,0.06979203224182129,0.08310183882713318
1772721541162674700,9.9486748046875,-2.38480281829834,0.013981819152832031,-0.5298346281051636
1772721541181271000,9.96727099609375,-3.030266761779785,-0.17558765411376953,-1.2406222820281982
1772721541199867600,9.98586767578125,-3.8005828857421875,-0.5491176247596741,-1.7394051551818848
1772721541218464000,10.004464111328126,-5.409420967102051,-0.7567901015281677,-1.6552491188049316
1772721541237060400,10.023060302734375,-7.422672271728516,-0.6474006175994873,-0.9844610095024109
1772721541255656700,10.04165673828125,-8.914037704467773,-0.27266645431518555,0.04791721701622009
1772721541274253300,10.06025341796875,-9.318704605102539,0.2623920440673828,0.9071606397628784
1772721541292849700,10.078849609375,-9.09791088104248,0.6076890230178833,1.401672601699829
1772721541311446000,10.097446044921876,-8.78439712524414,0.5012420415878296,1.632612705230713
1772721541330042400,10.11604248046875,-7.971626281738281,0.15456080436706543,1.4542393684387207
1772721541348638700,10.134638671875,-6.788503646850586,-0.1521291732788086,1.0351673364639282
1772721541367235000,10.153235107421875,-5.372056007385254,-0.5079673528671265,1.3369255065917969
1772721541385831700,10.171831787109374,-3.9612302780151367,-0.9804239273071289,1.798497200012207
1772721541404428000,10.190427978515626,-2.5338315963745117,-1.4913330078125,2.6845791339874268
1772721541423024400,10.2090244140625,-0.07921886444091797,-1.7071014642715454,2.214510440826416
1772721541441620700,10.227620849609375,2.3081750869750977,-1.6339839696884155,0.9230031967163086
1772721541460217300,10.24621728515625,2.4082469940185547,0.09917354583740234,-1.0762852430343628
1772721541478813700,10.264813720703126,3.2667312622070312,1.0733182430267334,-1.5510221719741821
1772721541497410000,10.28341015625,9.261897087097168,1.9440903663635254,-1.5376678705215454
1772721541516006400,10.30200634765625,16.486177444458008,3.12717342376709,-1.0512235164642334
1772721541534603000,10.32060302734375,17.030132293701172,3.6990411281585693,-1.5185718536376953
1772721541553199400,10.339199462890624,15.024767875671387,3.8679544925689697,-2.21755051612854
1772721541571795700,10.357795654296876,15.157368659973145,3.9174509048461914,-2.208840847015381
1772721541590392000,10.37639208984375,14.168501853942871,3.435046672821045,-1.8381333351135254
1772721541608988400,10.394988525390625,9.782853126525879,3.6209604740142822,-0.2877943217754364
1772721541627584800,10.413584716796874,3.3960981369018555,3.354861259460449,0.7963051199913025
1772721541646181000,10.43218115234375,0.023168563842773438,2.5668416023254395,-0.0776529312133789
1772721541664777500,10.450777587890625,-1.7424230575561523,1.3746410608291626,-1.8070099353790283
1772721541683374000,10.4693740234375,-3.436197280883789,-0.3169482946395874,-1.5622379779815674
1772721541701970400,10.487970458984375,-4.340946197509766,0.3817998170852661,-1.0321019887924194
1772721541720566800,10.50656689453125,-5.875885963439941,1.1985056400299072,0.4838027358055115
1772721541739163100,10.5251630859375,-7.1905012130737305,0.9843948483467102,0.3969038724899292
1772721541757759500,10.543759521484375,-8.231485366821289,0.7211933135986328,-0.5415821075439453
1772721541776356000,10.562356201171875,-9.050538063049316,-0.4682297706604004,-1.043496012687683
1772721541794952400,10.580952392578125,-8.663909912109375,-0.33447691798210144,-2.2830467224121094
1772721541813548800,10.599548828125,-6.1026692390441895,-0.09258326888084412,-3.944573402404785
1772721541832145200,10.618145263671876,-6.18292760848999,-0.37840867042541504,-1.6110420227050781
1772721541850741500,10.636741455078125,-6.066387176513672,-0.46262046694755554,0.19678886234760284
1772721541869338000,10.655338134765625,-6.099826812744141,-0.1795852780342102,0.3984237313270569
1772721541887934500,10.6739345703125,-6.271344184875488,-0.6219126582145691,0.6138898730278015
1772721541906530800,10.69253076171875,-5.6661601066589355,-1.5242047309875488,0.8770067691802979
1772721541925127200,10.711127197265625,-4.381620407104492,-1.928978681564331,1.2353501319885254
1772721541943723500,10.7297236328125,-3.4231719970703125,-1.6703155040740967,1.9800721406936646
1772721541962320000,10.74831982421875,-2.9415855407714844,-1.3889596462249756,1.685837745666504
1772721541980916200,10.766916259765624,-1.1349143981933594,-1.3356075286865234,0.93596351146698
1772721541999512600,10.7855126953125,1.6849803924560547,0.4803375005722046,-0.5741903781890869
1772721542018109000,10.80410888671875,4.42869758605957,0.7455736398696899,0.5248063802719116
1772721542036705300,10.822705322265625,7.258386611938477,0.15062129497528076,3.20835542678833
1772721542055302000,10.841302001953125,10.357925415039062,-0.18902039527893066,3.754319190979004
1772721542073898200,10.859898193359374,12.935829162597656,-0.4497779607772827,0.9365674257278442
1772721542092494600,10.87849462890625,12.411861419677734,-0.37882035970687866,-1.5562670230865479
1772721542111091000,10.897091064453125,10.72111701965332,-0.05971193313598633,-1.9125006198883057
1772721542129687300,10.915687255859375,8.35134506225586,0.5242375731468201,-0.7779586315155029
1772721542148283600,10.93428369140625,6.695693016052246,1.137004017829895,0.184818297624588
1772721542166880000,10.9528798828125,5.133909225463867,1.7050596475601196,1.2759795188903809
1772721542185476400,10.971476318359375,2.750330924987793,1.5200645923614502,1.3358254432678223
1772721542204073000,10.990072998046875,1.4169301986694336,1.0328466892242432,-0.38024067878723145
1772721542222669300,11.00866943359375,1.3450641632080078,0.3314293622970581,-1.4827858209609985
1772721542241265700,11.027265625,-0.20262622833251953,0.3436651825904846,-0.8413162231445312
1772721542259862000,11.045862060546876,-2.893930435180664,1.031599998474121,0.30681759119033813
1772721542278458400,11.064458251953125,-4.81682014465332,1.3352041244506836,0.9822131395339966
1772721542297054700,11.0830546875,-5.780369758605957,1.1971476078033447,1.1810476779937744
1772721542315651000,11.101651123046874,-6.302353858947754,0.5925672054290771,0.19207963347434998
1772721542334247400,11.120247314453126,-6.3825225830078125,-0.10861802101135254,-0.9310024380683899
1772721542352843800,11.13884375,-6.775479793548584,-0.588556170463562,-1.739882469177246
1772721542371440000,11.157440185546875,-7.410961627960205,-0.43038272857666016,-1.9293701648712158
1772721542390036700,11.17603662109375,-7.10470724105835,-0.09875404834747314,-0.9045711755752563
1772721542408633000,11.194633056640624,-6.842691421508789,0.4014427661895752,-0.5056537389755249
