time,seconds_elapsed,z,y,x
1772721531315794400,0.10179443359375,0.11224640160799026,0.0009926552884280682,0.170965775847435
1772721531334391000,0.12039111328125,0.09850194305181503,-0.027107125148177147,0.14256057143211365
1772721531352988000,0.13898779296875,0.06062832847237587,-0.05154171586036682,0.18257221579551697
1772721531371584500,0.15758447265625,0.05757400393486023,-0.020693045109510422,0.20364704728126526
1772721531390181000,0.17618115234375,0.13209950923919678,0.02542724646627903,0.1755472719669342
1772721531408778000,0.194778076171875,0.2338084876537323,-0.0057268571108579636,0.11354449391365051
1772721531427374600,0.21337451171875,0.32299473881721497,-0.03993528336286545,0.07475458085536957
1772721531445971500,0.231971435546875,0.33460119366645813,-0.037491824477910995,0.1813504844903946
1772721531464568000,0.250568115234375,0.2658788859844208,-0.026190826669335365,0.3710239827632904
1772721531483164700,0.26916455078125,0.1727220118045807,-0.09827287495136261,0.46479174494743347
1772721531501761500,0.287761474609375,0.09056070446968079,-0.25618141889572144,0.4214203357696533
1772721531520358100,0.306358154296875,0.02764163166284561,-0.34384050965309143,0.32673630118370056
1772721531538955000,0.324955078125,-0.007177661173045635,-0.11995857208967209,0.2635118067264557
1772721531557551600,0.343551513671875,-0.004123337101191282,0.19066616892814636,0.24396412074565887
1772721531576148200,0.362148193359375,-0.0102319847792387,0.31406086683273315,0.22472187876701355
1772721531594745000,0.3807451171875,-0.06887500733137131,0.23373213410377502,0.16455170512199402
1772721531613341700,0.399341796875,-0.18677189946174622,0.18486295640468597,0.09430225193500519
1772721531631938300,0.417938232421875,-0.27290382981300354,0.28840452432632446,0.018860450014472008
1772721531650535200,0.43653515625,-0.2955058515071869,0.5382482409477234,-0.08956804871559143
1772721531669131800,0.4551318359375,-0.27107125520706177,0.6286562085151672,-0.25847217440605164
1772721531687728600,0.473728759765625,-0.29367324709892273,0.4600575268268585,-0.4508945643901825
1772721531706325200,0.4923251953125,-0.3761399984359741,0.11888955533504486,-0.6256018877029419
1772721531724921900,0.510921875,-0.41034841537475586,-0.15905392169952393,-0.6659189462661743
1772721531743518700,0.529518798828125,-0.38957902789115906,0.0651334598660469,-0.5422188639640808
1772721531762115300,0.548115234375,-0.2796233594417572,0.5028180480003357,-0.3641517758369446
1772721531780712200,0.566712158203125,-0.16508620977401733,0.8311578631401062,-0.17753258347511292
1772721531799308800,0.585308837890625,-0.02764163166284561,0.8791107535362244,-0.05719221383333206
1772721531817905400,0.603905517578125,-0.011759147047996521,0.7212022542953491,0.06681333482265472
1772721531836502300,0.622502197265625,0.050549060106277466,0.5177842378616333,0.16699515283107758
1772721531855099000,0.641098876953125,0.35537058115005493,-0.14164426922798157,0.18318307399749756
1772721531873695500,0.659695556640625,0.6482802629470825,-1.2576942443847656,0.3979020416736603
1772721531892292400,0.678292236328125,0.7661771774291992,-2.2127811908721924,0.9482911825180054
1772721531910889000,0.696888916015625,0.8520036339759827,-2.2640938758850098,1.482492446899414
1772721531929485600,0.715485595703125,0.6079631447792053,-1.2466986179351807,1.619326114654541
1772721531948082400,0.73408251953125,0.12476912885904312,0.4756345748901367,1.1294126510620117
1772721531966679000,0.752678955078125,-0.14309507608413696,1.2798380851745605,0.16791145503520966
1772721531985275600,0.771275634765625,-0.4185950756072998,0.7257837057113647,-0.5309178233146667
1772721532003872500,0.78987255859375,-0.5172497630119324,-0.5561160445213318,-0.8067232966423035
1772721532022469000,0.80846923828125,-0.5288561582565308,-2.1544437408447266,-1.043433427810669
1772721532041065700,0.827065673828125,-0.5395463109016418,-2.5679991245269775,-1.2324960231781006
1772721532059662600,0.84566259765625,-0.5789470672607422,-1.4226276874542236,-1.2737294435501099
1772721532078259200,0.86425927734375,-0.6327031850814819,0.5104538798332214,-1.1002438068389893
1772721532096855800,0.882855712890625,-0.6085740327835083,1.6848413944244385,-0.8638391494750977
1772721532115452400,0.901452392578125,-0.781143307685852,1.7138575315475464,-0.7034871578216553
1772721532134049300,0.92004931640625,-1.060613989830017,1.3586395978927612,-0.5877282619476318
1772721532152646000,0.93864599609375,-0.7252492308616638,0.7795398235321045,-0.3684278130531311
1772721532171242500,0.957242431640625,-0.18096868693828583,0.4004982113838196,-0.10881029069423676
1772721532189839400,0.97583935546875,0.3675878942012787,0.3125337064266205,0.07200568914413452
1772721532208436000,0.99443603515625,0.7130318880081177,0.25786128640174866,0.14836378395557404
1772721532227032600,1.013032470703125,0.8122974634170532,0.116751529276371,0.3001636862754822
1772721532245629400,1.03162939453125,0.7044798135757446,-0.03627009689807892,0.5524508357048035
1772721532264226000,1.05022607421875,0.5578722357749939,-0.08605557680130005,0.6923388838768005
1772721532282822700,1.06882275390625,0.5111411213874817,-0.03413207083940506,0.5781071782112122
1772721532301419300,1.087419189453125,0.495258629322052,0.16684244573116302,0.3404807448387146
1772721532320016100,1.10601611328125,0.23258677124977112,0.6179660558700562,0.18776455521583557
1772721532338612700,1.12461279296875,0.049021899700164795,1.0028108358383179,0.21891866624355316
1772721532357209300,1.143209228515625,0.12996147572994232,1.0525963306427002,0.26473352313041687
1772721532375806200,1.16180615234375,0.4427242577075958,0.7722094655036926,0.19204062223434448
1772721532394402800,1.18040283203125,0.8138245940208435,0.4912116527557373,-0.015042545273900032
1772721532412999400,1.19899951171875,0.9815070033073425,0.8064178824424744,0.3239873945713043
1772721532431596000,1.217595947265625,0.817184329032898,0.4924333691596985,0.7396808862686157
1772721532450193000,1.23619287109375,0.4970912039279938,-0.004810560029000044,0.797102153301239
1772721532468789500,1.25478955078125,0.16814053058624268,-0.586048424243927,0.602847158908844
1772721532487386000,1.27338623046875,0.12721258401870728,-0.8920916318893433,0.5255727767944336
1772721532505982700,1.291982666015625,0.05085449293255806,-0.6388881802558899,0.48525571823120117
1772721532524579600,1.31057958984375,-0.10125083476305008,-0.09185878932476044,0.22044582664966583
1772721532543176200,1.32917626953125,-0.2130390852689743,0.039477135986089706,-0.36018115282058716
1772721532561772800,1.347772705078125,-0.3116937577724457,-0.3502545952796936,-0.9835686683654785
1772721532580369400,1.366369384765625,-0.5713112950325012,-1.3584868907928467,-1.7108031511306763
1772721532598966000,1.384966064453125,-1.0050252676010132,-2.46598482131958,-2.466442823410034
1772721532617563000,1.40356298828125,-1.2789981365203857,-2.77874755859375,-2.8870232105255127
1772721532636159500,1.422159423828125,-1.0444260835647583,-2.259512424468994,-2.672609806060791
1772721532654756000,1.440756103515625,-0.5422952175140381,-1.4947097301483154,-2.267606496810913
1772721532673352700,1.459352783203125,-0.3211621642112732,-1.149876594543457,-1.9010875225067139
1772721532691949600,1.477949462890625,-0.5199986696243286,-1.0041853189468384,-1.3714678287506104
1772721532710546200,1.496546142578125,-0.8022181987762451,-0.936684787273407,-0.7767909169197083
1772721532729142800,1.515142822265625,-0.7753401398658752,-0.6474403142929077,-0.18761184811592102
1772721532747739400,1.533739501953125,-0.48181959986686707,0.0703258067369461,0.3187950551509857
1772721532766336300,1.552336181640625,-0.1101083755493164,0.8085559010505676,0.6046797633171082
1772721532784932900,1.570932861328125,0.20601414144039154,1.0953569412231445,0.48067423701286316
1772721532803529500,1.589529541015625,0.30314165353775024,0.8678097724914551,0.16485713422298431
1772721532822126000,1.6081259765625,0.162031888961792,0.487546443939209,0.11079560220241547
1772721532840722700,1.62672265625,-0.028557928279042244,0.4264599680900574,0.3517817556858063
1772721532859319300,1.6453193359375,-0.1821904182434082,0.8723912835121155,0.6391936540603638
1772721532877916200,1.663916259765625,-0.25182899832725525,1.4985276460647583,0.7702241539955139
1772721532896512800,1.6825126953125,-0.30375251173973083,1.8375576734542847,0.8923971056938171
1772721532915109400,1.701109375,-0.33918267488479614,1.8641302585601807,1.1110867261886597
1772721532933706000,1.7197060546875,-0.24174973368644714,1.7221041917800903,1.20271635055542
1772721532952302600,1.738302490234375,-0.08750637620687485,1.275256633758545,0.9928843379020691
1772721532970899500,1.7568994140625,0.1870773434638977,0.996091365814209,0.7931315302848816
1772721532989496000,1.77549609375,0.577725350856781,0.9600503444671631,0.7809142470359802
1772721533008092700,1.7940927734375,0.633619487285614,0.31497713923454285,0.9812778830528259
1772721533026689300,1.812689208984375,0.5138899683952332,-0.10224349051713943,1.325500249862671
1772721533045286000,1.831285888671875,0.4396699368953705,0.45822495222091675,1.4186570644378662
1772721533063882500,1.849882568359375,0.34498587250709534,0.877278208732605,0.8737657070159912
1772721533082479400,1.868479248046875,0.28237223625183105,0.9386700987815857,0.30627232789993286
1772721533101076000,1.887075927734375,0.2444986253976822,0.8836922645568848,0.07994692772626877
1772721533119672600,1.905672607421875,0.17333288490772247,0.28473934531211853,-0.0703258067369461
1772721533138269200,1.924269287109375,-0.04566214233636856,-0.46692976355552673,-0.24625486135482788
1772721533156865800,1.94286572265625,-0.30833399295806885,-0.7674752473831177,-0.6139954328536987
1772721533175462400,1.96146240234375,-0.5487092733383179,-0.7570905089378357,-1.330234408378601
1772721533194059300,1.980059326171875,-0.7692314982414246,-0.8646027445793152,-2.2217915058135986
1772721533212655900,1.99865576171875,-0.9543235301971436,-1.2372303009033203,-2.8864123821258545
1772721533231252500,2.01725244140625,-0.9582940936088562,-1.4870738983154297,-2.9694900512695312
1772721533249849000,2.03584912109375,-0.7020363211631775,-1.5112030506134033,-2.5400521755218506
1772721533268445700,2.05444580078125,-0.30894485116004944,-1.2482258081436157,-1.8070143461227417
1772721533287042300,2.073042236328125,0.11957678198814392,-0.7256309986114502,-1.0147227048873901
1772721533305639200,2.09163916015625,0.7188351154327393,-0.2570977210998535,-0.43898269534111023
1772721533324235500,2.110235595703125,1.409723162651062,-0.29558220505714417,-0.2099084109067917
1772721533342832400,2.128832275390625,1.7487531900405884,-0.5955168008804321,-0.1329394429922104
1772721533361429000,2.147428955078125,1.872147798538208,-0.6847030520439148,-0.04589121788740158
1772721533380025600,2.166025634765625,1.6647592782974243,-0.49166980385780334,0.004505127668380737
1772721533398622200,2.184622314453125,1.30923593044281,-0.05215258151292801,0.11110103130340576
1772721533417218800,2.20321875,0.902400016784668,0.0449749194085598,0.0939968153834343
1772721533435815400,2.2218154296875,0.3513999581336975,-0.10468695312738419,0.2894735336303711
1772721533454412000,2.240412109375,-0.14950916171073914,-0.03321577236056328,0.5857429504394531
1772721533473008600,2.259008544921875,-0.35384342074394226,0.4301251769065857,0.7757219076156616
1772721533491605500,2.27760546875,-0.3248273432254791,0.9450841546058655,0.8429170250892639
1772721533510202000,2.2962021484375,-0.11835505068302155,1.2718968391418457,0.9687551856040955
1772721533528798700,2.314798828125,0.2130390852689743,1.1234567165374756,1.0157917737960815
1772721533547395300,2.333395263671875,0.32879796624183655,0.35621052980422974,0.9342412948608398
1772721533565992000,2.351991943359375,0.43233954906463623,0.07307469844818115,1.39849853515625
1772721533584588500,2.370588623046875,0.8067996501922607,0.6042216420173645,1.947666049003601
1772721533603185200,2.38918505859375,1.1223113536834717,0.7972549200057983,1.6953787803649902
1772721533621781800,2.40778173828125,0.9262236952781677,0.42768171429634094,1.250363826751709
1772721533640378400,2.42637841796875,0.4094321131706238,-0.22411102056503296,1.1743111610412598
1772721533658975000,2.44497509765625,-0.03802633285522461,-0.44554948806762695,1.2298998832702637
1772721533677571800,2.46357177734375,-0.08659008145332336,0.20257803797721863,0.751592755317688
1772721533696168400,2.48216845703125,0.05482511222362518,0.7267000079154968,0.062537282705307
1772721533714765000,2.50076513671875,0.012980876490473747,0.3641517758369446,-0.4206567704677582
1772721533733361700,2.519361572265625,-0.27656903862953186,-0.4797579348087311,-0.710512101650238
1772721533751958300,2.537958251953125,-0.6131555438041687,-0.9052252173423767,-1.0193042755126953
1772721533770555000,2.556554931640625,-0.8132137656211853,-0.8587995171546936,-1.5550326108932495
1772721533789151500,2.5751513671875,-0.9130901098251343,-0.8606321215629578,-1.8949788808822632
1772721533807748000,2.593748046875,-0.8422298431396484,-0.5408443808555603,-1.5357904434204102
1772721533826344700,2.6123447265625,-0.5823068618774414,0.07124210149049759,-0.857730507850647
1772721533844941600,2.630941650390625,-0.24633121490478516,0.6515636444091797,-0.25236350297927856
1772721533863538000,2.649537841796875,0.12751802802085876,0.9627992510795593,0.0057268571108579636
1772721533882134800,2.668134765625,0.39965829253196716,0.8998801708221436,0.035964664071798325
1772721533900731100,2.686731201171875,0.46807512640953064,0.7547997832298279,-0.011988221667706966
1772721533919328000,2.705327880859375,0.41218101978302,0.505872368812561,-0.06849320977926254
1772721533937924600,2.723924560546875,0.3065013885498047,0.1115591824054718,-0.026343543082475662
1772721533956521200,2.742521240234375,0.12843431532382965,-0.21311545372009277,0.17799071967601776
1772721533975117800,2.761117919921875,-0.0743727833032608,-0.27664539217948914,0.3349829614162445
1772721533993714400,2.77971435546875,-0.23991714417934418,-0.2946659028530121,0.31696245074272156
1772721534012311000,2.79831103515625,-0.4021017551422119,-0.36796966195106506,0.20364704728126526
1772721534030907600,2.81690771484375,-0.6021599769592285,-0.34353506565093994,0.15905392169952393
1772721534049504300,2.835504150390625,-0.7570141553878784,-0.002672533504664898,0.20975568890571594
1772721534068100900,2.854100830078125,-0.6504182815551758,0.4359283745288849,0.16638429462909698
1772721534086697500,2.872697509765625,-0.4045451879501343,0.4872410297393799,0.24885104596614838
1772721534105294000,2.891294189453125,-0.28206682205200195,0.4518108665943146,0.6709585785865784
1772721534123891000,2.909890869140625,0.07345648854970932,0.7172316312789917,0.7112756967544556
1772721534142487300,2.9284873046875,0.2283107042312622,0.3427715003490448,0.5084685683250427
1772721534161084200,2.947084228515625,0.08323032408952713,0.4203513264656067,1.195996880531311
1772721534179680500,2.965680419921875,0.1824958473443985,0.5275580883026123,1.7399719953536987
1772721534198277400,2.98427734375,0.29184064269065857,0.11522436887025833,1.4039963483810425
1772721534216874000,3.0028740234375,0.2808450758457184,-0.10865757614374161,0.8322269320487976
1772721534235470600,3.021470703125,0.31291547417640686,0.10483966767787933,0.6175079345703125
1772721534254067200,3.040067138671875,0.2744309902191162,0.28840452432632446,0.474260151386261
1772721534272663800,3.058663818359375,0.09117157012224197,0.16592614352703094,0.14408773183822632
1772721534291260400,3.077260498046875,-0.18921536207199097,-0.050930850207805634,-0.2917642891407013
1772721534309857000,3.09585693359375,-0.3400989770889282,-0.3756054937839508,-0.8274927139282227
1772721534328453600,3.11445361328125,-0.5227475166320801,-0.8539125919342041,-1.3983458280563354
1772721534347050200,3.13305029296875,-0.625067412853241,-1.1639264822006226,-1.7248530387878418
1772721534365646800,3.151646728515625,-0.5829176902770996,-1.2754093408584595,-1.6552144289016724
1772721534384243500,3.170243408203125,-0.625067412853241,-0.9214131832122803,-1.413617491722107
1772721534402840000,3.188840087890625,-0.6751583218574524,-0.1712712198495865,-1.1249839067459106
1772721534421436700,3.207436767578125,-0.6397281289100647,0.6927970051765442,-0.8186351656913757
1772721534440033300,3.226033203125,-0.43661558628082275,1.443244457244873,-0.5718457698822021
1772721534458630000,3.2446298828125,-0.12202023714780807,1.6500221490859985,-0.47991064190864563
1772721534477226500,3.2632265625,0.06673697382211685,1.38429594039917,-0.4771617650985718
1772721534495823000,3.281822998046875,0.1418733447790146,0.6591994762420654,-0.47777262330055237
1772721534514419700,3.300419677734375,0.20082180202007294,-0.09033162891864777,-0.22212570905685425
1772721534533016600,3.3190166015625,0.3162752389907837,-0.4171442985534668,0.1963166743516922
1772721534551613000,3.337613037109375,0.4540252387523651,-0.5384009480476379,0.5206858515739441
1772721534570209800,3.356209716796875,0.5319104790687561,-0.6624065041542053,0.5503128170967102
1772721534588806100,3.37480615234375,0.42592546343803406,-0.7799979448318481,0.4883100390434265
1772721534607403000,3.393403076171875,0.295811265707016,-0.649578332901001,0.7204386591911316
1772721534625999400,3.411999267578125,0.21609342098236084,-0.3655261993408203,0.8920916318893433
1772721534644596200,3.43059619140625,0.16019928455352783,0.11430807411670685,0.8358920812606812
1772721534663192600,3.449192626953125,0.06734783947467804,0.5590176582336426,0.658741295337677
1772721534681789400,3.46778955078125,0.012370011769235134,0.4814378023147583,0.469678670167923
1772721534700386000,3.486385986328125,0.1876882016658783,0.6860775351524353,0.32795801758766174
1772721534718982700,3.504982666015625,0.4189005196094513,0.7978657484054565,0.40004006028175354
1772721534737579300,3.523579345703125,0.23686282336711884,0.16378812491893768,0.8285617232322693
1772721534756176000,3.54217578125,0.2811505198478699,-0.49686214327812195,1.0921498537063599
1772721534774772500,3.5607724609375,0.7848085165023804,-0.6080395579338074,1.0719913244247437
1772721534793369000,3.579369140625,1.269835114479065,-0.7412080764770508,1.0594686269760132
1772721534811965700,3.597965576171875,1.206916093826294,-0.7103593945503235,1.2198206186294556
1772721534830562300,3.616562255859375,0.8086322546005249,0.01718057133257389,1.2219586372375488
1772721534849159000,3.635158935546875,0.3761399984359741,0.6860775351524353,0.6559923887252808
1772721534867755500,3.653755615234375,0.10888664424419403,0.6872992515563965,-0.14057525992393494
1772721534886352100,3.67235205078125,0.01908952370285988,0.11552979797124863,-0.7059305906295776
1772721534904948700,3.69094873046875,-0.05451968312263489,-0.5829941034317017,-0.9524145722389221
1772721534923545300,3.70954541015625,-0.21731515228748322,-0.9669225811958313,-1.0858885049819946
1772721534942142000,3.728141845703125,-0.4036289155483246,-1.0622174739837646,-1.3045780658721924
1772721534960738600,3.746738525390625,-0.5514581799507141,-1.020067811012268,-1.4218641519546509
1772721534979335200,3.765335205078125,-0.541378915309906,-0.9928843379020691,-1.2715914249420166
1772721534997931800,3.783931884765625,-0.3889681398868561,-0.723798394203186,-0.8723912835121155
1772721535016528400,3.8025283203125,-0.23503021895885468,-0.11171189695596695,-0.45853036642074585
1772721535035125000,3.821125,-0.0691804364323616,0.4725802540779114,-0.17905974388122559
1772721535053721600,3.8397216796875,0.0334448479115963,0.8296307325363159,-0.13385574519634247
1772721535072318200,3.858318115234375,0.17424917221069336,0.9484439492225647,-0.2755763828754425
1772721535090914800,3.876914794921875,0.26618432998657227,0.9166789650917053,-0.3830885887145996
1772721535109511400,3.895511474609375,0.2606865465641022,0.69096440076828,-0.4337903559207916
1772721535128108000,3.91410791015625,0.1879936307668686,0.18791727721691132,-0.399887353181839
1772721535146704600,3.93270458984375,0.03375028073787689,-0.3817141354084015,-0.26855143904685974
1772721535165301200,3.95130126953125,-0.21731515228748322,-0.7592285871505737,-0.19646938145160675
1772721535183897900,3.96989794921875,-0.3871355652809143,-0.8560506105422974,-0.03520108386874199
1772721535202494500,3.988494384765625,-0.5456549525260925,-0.6746237874031067,0.18684826791286469
1772721535221091000,4.007091064453125,-0.6116283535957336,-0.14103341102600098,0.4638754427433014
1772721535239687700,4.025687744140625,-0.4949531853199005,0.5892554521560669,0.48128509521484375
1772721535258284000,4.044283935546875,-0.2900080680847168,0.45364347100257874,0.07719803601503372
1772721535276881000,4.062880859375,-0.10369429737329483,-0.0985783040523529,0.07017309218645096
1772721535295477500,4.0814775390625,-0.011148282326757908,0.07796161621809006,0.4592939615249634
1772721535314073900,4.100073974609375,0.2606865465641022,0.5519927144050598,0.8080977201461792
1772721535332670700,4.118670654296875,0.44638943672180176,0.784426748752594,1.1440733671188354
1772721535351267000,4.13726708984375,0.688902735710144,0.5406916737556458,1.1969131231307983
1772721535369864000,4.155864013671875,0.7954986691474915,-0.170965775847435,1.1000910997390747
1772721535388460300,4.174460205078125,0.48762279748916626,-0.4990001618862152,1.1058943271636963
1772721535407057000,4.193056884765625,0.1467602699995041,-0.31146466732025146,0.9156099557876587
1772721535425653800,4.21165380859375,0.024892739951610565,-0.0988837331533432,0.5188532471656799
1772721535444250000,4.23025,0.1974620372056961,-0.3087157905101776,0.1908188909292221
1772721535462846700,4.2488466796875,0.36972591280937195,-0.8157335519790649,-0.041615162044763565
1772721535481443300,4.267443359375,0.4381427764892578,-1.0356448888778687,-0.3528507649898529
1772721535500040000,4.2860400390625,0.35475972294807434,-0.9678388833999634,-0.8818596601486206
1772721535518636500,4.304636474609375,0.1510363221168518,-0.7919098138809204,-1.3867393732070923
1772721535537233200,4.323233154296875,-0.07773254066705704,-0.48678287863731384,-1.6564362049102783
1772721535555829800,4.341829833984375,-0.2680169343948364,-0.1303432732820511,-1.5806889533996582
1772721535574426400,4.36042626953125,-0.36483898758888245,0.1582903414964676,-1.2804489135742188
1772721535593023000,4.37902294921875,-0.3733910918235779,0.37545275688171387,-0.923398494720459
1772721535611619600,4.39761962890625,-0.24602578580379486,0.4722748398780823,-0.5898662805557251
1772721535630216200,4.41621630859375,-0.08536835014820099,0.45364347100257874,-0.2557232677936554
1772721535648812800,4.434812744140625,0.04780016839504242,0.39164069294929504,0.10346522182226181
1772721535667409200,4.4534091796875,0.0951421856880188,0.29909467697143555,0.49136435985565186
1772721535686006000,4.472006103515625,0.04321868345141411,0.22762349247932434,0.8252019882202148
1772721535704602400,4.490602294921875,0.02764163166284561,0.34063348174095154,0.9687551856040955
1772721535723199000,4.509198974609375,0.0062613640911877155,0.4518108665943146,0.9394336938858032
1772721535741795600,4.527795654296875,-0.030085090547800064,0.39102980494499207,0.8465822339057922
1772721535760392200,4.54639208984375,-0.0798705667257309,0.3070359230041504,0.8642973303794861
1772721535778988800,4.56498876953125,-0.027336198836565018,0.5785652995109558,0.9281326532363892
1772721535797585400,4.58358544921875,0.021838415414094925,0.7410553097724915,0.9537889957427979
1772721535816182000,4.60218212890625,0.07589995115995407,0.6992111206054688,0.907974123954773
1772721535834778600,4.620778564453125,0.06765327602624893,0.19555309414863586,0.750981867313385
1772721535853375200,4.639375244140625,-0.0038179049734026194,-0.4947241246700287,0.6642391085624695
1772721535871971800,4.657971923828125,-0.07803797721862793,-0.2540434002876282,0.6401099562644958
1772721535890568400,4.676568359375,0.14523309469223022,0.3699549734592438,0.093691386282444
1772721535909164800,4.695164794921875,0.397825688123703,0.7248674035072327,-0.5098429918289185
1772721535927761700,4.71376171875,0.1000291109085083,0.10728313028812408,-0.7593812942504883
1772721535946358000,4.73235791015625,-0.541989803314209,-0.8096249103546143,-0.2966512143611908
1772721535964954600,4.75095458984375,-0.6580541133880615,-0.3600284159183502,0.22014039754867554
1772721535983551200,4.76955126953125,-0.12354740500450134,0.4444804787635803,0.07628174126148224
1772721536002147800,4.78814794921875,0.29397866129875183,0.5733729600906372,-0.02176205813884735
1772721536020744400,4.806744384765625,0.6046034097671509,-0.15752676129341125,0.5778017044067383
1772721536039341000,4.825341064453125,0.5780308246612549,-1.6550617218017578,1.462944746017456
1772721536057937700,4.843937744140625,0.27290382981300354,-2.82303524017334,1.444618821144104
1772721536076534300,4.8625341796875,0.07131846249103546,-2.5398993492126465,0.19448406994342804
1772721536095130600,4.881130615234375,-0.009010255336761475,-1.437288522720337,-0.7719039916992188
1772721536113727200,4.899727294921875,-0.2179260104894638,-0.47120583057403564,-1.0583995580673218
1772721536132323800,4.91832373046875,-0.5300779342651367,-0.06895136088132858,-0.9374483823776245
1772721536150920400,4.93692041015625,-0.808937668800354,0.08468113094568253,-0.7456368207931519
1772721536169517000,4.95551708984375,-0.9375247359275818,0.33483025431632996,-0.7120392322540283
1772721536188113700,4.97411376953125,-0.8403972387313843,0.5959749221801758,-0.8082504868507385
1772721536206710300,4.992710205078125,-0.6097957491874695,0.6992111206054688,-0.8412371873855591
1772721536225307000,5.011306884765625,-0.2790125012397766,0.6708058714866638,-0.77618008852005
1772721536243903200,5.0299033203125,0.0435241162776947,0.46463900804519653,-0.5941423773765564
1772721536262499800,5.048499755859375,0.23503021895885468,0.16409355401992798,-0.3782016634941101
1772721536281096400,5.067096435546875,0.2735147178173065,0.07429642975330353,-0.16134466230869293
1772721536299693000,5.085693115234375,0.32299473881721497,0.3525453209877014,0.14347685873508453
1772721536318289700,5.10428955078125,0.47265663743019104,0.8952987194061279,0.529543399810791
1772721536336886000,5.122885986328125,0.6696605086326599,1.2019528150558472,0.714024543762207
1772721536355482600,5.141482666015625,0.6549997329711914,0.9545525908470154,0.6737074851989746
1772721536374079200,5.160079345703125,0.40057456493377686,0.6139954328536987,0.7109702229499817
1772721536392675800,5.17867578125,0.5010618567466736,0.7575486898422241,0.806876003742218
1772721536411272400,5.1972724609375,0.9320269227027893,0.5416079759597778,0.19020801782608032
1772721536429869000,5.215869140625,0.9955568909645081,-0.3979020416736603,-0.2447277009487152
1772721536448465400,5.23446533203125,0.7307469844818115,-0.28153231739997864,0.3713294267654419
1772721536467062000,5.25306201171875,0.4179842174053192,0.6194932460784912,1.001741886138916
1772721536485658600,5.27165869140625,0.22525638341903687,1.0101412534713745,0.7958804368972778
1772721536504255200,5.290255126953125,0.04169152304530144,0.7758746147155762,0.18196134269237518
1772721536522851800,5.308851806640625,0.23961171507835388,0.643927812576294,-0.10545053333044052
1772721536541448400,5.327448486328125,0.7023417949676514,0.20807582139968872,-0.06268999725580215
1772721536560044800,5.346044921875,0.9500474333763123,-0.4944186806678772,0.2317468225955963
1772721536578641400,5.364641357421875,0.9363030195236206,-1.0008255243301392,0.48067423701286316
1772721536597238000,5.383238037109375,0.8526145219802856,-1.1471277475357056,0.40889760851860046
1772721536615834600,5.401834716796875,0.7869465351104736,-1.08268141746521,0.12851068377494812
1772721536634431200,5.42043115234375,0.669965922832489,-0.9602030515670776,-0.4918225109577179
1772721536653027600,5.439027587890625,0.41554075479507446,-1.056108832359314,-1.1610249280929565
1772721536671624200,5.457624267578125,-0.009010255336761475,-1.3865866661071777,-1.4634029865264893
1772721536690220800,5.476220703125,-0.3889681398868561,-1.473940372467041,-1.3891829252243042
1772721536708817400,5.4948173828125,-0.4335612654685974,-0.9522618055343628,-1.2153918743133545
1772721536727414000,5.5134140625,-0.22220206260681152,-0.11232276260852814,-1.070006012916565
1772721536746010600,5.5320107421875,0.01695149764418602,0.4878518879413605,-0.9096540212631226
1772721536764607000,5.55060693359375,0.17333288490772247,0.7294489145278931,-0.6979893445968628
1772721536783203600,5.56920361328125,0.17547090351581573,0.6347648501396179,-0.47319114208221436
1772721536801800200,5.58780029296875,0.20357069373130798,0.5034289360046387,-0.2557232677936554
1772721536820396800,5.606396728515625,0.31444263458251953,0.4292088747024536,-0.12408190965652466
1772721536838993200,5.6249931640625,0.42562004923820496,0.4301251769065857,-0.039477135986089706
1772721536857589800,5.64358984375,0.3975202441215515,0.4102720618247986,0.01977674663066864
1772721536876186400,5.662186279296875,0.19960007071495056,0.17050762474536896,0.10529781877994537
1772721536894783000,5.680782958984375,-0.04505127668380737,-0.050930850207805634,0.23999349772930145
1772721536913379600,5.699379638671875,-0.09941824525594711,0.026343543082475662,0.30779948830604553
1772721536931976000,5.717975830078125,0.14737112820148468,0.48418670892715454,0.28703010082244873
1772721536950572500,5.736572509765625,0.47204574942588806,0.996702253818512,0.3413970470428467
1772721536969169200,5.755169189453125,0.7035635113716125,1.2215005159378052,0.5765799880027771
1772721536987765500,5.773765625,0.6864593029022217,0.7126501202583313,0.6648499369621277
1772721537006362000,5.792362060546875,0.615293562412262,-0.09521854668855667,0.6147590279579163
1772721537024958700,5.810958740234375,0.6452259421348572,-0.2317468225955963,0.7173843383789062
1772721537043555300,5.829555419921875,0.6543889045715332,0.590171754360199,0.5118283033370972
1772721537062152000,5.84815185546875,0.3153589367866516,0.7419716119766235,0.07933606207370758
1772721537080748500,5.86674853515625,-0.08384118974208832,0.2774089574813843,-0.07521272450685501
1772721537099345000,5.885344970703125,-0.14340050518512726,0.015042545273900032,-0.008933897130191326
1772721537117941500,5.90394140625,0.1721111536026001,0.1576794683933258,0.11171189695596695
1772721537136538000,5.9225380859375,0.45066550374031067,0.16103923320770264,0.10102175921201706
1772721537155134500,5.941134521484375,0.5233584046363831,0.00679587060585618,-0.026648975908756256
1772721537173731000,5.95973095703125,0.4546361267566681,-0.11995857208967209,-0.07490729540586472
1772721537192327700,5.97832763671875,0.3413206934928894,-0.45562875270843506,-0.23922991752624512
1772721537210924000,5.996924072265625,0.34315329790115356,-0.6847030520439148,-0.33910632133483887
1772721537229520600,6.015520751953125,0.3428478538990021,-0.8193987607955933,-0.31986406445503235
1772721537248117200,6.0341171875,0.17577634751796722,-0.7213549613952637,-0.4392881393432617
1772721537266713900,6.0527138671875,-0.012980876490473747,-0.3701077103614807,-0.7135664224624634
1772721537285310200,6.071310302734375,-0.10461059212684631,0.005268708802759647,-0.9346994757652283
1772721537303906800,6.08990673828125,-0.1259908676147461,0.16042836010456085,-0.942335307598114
1772721537322503400,6.10850341796875,-0.020922118797898293,-0.011224640533328056,-0.5923097729682922
1772721537341099800,6.127099853515625,0.20906847715377808,0.10483966767787933,0.03107774630188942
1772721537359696400,6.1456962890625,0.6232348084449768,0.6692787408828735,0.4828122556209564
1772721537378293000,6.16429296875,1.0328196287155151,1.1023818254470825,0.5729147791862488
1772721537396889300,6.182889404296875,1.1391100883483887,1.0843613147735596,0.4113410711288452
1772721537415486000,6.20148583984375,1.0041090250015259,0.534277617931366,0.26045745611190796
1772721537434082600,6.22008251953125,0.7276926636695862,-0.23846633732318878,0.20914483070373535
1772721537452679200,6.23867919921875,0.3831649422645569,-0.6333904266357422,0.19387321174144745
1772721537471275500,6.257275634765625,0.14859285950660706,-0.45990481972694397,0.16302454471588135
1772721537489872100,6.2758720703125,0.039248060435056686,0.331165075302124,0.2949713170528412
1772721537508468700,6.29446875,-0.011759147047996521,1.1219295263290405,0.3288743197917938
1772721537527065000,6.313065185546875,0.12171480804681778,1.503109097480774,0.21281002461910248
1772721537545661700,6.33166162109375,0.33399030566215515,1.1042144298553467,-0.13385574519634247
1772721537564258300,6.35025830078125,0.5273290276527405,-1.0249547958374023,-0.34002259373664856
1772721537582854700,6.368854736328125,0.6858484148979187,-2.7879104614257812,0.5371792316436768
1772721537601451300,6.387451171875,0.551152765750885,-1.8725296258926392,1.3642901182174683
1772721537620048000,6.4060478515625,0.4231765866279602,0.06910407543182373,0.5222130417823792
1772721537638644500,6.42464453125,-0.15592323243618011,1.2346340417861938,-1.285335898399353
1772721537657240800,6.44324072265625,-0.8932369947433472,1.1295653581619263,-2.18666672706604
1772721537675837400,6.46183740234375,-1.26189386844635,0.6430115103721619,-1.5495349168777466
1772721537694434000,6.48043408203125,-0.9998329281806946,0.22334744036197662,-0.8235220909118652
1772721537713030400,6.499030517578125,-0.3584249019622803,0.15431971848011017,-0.37545275688171387
1772721537731627000,6.517626953125,0.28848087787628174,-0.013973532244563103,0.09582941234111786
1772721537750223400,6.536223388671875,0.5969675779342651,-0.6068177819252014,0.5918515920639038
1772721537768820000,6.554820068359375,0.36972591280937195,-1.2454769611358643,0.5417606830596924
1772721537787416600,6.57341650390625,-0.18829907476902008,-1.4131592512130737,-0.1430187225341797
1772721537806013000,6.592012939453125,-0.7179188132286072,-1.1636210680007935,-0.8833868503570557
1772721537824609500,6.610609619140625,-0.9356921315193176,-0.844444215297699,-1.145447850227356
1772721537843206100,6.6292060546875,-0.8492547869682312,-0.5442041754722595,-0.9887610077857971
1772721537861802500,6.647802490234375,-0.7087558507919312,-0.12301289290189743,-0.8733075857162476
1772721537880399000,6.666399169921875,-0.5853611826896667,0.2297615110874176,-0.821384072303772
1772721537898995700,6.68499560546875,-0.495258629322052,0.4866301417350769,-0.6463713049888611
1772721537917592000,6.703592041015625,-0.33460119366645813,0.6112465858459473,-0.46311184763908386
1772721537936188700,6.722188720703125,-0.11102467030286789,0.6365974545478821,-0.31039565801620483
1772721537954785000,6.740784912109375,0.16997312009334564,0.6872992515563965,-0.18028147518634796
1772721537973381600,6.759381591796875,0.3578140437602997,0.6640864014625549,-0.05566505342721939
1772721537991978200,6.777978271484375,0.29764387011528015,0.7361684441566467,0.11873684078454971
1772721538010574600,6.79657470703125,0.010537417605519295,0.9475276470184326,0.3090212345123291
1772721538029171200,6.815171142578125,-0.3770562708377838,1.2065342664718628,0.35941755771636963
1772721538047767800,6.833767822265625,-0.5285507440567017,1.7190498113632202,0.3187950551509857
1772721538066364200,6.8523642578125,-0.38469210267066956,2.040975570678711,0.1914297491312027
1772721538084960800,6.870960693359375,-0.19654574990272522,1.4511855840682983,0.27603453397750854
1772721538103557000,6.88955712890625,-0.08842267841100693,0.5431351661682129,0.7897717952728271
1772721538122153700,6.90815380859375,0.012980876490473747,-0.7464004158973694,1.1981348991394043
1772721538140750000,6.92675,0.19013166427612305,-1.527085542678833,0.900338351726532
1772721538159346700,6.9453466796875,0.11499529331922531,-0.5136609077453613,0.6187296509742737
1772721538177943300,6.963943359375,-0.2655734717845917,1.2175298929214478,0.43974629044532776
1772721538196540000,6.982539794921875,-0.3361283540725708,1.6423863172531128,-0.09934188425540924
1772721538215136300,7.00113623046875,-0.17883066833019257,0.9175952672958374,-0.3589594066143036
1772721538233732600,7.019732666015625,0.04260781779885292,-0.36369362473487854,-0.245338574051857
1772721538252329200,7.0383291015625,0.3480401933193207,-1.6700279712677002,0.17432554066181183
1772721538270925800,7.05692578125,0.6369792222976685,-2.3389248847961426,0.6508000493049622
1772721538289522200,7.075522216796875,0.6101012229919434,-2.0542619228363037,0.6355284452438354
1772721538308118800,7.094118896484375,0.32391104102134705,-1.4620285034179688,0.12179116904735565
1772721538326715100,7.112715087890625,-0.016646064817905426,-1.1908044815063477,-0.24778202176094055
1772721538345311700,7.131311767578125,-0.2701549530029297,-1.1309397220611572,-0.18455752730369568
1772721538363908000,7.149908203125,-0.453719824552536,-1.1211659908294678,-0.2450331300497055
1772721538382504700,7.168504638671875,-0.6430879235267639,-0.8456659317016602,-0.526030957698822
1772721538401101300,7.187101318359375,-0.7218894362449646,-0.27023130655288696,-0.8244383931159973
1772721538419697700,7.20569775390625,-0.5673406720161438,0.39255696535110474,-0.9017127752304077
1772721538438294300,7.224294189453125,-0.18493930995464325,0.9108757376670837,-0.7422770857810974
1772721538456890600,7.242890625,0.2744309902191162,0.9087377190589905,-0.5458840131759644
1772721538475487200,7.2614873046875,0.5294670462608337,0.4704422354698181,-0.3418551981449127
1772721538494083800,7.280083740234375,0.6024653911590576,-0.1297324001789093,-0.10758855938911438
1772721538512680200,7.29868017578125,0.5820014476776123,-0.5542834401130676,0.1966221034526825
1772721538531276500,7.317276611328125,0.6507236957550049,-0.4058432877063751,0.41011935472488403
1772721538549873200,7.335873046875,0.7451022863388062,0.07490729540586472,0.39423686265945435
1772721538568469800,7.3544697265625,0.7270817756652832,0.5694023370742798,0.27572908997535706
1772721538587066000,7.373066162109375,0.5535961985588074,0.7028762698173523,0.2775616943836212
1772721538605662700,7.391662841796875,0.2386954128742218,0.4762454628944397,0.5277107954025269
1772721538624259000,7.410259033203125,-0.14217877388000488,0.0193185992538929,0.9266055226325989
1772721538642855700,7.428855712890625,-0.356286883354187,-0.46540260314941406,1.1703405380249023
1772721538661452300,7.447452392578125,-0.17302745580673218,-0.09613484144210815,1.0875684022903442
1772721538680048600,7.466048583984375,0.3452913165092468,0.6384300589561462,0.8664353489875793
1772721538698645000,7.48464501953125,0.7289143800735474,0.30947935581207275,1.0304524898529053
1772721538717241600,7.50324169921875,0.6363683938980103,-0.9156099557876587,1.4959315061569214
1772721538735838200,7.521838134765625,0.5847502946853638,-1.2528072595596313,1.547855019569397
1772721538754434600,7.5404345703125,0.46166107058525085,-0.8868992924690247,1.2555562257766724
1772721538773031000,7.559031005859375,0.17944152653217316,0.09781472384929657,0.9449314475059509
1772721538791627500,7.57762744140625,-0.2283107042312622,0.9530254006385803,0.4797579348087311
1772721538810224000,7.59622412109375,-0.4445568323135376,1.5183807611465454,-0.0031306820455938578
1772721538828820500,7.614820556640625,-0.3556760251522064,1.2715914249420166,-0.3433823585510254
1772721538847417000,7.6334169921875,-0.07712167501449585,0.28351762890815735,-0.5324450135231018
1772721538866013400,7.652013427734375,0.187382772564888,-0.9064469933509827,-0.858646810054779
1772721538884609800,7.67060986328125,0.09697478264570236,-1.6260457038879395,-1.0971895456314087
1772721538903206400,7.689206298828125,-0.3110828995704651,-1.4562252759933472,-0.9881501197814941
1772721538921803000,7.707802978515625,-0.6861538887023926,-0.9168316721916199,-0.8891900181770325
1772721538940399400,7.7263994140625,-0.8596394658088684,-0.2574031352996826,-0.812221109867096
1772721538958995700,7.74499560546875,-0.8184061050415039,0.27313292026519775,-0.6772199869155884
1772721538977592300,7.76359228515625,-0.49770209193229675,0.5205331444740295,-0.5306124091148376
1772721538996189000,7.78218896484375,-0.02153298258781433,0.6579777002334595,-0.40752315521240234
1772721539014785300,7.800785400390625,0.4228711426258087,0.7236456871032715,-0.2975675165653229
1772721539033382000,7.8193818359375,0.7780889868736267,0.755105197429657,-0.18119776248931885
1772721539051978200,7.837978271484375,1.041066288948059,0.7373901605606079,-0.049861837178468704
1772721539070574600,7.85657470703125,1.2505929470062256,0.8504001498222351,0.11354449391365051
1772721539089171200,7.875171142578125,1.4436261653900146,0.9215658903121948,0.29161158204078674
1772721539107767800,7.893767822265625,1.5465569496154785,0.8739184141159058,0.4324159026145935
1772721539126364200,7.9123642578125,1.5218168497085571,0.7251728773117065,0.4382191300392151
1772721539144960500,7.93096044921875,1.3574942350387573,0.5211440324783325,0.29649847745895386
1772721539163557000,7.94955712890625,1.0065524578094482,0.2926805913448334,0.07597630470991135
1772721539182153500,7.968153564453125,0.5884155035018921,-0.027717988938093185,-0.044669486582279205
1772721539200750000,7.98675,0.2854265570640564,0.05261072888970375,0.02893971838057041
1772721539219346400,8.005346435546874,0.20693044364452362,0.5953640937805176,0.08147408813238144
1772721539237942800,8.02394287109375,0.4182896614074707,1.1860703229904175,-0.11430807411670685
1772721539256539400,8.042539306640625,0.5838339924812317,1.125900149345398,-0.25236350297927856
1772721539275136000,8.061135986328125,0.13179408013820648,0.053832460194826126,-0.1417969912290573
1772721539293732400,8.079732421875,-0.523969292640686,-1.8099160194396973,-0.5657371282577515
1772721539312329000,8.098328857421874,-0.8700241446495056,-1.6342923641204834,-0.6503419280052185
1772721539330925300,8.11692529296875,-1.1739293336868286,-1.103756308555603,-0.812526524066925
1772721539349521700,8.135521728515625,-1.2731949090957642,-0.815122663974762,-0.8387936949729919
1772721539368118300,8.1541181640625,-1.085353970527649,0.4197404682636261,-0.26702427864074707
1772721539386714600,8.172714599609375,-0.7704532146453857,1.0003674030303955,-0.1326340138912201
1772721539405311200,8.191311279296874,-0.47204574942588806,0.19249875843524933,-0.235564723610878
1772721539423907600,8.209907470703126,-0.10277800261974335,-1.5420517921447754,-0.26946771144866943
1772721539442504000,8.22850390625,0.04505127668380737,-2.787605047225952,-0.36201372742652893
1772721539461100500,8.2471005859375,-0.04413498193025589,-2.7628650665283203,-0.5009855031967163
1772721539479697000,8.26569677734375,-0.1977674663066864,-1.7369176149368286,-0.1888335794210434
1772721539498293500,8.28429345703125,0.09269873052835464,-0.17921245098114014,0.35300347208976746
1772721539516889900,8.302889892578126,0.8972076177597046,0.8464295268058777,0.6504946351051331
1772721539535486500,8.321486572265625,1.1250602006912231,1.1365902423858643,0.5286270976066589
1772721539554082800,8.340082763671875,0.7786998748779297,1.3342050313949585,0.12362375855445862
1772721539572679400,8.358679443359375,0.5710058808326721,1.6313908100128174,-0.1885281354188919
1772721539591275800,8.37727587890625,0.6940951347351074,1.300912857055664,-0.3058141767978668
1772721539609872400,8.395872314453126,0.7646499872207642,0.37056586146354675,-0.4203513264656067
1772721539628468700,8.41446875,0.42073312401771545,-0.08116865903139114,-0.24258968234062195
1772721539647065000,8.433065185546875,-0.11804962158203125,-0.13095413148403168,0.4574613571166992
1772721539665661700,8.45166162109375,-0.5945241451263428,-0.2372446060180664,0.8517745733261108
1772721539684258000,8.470258056640626,-0.8345940113067627,-0.09552398324012756,0.8404735922813416
1772721539702854700,8.488854736328125,-0.6528617143630981,0.385532021522522,0.47761988639831543
1772721539721451000,8.507450927734375,-0.35873034596443176,1.2990802526474,0.17982332408428192
1772721539740047600,8.526047607421875,-0.04566214233636856,1.8546618223190308,0.289168119430542
1772721539758644000,8.54464404296875,-0.09880737960338593,1.7056108713150024,0.6453022956848145
1772721539777240300,8.563240234375,-0.2597702443599701,1.080085277557373,0.7372374534606934
1772721539795837000,8.5818369140625,-0.06887500733137131,-0.18684826791286469,0.5527562499046326
1772721539814433300,8.600433349609375,0.23686282336711884,-1.1727839708328247,0.5759690999984741
1772721539833029600,8.619029541015625,0.38072147965431213,-0.7708349823951721,0.6419425010681152
1772721539851626200,8.637626220703124,0.2652680277824402,-0.1966221034526825,0.4119519293308258
1772721539870222600,8.65622265625,-0.2799287736415863,-0.21006113290786743,0.10041090101003647
1772721539888819000,8.67481884765625,-0.901178240776062,-0.3615556061267853,0.14805835485458374
1772721539907415600,8.69341552734375,-0.9558506608009338,0.06971494108438492,0.03138317912817001
1772721539926012000,8.712011962890625,-0.5432115197181702,0.24258968234062195,-0.2801578640937805
1772721539944608500,8.7306083984375,-0.21639885008335114,-0.3914879560470581,-0.2923751473426819
1772721539963204900,8.749204833984376,0.002901607658714056,-1.3496294021606445,-0.0022143847309052944
1772721539981801500,8.767801513671875,-0.0001527161948615685,-2.054567337036133,0.048792824149131775
1772721540000397800,8.786397705078125,-0.26190826296806335,-2.1480295658111572,-0.3876700699329376
1772721540018994200,8.804994140625,-0.521831214427948,-1.620547890663147,-1.137201189994812
1772721540037590800,8.8235908203125,-0.5477929711341858,-0.8591049313545227,-1.6659046411514282
1772721540056187100,8.842187255859375,-0.5954404473304749,-0.13187043368816376,-1.6536873579025269
1772721540074783500,8.860783447265625,-0.6708822250366211,0.535193920135498,-1.0709223747253418
1772721540093380000,8.879380126953125,-0.5667297840118408,0.9948696494102478,-0.25297439098358154
1772721540111976400,8.8979765625,-0.25121814012527466,1.318627953529358,0.36949682235717773
1772721540130572800,8.91657275390625,0.16844595968723297,1.4493530988693237,0.4522690176963806
1772721540149169400,8.93516943359375,0.32910341024398804,1.0498474836349487,0.04909825697541237
1772721540167765800,8.953765869140625,0.2903134822845459,0.377285361289978,-0.11430807411670685
1772721540186362400,8.9723623046875,0.30894485116004944,-0.30138540267944336,0.04482220485806465
1772721540204958700,8.990958740234374,0.27840161323547363,-0.696309506893158,0.22350014746189117
1772721540223555000,9.00955517578125,0.21395538747310638,-0.826423704624176,0.3493382930755615
1772721540242151700,9.028151611328125,0.05543597787618637,-0.7027235627174377,0.5173261165618896
1772721540260748000,9.046748046875,-0.08048143237829208,-0.7183006405830383,0.6718748807907104
1772721540279344400,9.065344482421875,-0.12751802802085876,-0.15722131729125977,0.5997928380966187
1772721540297941000,9.08394091796875,0.20723587274551392,1.0559561252593994,0.48647743463516235
1772721540316537300,9.102537353515626,0.5374082922935486,1.810374140739441,0.3701077103614807
1772721540335133700,9.1211337890625,0.6241511106491089,0.9023236632347107,0.24365869164466858
1772721540353730300,9.139730224609375,0.3605629503726959,-1.373453140258789,0.5191587209701538
1772721540372326700,9.15832666015625,-0.054214250296354294,-1.889939308166504,1.3184752464294434
1772721540390923000,9.176923095703126,0.12996147572994232,0.4295142889022827,1.2638028860092163
1772721540409519600,9.19551953125,0.5193877816200256,2.3867249488830566,0.15447242558002472
1772721540428116000,9.214115966796875,0.4130973219871521,2.4783546924591064,-0.6478984355926514
1772721540446712300,9.23271240234375,-0.009926552884280682,0.9792925715446472,-0.7254782915115356
1772721540465309000,9.251308837890624,-0.4912880063056946,-1.0081559419631958,-0.43165233731269836
1772721540483905300,9.2699052734375,-0.6104066371917725,-2.5148539543151855,-0.251752644777298
1772721540502501600,9.288501708984375,-0.5551233887672424,-2.535317897796631,-0.2645808160305023
1772721540521098200,9.30709814453125,-0.6968439817428589,-1.7732640504837036,-0.5495492219924927
1772721540539694600,9.325694580078125,-0.8358157277107239,-0.6941714882850647,-0.9069051146507263
1772721540558291000,9.344291015625,-0.8468112945556641,0.023594651371240616,-1.2453242540359497
1772721540576887600,9.362887451171876,-0.6724094152450562,0.10422880202531815,-1.3769655227661133
1772721540595484000,9.38148388671875,-0.4335612654685974,-0.13187043368816376,-1.180572509765625
1772721540614080300,9.400080322265625,-0.1000291109085083,-0.32276567816734314,-0.8357393741607666
1772721540632676900,9.4186767578125,0.31261005997657776,-0.20456334948539734,-0.38583746552467346
1772721540651273200,9.437273193359376,0.6406444311141968,0.22609633207321167,0.014889828860759735
1772721540669869600,9.45586962890625,0.7829759120941162,0.5235874652862549,0.1559995859861374
1772721540688466000,9.4744658203125,0.687986433506012,0.4301251769065857,0.04818195849657059
1772721540707062500,9.4930625,0.4488328993320465,0.16684244573116302,-0.11888955533504486
1772721540725659000,9.511658935546874,0.18127411603927612,-0.013362666592001915,-0.11827868968248367
1772721540744255200,9.530255126953126,-0.016340631991624832,0.15676318109035492,0.0628427118062973
1772721540762851800,9.548851806640625,-0.09544762223958969,0.4264599680900574,0.256792277097702
1772721540781448200,9.5674482421875,-0.11866047978401184,0.5095375776290894,0.36766424775123596
1772721540800044500,9.58604443359375,-0.21120649576187134,0.3360520005226135,0.4956403970718384
1772721540818641200,9.60464111328125,-0.3718639314174652,-0.03535379841923714,0.761366605758667
1772721540837237500,9.623237548828126,-0.5209149122238159,-0.6330850124359131,1.077183723449707
1772721540855833900,9.641833740234375,-0.6882919073104858,-1.5130356550216675,1.4464514255523682
1772721540874430200,9.66043017578125,-0.5303833484649658,-1.7485240697860718,1.779983639717102
1772721540893026600,9.679026611328124,-0.0032070400193333626,-0.5759690999984741,1.5032618045806885
1772721540911623200,9.697623046875,0.1611155867576599,0.8916335105895996,0.6758455038070679
1772721540930219500,9.716219482421875,-0.48273590207099915,1.329928994178772,-0.03581194952130318
1772721540948816000,9.73481591796875,-1.0169371366500854,1.0953569412231445,-0.0058795735239982605
1772721540967412500,9.75341259765625,-0.7573196291923523,0.8696423768997192,0.23083053529262543
1772721540986008800,9.7720087890625,0.0007635809597559273,0.5205331444740295,0.2430478185415268
1772721541004605200,9.790605224609376,0.7417425513267517,0.10056361556053162,0.46662431955337524
1772721541023201500,9.809201416015625,1.3135119676589966,-0.7439569234848022,0.8215367794036865
1772721541041798000,9.8277978515625,1.327561855316162,-1.3777291774749756,0.8096249103546143
1772721541060394500,9.84639453125,0.9524909257888794,-1.59122633934021,0.06742420047521591
1772721541078990800,9.864990966796874,0.46807512640953064,-1.3587923049926758,-0.8714749813079834
1772721541097587200,9.883587158203126,0.064598947763443,-0.8722385764122009,-1.3372594118118286
1772721541116183800,9.902183837890625,-0.0847574844956398,-0.4211149215698242,-1.293887972831726
1772721541134780200,9.9207802734375,-0.16325360536575317,-0.23907721042633057,-1.1378120183944702
1772721541153376500,9.93937646484375,-0.24816381931304932,-0.0524580143392086,-1.0419062376022339
1772721541171972900,9.957972900390626,-0.23228132724761963,0.32475098967552185,-0.8794162273406982
1772721541190569500,9.976569580078126,-0.027336198836565018,0.7783181071281433,-0.5345830321311951
1772721541209165800,9.995165771484375,0.3358229100704193,1.1301761865615845,-0.08437569439411163
1772721541227762200,10.01376220703125,0.6012436747550964,1.3079378604888916,0.18532110750675201
1772721541246358500,10.032358642578124,0.6788234710693359,1.2569305896759033,0.19417864084243774
1772721541264955000,10.050954833984376,0.5612320303916931,1.0571779012680054,0.08300124853849411
1772721541283551500,10.069551513671875,0.29856017231941223,0.8427643179893494,0.0005345066892914474
1772721541302147800,10.08814794921875,-0.06154462695121765,0.5920043587684631,-0.06299543380737305
1772721541320744200,10.106744140625,-0.39018988609313965,0.3473529815673828,-0.13843722641468048
1772721541339340500,10.125340576171874,-0.5694786906242371,0.17081306874752045,-0.1527925580739975
1772721541357937200,10.143937255859376,-0.6611084342002869,0.08162680268287659,-0.034895651042461395
1772721541376533500,10.162533447265625,-0.7255546450614929,0.20074543356895447,0.23663374781608582
1772721541395129900,10.1811298828125,-0.7585413455963135,0.4515054225921631,0.6184242367744446
1772721541413726200,10.199726318359374,-0.8049670457839966,0.31039565801620483,1.0729076862335205
1772721541432322800,10.21832275390625,-0.6611084342002869,-0.22502730786800385,1.4882956743240356
1772721541450919200,10.236919189453126,-0.4436405599117279,-0.3966803252696991,1.4962369203567505
1772721541469515500,10.255515625,-0.2851211428642273,-0.023747367784380913,0.6535489559173584
1772721541488111900,10.27411181640625,-0.30741769075393677,-0.34811657667160034,-0.2972620725631714
1772721541506708200,10.292708251953124,-0.38530296087265015,-0.9342412948608398,-0.2300669401884079
1772721541525304600,10.3113046875,-0.5816959738731384,-1.3691771030426025,0.2900844216346741
1772721541543901000,10.32990087890625,-0.5636754631996155,-1.0316742658615112,-0.04741837829351425
1772721541562497500,10.34849755859375,-0.3584249019622803,-0.2008981555700302,-0.6967676281929016
1772721541581094000,10.367093994140625,-0.07864884287118912,-0.014889828860759735,-0.7419716119766235
1772721541599690200,10.385690185546874,0.22495095431804657,-0.5613083839416504,-0.32475098967552185
1772721541618286600,10.40428662109375,0.1314886510372162,-1.1620938777923584,-0.10881029069423676
1772721541636883000,10.422883056640625,-0.3006981909275055,-1.6538400650024414,-0.4508945643901825
1772721541655479600,10.4414794921875,-0.5590940117835999,-1.4947097301483154,-0.8268818259239197
1772721541674076000,10.460075927734374,-0.5795579552650452,-0.4339430630207062,-1.265788197517395
1772721541692672300,10.47867236328125,-0.4332558512687683,0.1778380125761032,-1.4157555103302002
1772721541711268600,10.4972685546875,-0.5007563829421997,0.32902705669403076,-1.0889428853988647
1772721541729865000,10.515864990234375,-0.8217658400535583,0.23892448842525482,-0.6827177405357361
1772721541748461600,10.534461669921875,-0.9769254922866821,0.23892448842525482,-0.4081340432167053
1772721541767058000,10.553057861328124,-1.152854561805725,0.15126539766788483,-0.43256860971450806
1772721541785654300,10.571654296875,-1.0511455535888672,0.010461059398949146,-0.5581013560295105
1772721541804250600,10.590250732421875,-0.6659952998161316,0.0022143847309052944,-0.4817432463169098
1772721541822847000,10.608846923828125,-0.20173808932304382,0.7535780668258667,-0.07460185885429382
1772721541841443300,10.627443359375,0.012370011769235134,1.1686606407165527,0.24610215425491333
1772721541860039700,10.646039794921874,0.039248060435056686,1.0834450721740723,0.4571559429168701
1772721541878636000,10.664635986328125,0.03649916872382164,0.9536362886428833,0.5774962902069092
1772721541897232600,10.683232666015625,0.05543597787618637,0.931950569152832,0.6468294262886047
1772721541915829000,10.7018291015625,0.12476912885904312,0.7462477087974548,0.7396808862686157
1772721541934425300,10.72042529296875,0.19501857459545135,0.46830421686172485,0.8511636853218079
1772721541953021700,10.739021728515626,0.3040579557418823,0.45944666862487793,0.7564796805381775
1772721541971618000,10.7576181640625,0.31810784339904785,0.5190060138702393,0.6370556354522705
1772721541990214400,10.77621435546875,0.25213444232940674,-0.5051088333129883,0.4589885175228119
1772721542008810800,10.794810791015625,0.09330959618091583,-1.2958732843399048,0.2580140233039856
1772721542027407400,10.813407470703124,-0.04810560122132301,-1.0371720790863037,-0.10270164161920547
1772721542046003700,10.832003662109376,-0.49739664793014526,-0.1404225379228592,-0.6940187215805054
1772721542064600000,10.85060009765625,-0.7533490061759949,0.4615846872329712,-1.0501528978347778
1772721542083196400,10.869196533203125,-0.5264127254486084,0.43898269534111023,-1.0684788227081299
1772721542101792800,10.887792724609374,0.013897174037992954,0.09384410083293915,-1.0306051969528198
1772721542120389000,10.90638916015625,0.45310893654823303,-0.4434114694595337,-0.829936146736145
1772721542138985500,10.9249853515625,0.5755873322486877,-1.271133303642273,-0.5828413367271423
1772721542157581800,10.943581787109375,0.2735147178173065,-1.6184098720550537,-0.1726456582546234
1772721542176178400,10.962178466796875,-0.2542724609375,-1.276936411857605,0.08758273720741272
1772721542194774800,10.98077490234375,-0.43722647428512573,-1.2179880142211914,0.000839939049910754
1772721542213371100,10.99937109375,-0.18280129134655,-1.046640396118164,0.09949459880590439
1772721542231967500,11.017967529296875,0.13240493834018707,-0.6905062794685364,0.4699840843677521
1772721542250563800,11.036563720703125,0.19410228729248047,-0.083306685090065,0.5930733680725098
1772721542269160200,11.05516015625,0.07528908550739288,0.40660688281059265,0.4428006112575531
1772721542287756500,11.073756591796876,-0.2637408673763275,0.9563851952552795,0.41470083594322205
1772721542306353000,11.092352783203125,-0.5749764442443848,1.1448369026184082,0.45043641328811646
1772721542324949200,11.11094921875,-0.6546943187713623,1.1368956565856934,0.5518399477005005
1772721542343545600,11.129545654296875,-0.5099193453788757,1.170798659324646,0.6330850124359131
1772721542362142000,11.148141845703124,-0.16478078067302704,1.3919317722320557,0.5558105707168579
1772721542380738300,11.16673828125,0.07376192510128021,1.097800374031067,0.6129264235496521
1772721542399334700,11.185334716796875,0.07834340631961823,-0.09155336022377014,0.35727953910827637
1772721542417931300,11.20393115234375,0.06246092543005943,-0.5154935121536255,0.4180605709552765
