time,seconds_elapsed,z,y,x
1772721310059192000,0.089192138671875,0,0,0
1772721310077788400,0.107788330078125,0.20867443084716797,-0.0358172208070755,0.009981334209442139
1772721310096384800,0.126384765625,0.19580364227294922,-0.0242377370595932,-0.02113395929336548
1772721310114981400,0.1449814453125,-0.02579784393310547,-0.031209796667099,0.0027438700199127197
1772721310133577700,0.16357763671875,-0.07683944702148438,-0.05662786588072777,-0.04266178607940674
1772721310152174000,0.182174072265625,0.13551807403564453,-0.0277472585439682,-0.07828673720359802
1772721310170770400,0.2007705078125,0.22881126403808594,-0.02974589727818966,0.030555427074432373
1772721310189366800,0.21936669921875,0.08432579040527344,-0.027435995638370514,0.11030781269073486
1772721310207963400,0.23796337890625,-0.20129108428955078,-0.059637635946273804,0.18510451912879944
1772721310226559700,0.256559814453125,-0.005542755126953125,-0.08432435989379883,0.10728435218334198
1772721310245156000,0.275156005859375,0.2608757019042969,-0.044883906841278076,0.097994863986969
1772721310263752700,0.293752685546875,-0.059810638427734375,0.03418305888772011,0.11529228091239929
1772721310282349000,0.31234912109375,-0.10294818878173828,0.05992572754621506,0.032688409090042114
1772721310300945400,0.3309453125,-0.0274658203125,0.04685712233185768,-0.021960556507110596
1772721310319542000,0.3495419921875,0.15044212341308594,0.04074110835790634,-0.10932865738868713
1772721310338138400,0.368138427734375,0.17621421813964844,0.04984110966324806,-0.13776922225952148
1772721310356734700,0.386734619140625,-0.05253028869628906,0.06343355029821396,-0.09956026077270508
1772721310375331000,0.4053310546875,0.001277923583984375,0.05267609283328056,-0.10566651821136475
1772721310393927400,0.423927490234375,0.23380374908447266,0.09622335433959961,-0.029737502336502075
1772721310412524000,0.44252392578125,0.19798564910888672,0.006531979888677597,0.12328588962554932
1772721310431120400,0.461120361328125,-0.068634033203125,0.002994455397129059,0.18026036024093628
1772721310449716700,0.479716796875,-0.2998828887939453,0.007545366883277893,0.16774974763393402
1772721310468313000,0.49831298828125,-0.23056411743164062,0.023001469671726227,-0.04543107748031616
1772721310486909700,0.51690966796875,0.06894779205322266,-0.020318549126386642,-0.1565352976322174
1772721310505506000,0.535506103515625,0.011700630187988281,0.029238209128379822,-0.14061900973320007
1772721310524102400,0.554102294921875,-0.16410350799560547,-0.03962088003754616,-0.11527645587921143
1772721310542699000,0.572698974609375,-0.2183237075805664,-0.025622859597206116,-0.09411172568798065
1772721310561295400,0.59129541015625,-0.13675689697265625,0.016769852489233017,0.02434702217578888
1772721310579891700,0.6098916015625,-0.03628826141357422,0.03342743217945099,0.0026221126317977905
1772721310598488000,0.628488037109375,0.12019920349121094,0.02308623492717743,-0.03333723545074463
1772721310617084400,0.64708447265625,0.13773155212402344,0.010715465992689133,-0.03471986949443817
1772721310635680800,0.6656806640625,-0.018387794494628906,0.02516467124223709,-0.01175042986869812
1772721310654277400,0.68427734375,-0.038437843322753906,0.00659560039639473,-0.007617354393005371
1772721310672873700,0.702873779296875,0.1077117919921875,-0.011328630149364471,-0.04428917169570923
1772721310691470000,0.721469970703125,0.22246837615966797,-0.015943553298711777,0.002405032515525818
1772721310710066700,0.740066650390625,0.10721397399902344,0.01958462968468666,0.06010071933269501
1772721310728663000,0.7586630859375,-0.09377765655517578,-0.017562227323651314,0.027353644371032715
1772721310747259400,0.77725927734375,-0.1600790023803711,0.0049390047788619995,-0.03366661071777344
1772721310765855700,0.795855712890625,-0.032416343688964844,-0.036664292216300964,-0.022429361939430237
1772721310784452000,0.8144521484375,0.02051544189453125,-0.0208414476364851,0.003316059708595276
1772721310803048400,0.83304833984375,-0.0012454986572265625,-0.006462940946221352,-0.066154345870018
1772721310821645000,0.85164501953125,0.003490447998046875,-0.02128174901008606,-0.03929358720779419
1772721310840241400,0.870241455078125,-0.09722423553466797,0.033975087106227875,-0.04925587773323059
1772721310858837800,0.888837646484375,-0.07367134094238281,0.08120328933000565,-0.06835991144180298
1772721310877434000,0.90743408203125,0.0757589340209961,0.00510874018073082,0.02494318038225174
1772721310896030700,0.92603076171875,0.20894908905029297,-0.037830233573913574,0.0006401166319847107
1772721310914627000,0.944626953125,-0.036513328552246094,0.052123524248600006,0.015995755791664124
1772721310933223400,0.963223388671875,0.01905059814453125,0.0294880960136652,-0.039125680923461914
1772721310951820000,0.981820068359375,0.07135486602783203,-0.019654953852295876,0.032006293535232544
1772721310970416400,1.00041650390625,-0.11980724334716797,-0.08505789935588837,-0.017308861017227173
1772721310989012700,1.0190126953125,-0.09917259216308594,-0.09267549216747284,-0.040055230259895325
1772721311007609000,1.037609130859375,-0.041049957275390625,-0.0773148462176323,0.0749010294675827
1772721311026205400,1.056205322265625,0.07967185974121094,-0.10573884099721909,0.05411192774772644
1772721311044801800,1.0748017578125,0.12285041809082031,-0.10801784694194794,0.05536060035228729
1772721311063398400,1.0933984375,0.03176403045654297,-0.11025485396385193,0.056406304240226746
1772721311081994800,1.111994873046875,-0.01835918426513672,-0.10934768617153168,0.1433948278427124
1772721311100591000,1.130591064453125,-0.05851268768310547,-0.08081590384244919,0.017902851104736328
1772721311119187500,1.1491875,-0.029809951782226562,0.0038642408326268196,-0.11396090686321259
1772721311137784000,1.1677841796875,0.0682220458984375,0.10220625251531601,-0.23073355853557587
1772721311156380400,1.18638037109375,0.12400054931640625,0.017312126234173775,-0.2016785740852356
1772721311174976800,1.204976806640625,0.04863452911376953,-0.0304311104118824,-0.2090095728635788
1772721311193573000,1.223572998046875,-0.052178382873535156,-0.03811587393283844,-0.07932139933109283
1772721311212169700,1.242169677734375,-0.11374282836914062,-0.040774885565042496,0.12731358408927917
1772721311230766000,1.26076611328125,-0.17764949798583984,-0.029403558000922203,0.16851629316806793
1772721311249362400,1.279362548828125,-0.11512947082519531,-0.011123556643724442,0.18453559279441833
1772721311267958800,1.297958740234375,0.06681156158447266,-0.12603408098220825,0.11385539919137955
1772721311286555100,1.31655517578125,0.058348655700683594,-0.0793316662311554,0.026117846369743347
1772721311305151500,1.3351513671875,-0.05819988250732422,-0.01644042693078518,0.02060200273990631
1772721311323748000,1.353748046875,-0.14329910278320312,0.03188146650791168,-0.05226591229438782
1772721311342344400,1.372344482421875,0.0006580352783203125,0.022844618186354637,-0.12391696870326996
1772721311360940800,1.39094091796875,0.1521463394165039,0.004241876304149628,-0.047736719250679016
1772721311379537200,1.409537109375,0.04307746887207031,-0.016705244779586792,0.0596366822719574
1772721311398133800,1.4281337890625,-0.0899200439453125,0.012640740722417831,0.0009187906980514526
1772721311416730000,1.446730224609375,0.019791603088378906,-0.02358749881386757,0.014870941638946533
1772721311435326500,1.465326416015625,0.12348556518554688,-0.03758165240287781,0.03500056266784668
1772721311453922800,1.4839228515625,-0.03219127655029297,-0.007865780964493752,0.11956958472728729
1772721311472519400,1.50251953125,-0.03727245330810547,-0.02285493165254593,0.018979132175445557
1772721311491115800,1.52111572265625,0.12167644500732422,-0.04608020931482315,-0.024363920092582703
1772721311509712100,1.539712158203125,0.06235980987548828,-0.04822755604982376,-0.007565602660179138
1772721311528308500,1.55830859375,-0.08709335327148438,-0.03697041794657707,0.017622724175453186
1772721311546904800,1.57690478515625,-0.19460582733154297,-0.016761217266321182,0.03833755850791931
1772721311565501200,1.595501220703125,-0.1550769805908203,0.0006160794291645288,0.02774295210838318
1772721311584097800,1.614097900390625,0.01119232177734375,-0.024592017754912376,-0.007180392742156982
1772721311602694100,1.632694091796875,0.20142364501953125,-0.03648264706134796,-0.1284812092781067
1772721311621290500,1.65129052734375,0.22614574432373047,0.022944120690226555,-0.14257460832595825
1772721311639886800,1.669886962890625,-0.010441780090332031,0.039326444268226624,0.000013142824172973633
1772721311658483500,1.6884833984375,-0.14598369598388672,-0.013018075376749039,0.013813942670822144
1772721311677079800,1.707079833984375,-0.022840499877929688,-0.05916788429021835,-0.014493584632873535
1772721311695676200,1.72567626953125,0.16752243041992188,-0.04791127145290375,0.04898151755332947
1772721311714272500,1.7442724609375,0.035254478454589844,-0.015224326401948929,0.047289639711380005
1772721311732868900,1.762868896484375,-0.09405517578125,0.0326363667845726,0.07138752937316895
1772721311751465200,1.78146533203125,0.02567005157470703,-0.012907186523079872,0.06855139136314392
1772721311770061800,1.800061767578125,-0.0000286102294921875,0.05284944549202919,-0.025080665946006775
1772721311788658200,1.818658203125,-0.060507774353027344,0.028695393353700638,-0.05284962058067322
1772721311807254500,1.837254638671875,0.0207977294921875,0.022082064300775528,-0.08438563346862793
1772721311825851000,1.855850830078125,0.05250072479248047,-0.00480089895427227,-0.018520474433898926
1772721311844447200,1.874447265625,-0.018385887145996094,0.01642589271068573,0.025527000427246094
1772721311863043800,1.8930439453125,-0.0836629867553711,0.04592300206422806,0.06578421592712402
1772721311881640200,1.91164013671875,0.04078388214111328,0.0035389773547649384,0.0175158828496933
1772721311900236500,1.930236572265625,0.092742919921875,-0.025319088250398636,-0.002133503556251526
1772721311918833000,1.9488330078125,-0.026474952697753906,-0.002684459090232849,0.052302271127700806
1772721311937429200,1.96742919921875,-0.13377666473388672,0.01908411644399166,0.03799264132976532
1772721311956025900,1.98602587890625,-0.05425834655761719,0.006516819354146719,-0.04648566246032715
1772721311974622200,2.004622314453125,0.06708526611328125,0.027327917516231537,-0.07409165799617767
1772721311993218600,2.023218505859375,0.11680316925048828,0.046417683362960815,-0.03350690007209778
1772721312011815000,2.04181494140625,-0.028535842895507812,0.03681974485516548,-0.010190397500991821
1772721312030411300,2.060411376953125,-0.09950542449951172,0.07633648067712784,-0.03980989754199982
1772721312049007600,2.079007568359375,-0.08906841278076172,0.06850399821996689,-0.020595639944076538
1772721312067604000,2.09760400390625,-0.025237083435058594,0.07079408317804337,-0.009789526462554932
1772721312086200600,2.11620068359375,0.022539138793945312,0.068893663585186,0.02554754912853241
1772721312104797000,2.134796875,0.054653167724609375,0.03650996834039688,0.006898671388626099
1772721312123393300,2.153393310546875,-0.028955459594726562,0.017292536795139313,0.061248570680618286
1772721312141989600,2.17198974609375,-0.1171731948852539,0.02699495106935501,0.07423213124275208
1772721312160586200,2.190586181640625,0.05276679992675781,0.044973790645599365,0.04084166884422302
1772721312179182600,2.2091826171875,0.21527957916259766,0.07756409049034119,0.015781402587890625
1772721312197779000,2.227779052734375,0.0687265396118164,0.07641272991895676,-0.00853663682937622
1772721312216375300,2.246375244140625,-0.13598155975341797,0.031538765877485275,-0.013887256383895874
1772721312234971600,2.2649716796875,-0.06072044372558594,-0.02942361868917942,-0.03147900104522705
1772721312253568300,2.283568359375,0.09102249145507812,-0.025271419435739517,-0.04926106333732605
1772721312272164600,2.30216455078125,0.09246540069580078,0.0008351951837539673,-0.011953085660934448
1772721312290761000,2.320760986328125,0.02924060821533203,-0.012124426662921906,0.07802475988864899
1772721312309357300,2.339357421875,0.17673110961914062,-0.08753462135791779,0.16199737787246704
1772721312327953700,2.35795361328125,0.060665130615234375,-0.07322631776332855,0.054865509271621704
1772721312346550000,2.376550048828125,-0.18941116333007812,-0.038644835352897644,0.04552567005157471
1772721312365146400,2.395146484375,-0.14386749267578125,-0.02135222777724266,-0.05552056431770325
1772721312383742700,2.41374267578125,-0.011980056762695312,-0.035307228565216064,-0.11827251315116882
1772721312402339300,2.43233935546875,0.09021663665771484,-0.058204129338264465,-0.09987333416938782
1772721312420935700,2.450935791015625,0.17652511596679688,-0.06340054422616959,-0.005758315324783325
1772721312439532000,2.469531982421875,0.01629161834716797,-0.03299396112561226,0.10746470093727112
1772721312458128400,2.48812841796875,-0.01646709442138672,-0.03463296592235565,0.15943101048469543
1772721312476724700,2.506724853515625,0.014264106750488281,-0.05874666944146156,0.1179194450378418
1772721312495321300,2.5253212890625,0.02029132843017578,-0.054136116057634354,0.03007778525352478
1772721312513917700,2.543917724609375,-0.1343669891357422,-0.0019616950303316116,-0.024576514959335327
1772721312532514000,2.56251416015625,-0.16320228576660156,0.03166214004158974,-0.0779629647731781
1772721312551110400,2.5811103515625,-0.012777328491210938,0.014161267317831516,-0.10770413279533386
1772721312569706800,2.599706787109375,0.17905426025390625,0.006535574793815613,-0.06979721784591675
1772721312588303400,2.618303466796875,-0.03205108642578125,0.009193898178637028,-0.0776490569114685
1772721312606899700,2.636899658203125,-0.08623695373535156,0.03074236959218979,-0.008694261312484741
1772721312625496000,2.65549609375,-0.08659172058105469,-0.0023658843711018562,0.021455109119415283
1772721312644092400,2.674092529296875,0.020063400268554688,-0.0404190793633461,0.06518605351448059
1772721312662688800,2.692688720703125,0.13022232055664062,-0.03314008563756943,0.0316014289855957
1772721312681285000,2.71128515625,0.05556011199951172,-0.006720127537846565,-0.00589868426322937
1772721312699881500,2.729881591796875,0.04920482635498047,0.008663301356136799,-0.06452062726020813
1772721312718477800,2.748477783203125,-0.011157989501953125,0.022799888625741005,0.015115737915039062
1772721312737074400,2.767074462890625,-0.045294761657714844,0.010735830292105675,-0.06409120559692383
1772721312755670800,2.7856708984375,0.023418426513671875,0.03167201578617096,-0.10487225651741028
1772721312774267100,2.80426708984375,-0.039359092712402344,0.04246308654546738,-0.03513646125793457
1772721312792863500,2.822863525390625,-0.0372772216796875,0.035150062292814255,-0.018172144889831543
1772721312811459800,2.8414599609375,-0.06956958770751953,0.004278924316167831,-0.04144743084907532
1772721312830056200,2.86005615234375,0.04036426544189453,-0.03068753331899643,-0.04588484764099121
1772721312848652800,2.87865283203125,0.019829750061035156,-0.06144069880247116,-0.03219166398048401
1772721312867249200,2.897249267578125,-0.15582275390625,-0.035225581377744675,-0.03466108441352844
1772721312885845500,2.915845458984375,-0.11280441284179688,-0.027005523443222046,0.025634765625
1772721312904441900,2.93444189453125,0.020409584045410156,-0.0525091178715229,0.06852130591869354
1772721312923038200,2.9530380859375,0.05008888244628906,-0.08945291489362717,-0.02933502197265625
1772721312941634600,2.971634521484375,0.1311044692993164,-0.05946451425552368,-0.006855040788650513
1772721312960231200,2.990231201171875,0.024596214294433594,0.0007638856768608093,-0.015817075967788696
1772721312978827500,3.00882763671875,-0.12899017333984375,0.01962864026427269,-0.014931529760360718
1772721312997423900,3.027423828125,-0.11257553100585938,0.013764314353466034,-0.031044721603393555
1772721313016020200,3.046020263671875,0.06067848205566406,-0.01228809542953968,-0.02877521514892578
1772721313034616600,3.064616455078125,0.02061748504638672,0.010148454457521439,0.00014418363571166992
1772721313053213000,3.083212890625,-0.11356067657470703,0.0421835295855999,0.02300119400024414
1772721313071809300,3.101809326171875,0.014202117919921875,-0.008218318223953247,0.020420730113983154
1772721313090405600,3.120405517578125,0.08985424041748047,0.0025740936398506165,0.01626470685005188
1772721313109002200,3.139002197265625,0.15601253509521484,-0.029851941391825676,-0.040365517139434814
1772721313127598600,3.1575986328125,0.05364227294921875,-0.04642381891608238,0.003414332866668701
1772721313146195000,3.17619482421875,-0.1278972625732422,-0.00945420190691948,-0.07238790392875671
1772721313164791300,3.194791259765625,-0.14133739471435547,-0.013520333915948868,0.022577255964279175
1772721313183387600,3.2133876953125,0.055988311767578125,-0.04648693650960922,0.04179719090461731
1772721313201984000,3.23198388671875,0.21853923797607422,-0.0503917932510376,0.05822327733039856
1772721313220580400,3.250580322265625,0.11787891387939453,-0.08623243868350983,0.02340477705001831
1772721313239177000,3.269177001953125,-0.12057209014892578,0.01385222002863884,0.04632878303527832
1772721313257773300,3.287773193359375,-0.2021617889404297,0.05501231178641319,0.009492933750152588
1772721313276369700,3.30636962890625,-0.02698040008544922,-0.013407951220870018,-0.005410373210906982
1772721313294966000,3.324966064453125,0.14608192443847656,-0.003748759627342224,-0.0879581868648529
1772721313313562400,3.343562255859375,0.07642269134521484,0.02539503201842308,-0.07236379384994507
1772721313332158700,3.36215869140625,-0.07767295837402344,0.034701257944107056,-0.009789973497390747
1772721313350755000,3.380755126953125,-0.03641510009765625,-0.0056762658059597015,0.0036733150482177734
1772721313369351700,3.3993515625,0.12073421478271484,-0.042440179735422134,0.011407941579818726
1772721313387948000,3.417947998046875,0.0036344528198242188,-0.03925221785902977,0.1087876409292221
1772721313406544400,3.43654443359375,-0.18023204803466797,0.03406957536935806,0.022397369146347046
1772721313425140700,3.455140625,-0.07242107391357422,0.04909627512097359,-0.02497658133506775
1772721313443737000,3.473737060546875,0.022214889526367188,0.05295341834425926,-0.027489691972732544
1772721313462333400,3.49233349609375,-0.0042724609375,0.056546080857515335,-0.08459591865539551
1772721313480929800,3.5109296875,0.10439109802246094,0.04828120023012161,-0.014429330825805664
1772721313499526400,3.5295263671875,0.04569435119628906,0.0965985506772995,0.0602898895740509
1772721313518122800,3.548122802734375,-0.1398601531982422,0.06400497257709503,0.126306414604187
1772721313536719000,3.566718994140625,-0.07952690124511719,0.0444193035364151,0.0948559045791626
1772721313555315500,3.5853154296875,0.14708995819091797,-0.018845025449991226,0.047790586948394775
1772721313573911800,3.603911865234375,0.17425155639648438,0.010555226355791092,0.05972433090209961
1772721313592508200,3.622508056640625,-0.08844280242919922,0.060643408447504044,0.05418214201927185
1772721313611104500,3.6411044921875,-0.21638965606689453,0.061125222593545914,-0.0058155059814453125
1772721313629700900,3.659700927734375,-0.020730972290039062,-0.02070859633386135,-0.0603238046169281
1772721313648297200,3.678297119140625,0.2257556915283203,-0.05341009795665741,-0.12146452069282532
1772721313666893600,3.6968935546875,0.22423553466796875,-0.032606348395347595,-0.05321025848388672
1772721313685490000,3.715489990234375,-0.17394065856933594,-0.019354255869984627,0.013295084238052368
1772721313704086500,3.73408642578125,-0.25310707092285156,-0.001950487494468689,0.021005064249038696
1772721313722683000,3.752682861328125,0.08898735046386719,-0.05886010825634003,0.037727534770965576
1772721313741279200,3.771279296875,0.2499675750732422,-0.040345288813114166,0.00670507550239563
1772721313759875600,3.78987548828125,-0.04609394073486328,0.024043284356594086,0.01648014783859253
1772721313778472000,3.808471923828125,-0.29922008514404297,0.06013432517647743,-0.06847107410430908
1772721313797068300,3.827068359375,-0.13001346588134766,0.037780698388814926,-0.01413455605506897
1772721313815664600,3.84566455078125,0.1937112808227539,-0.06972219049930573,-0.08757689595222473
1772721313834261200,3.86426123046875,0.2143850326538086,-0.04613792151212692,-0.006957203149795532
1772721313852857600,3.882857666015625,-0.04165935516357422,-0.03714296966791153,0.025759577751159668
1772721313871454000,3.901453857421875,-0.08886909484863281,-0.03225046396255493,0.09866538643836975
1772721313890050300,3.92005029296875,-0.0753021240234375,-0.08144976198673248,0.18608292937278748
1772721313908646700,3.938646728515625,0.020509719848632812,-0.07521286606788635,0.041839003562927246
1772721313927243000,3.957242919921875,0.20634841918945312,-0.05144256725907326,0.015351146459579468
1772721313945839400,3.97583935546875,0.17740154266357422,0.017287729308009148,0.028819531202316284
1772721313964435700,3.994435791015625,-0.06449222564697266,0.05464397743344307,0.008970677852630615
1772721313983032300,4.0130322265625,-0.2102651596069336,0.06670080125331879,0.005626291036605835
1772721314001628700,4.031628662109375,-0.1038503646850586,0.017675872892141342,0.034965306520462036
1772721314020225000,4.05022509765625,0.18534374237060547,-0.09284327179193497,0.0004336237907409668
1772721314038821400,4.0688212890625,0.10463523864746094,-0.06289094686508179,0.004792004823684692
1772721314057417700,4.087417724609375,-0.2447052001953125,0.034062664955854416,0.023606181144714355
1772721314076014000,4.10601416015625,-0.22126483917236328,-0.04819801449775696,-0.11507797241210938
1772721314094610400,4.1246103515625,0.21171283721923828,-0.02865815907716751,-0.04973164200782776
1772721314113206800,4.143206787109375,0.19626426696777344,-0.02301158756017685,-0.033265501260757446
1772721314131803100,4.16180322265625,-0.06033611297607422,0.02319926768541336,-0.029847413301467896
1772721314150399500,4.1803994140625,-0.10778999328613281,-0.008055124431848526,-0.10477393865585327
1772721314168995800,4.198995849609375,0.17296409606933594,-0.03582493215799332,-0.10057386755943298
1772721314187592400,4.217592529296875,0.021411895751953125,-0.0236152783036232,-0.0477430522441864
1772721314206188800,4.236188720703125,-0.1458740234375,-0.018547549843788147,-0.048129498958587646
1772721314224785200,4.25478515625,-0.2154216766357422,-0.03517710790038109,0.03410729765892029
1772721314243381500,4.273381591796875,-0.060563087463378906,-0.03022114932537079,-0.00789642333984375
1772721314261977900,4.291977783203125,0.08005905151367188,-0.04995933547616005,0.031048506498336792
1772721314280574200,4.31057421875,0.0716848373413086,-0.02213486284017563,-0.032576024532318115
1772721314299170600,4.329170654296875,-0.014628410339355469,-0.004536244552582502,-0.02256414294242859
1772721314317767000,4.347766845703125,0.14609050750732422,-0.05864913761615753,-0.0160520076751709
1772721314336363300,4.36636328125,0.11215782165527344,-0.04306607320904732,0.02235037088394165
1772721314354959600,4.384959716796875,-0.1867380142211914,-0.002237374195829034,0.06742942333221436
1772721314373556000,4.403555908203125,-0.18659496307373047,-0.0396009124815464,0.11086922883987427
1772721314392152300,4.42215234375,0.0892934799194336,-0.07605212181806564,0.0619240403175354
1772721314410748700,4.440748779296875,0.22684764862060547,-0.04610913246870041,-0.02050405740737915
1772721314429345300,4.45934521484375,0.07766151428222656,0.05058153718709946,-0.07002496719360352
1772721314447941600,4.477941650390625,-0.07294654846191406,0.05523653328418732,-0.04088836908340454
1772721314466538000,4.4965380859375,-0.10406780242919922,0.04374774172902107,-0.0681535005569458
1772721314485134300,4.51513427734375,0.039211273193359375,-0.0012949947267770767,-0.09183123707771301
1772721314503730700,4.533730712890625,0.04076671600341797,0.06417165696620941,0.021124929189682007
1772721314522327000,4.5523271484375,-0.09605884552001953,0.06861165910959244,0.04494595527648926
1772721314540923400,4.57092333984375,-0.06113433837890625,0.02883300557732582,-0.03518906235694885
1772721314559519700,4.589519775390625,-0.011397361755371094,0.009476211853325367,-0.06281310319900513
1772721314578116000,4.6081162109375,-0.0181732177734375,0.003619672730565071,-0.03936275839805603
1772721314596712400,4.62671240234375,0.03419971466064453,0.030482864007353783,-0.031447768211364746
1772721314615309000,4.64530908203125,0.10904693603515625,-0.037587299942970276,-0.002707153558731079
1772721314633905400,4.663905517578125,-0.09576797485351562,0.007399154826998711,0.013303160667419434
1772721314652501800,4.682501708984375,-0.10468387603759766,0.012995520606637001,-0.020429253578186035
1772721314671098000,4.70109814453125,-0.017408370971679688,-0.02515326626598835,0.04855981469154358
1772721314689694500,4.719694580078125,0.0004968643188476562,-0.0373598113656044,0.013917773962020874
1772721314708290800,4.738290771484375,0.12349224090576172,-0.17883814871311188,0.08739215135574341
1772721314726887200,4.75688720703125,-0.04167366027832031,-0.06197118014097214,-0.07346507906913757
1772721314745483500,4.7754833984375,-0.03175163269042969,-0.011711041443049908,0.0032024085521698
1772721314764079900,4.794079833984375,-0.0419769287109375,-0.02638302557170391,0.021224886178970337
1772721314782676200,4.81267626953125,-0.009378433227539062,-0.00674291979521513,0.026029109954833984
1772721314801272600,4.8312724609375,0.11170291900634766,-0.025708328932523727,0.0028021037578582764
1772721314819869000,4.849868896484375,0.17384815216064453,-0.08242279291152954,-0.030997037887573242
1772721314838465500,4.868465576171875,-0.010895729064941406,-0.022171873599290848,-0.034934014081954956
1772721314857062000,4.887061767578125,-0.18520164489746094,-0.01677667535841465,-0.005988419055938721
1772721314875658200,4.905658203125,-0.1401805877685547,-0.03838570415973663,0.0341416597366333
1772721314894254600,4.924254638671875,0.07204341888427734,-0.07726828008890152,-0.07151961326599121
1772721314912851000,4.942850830078125,0.2495899200439453,-0.04430977255105972,-0.0440945029258728
1772721314931447300,4.961447265625,-0.038463592529296875,0.029659099876880646,0.038916051387786865
1772721314950043600,4.980043701171875,-0.2791709899902344,0.029707955196499825,0.012300074100494385
1772721314968640000,4.998639892578125,-0.18858051300048828,0.027134671807289124,0.022046655416488647
1772721314987236400,5.017236328125,0.08268547058105469,-0.03568747639656067,0.01597544550895691
1772721315005832700,5.035832763671875,0.1853771209716797,-0.03552670776844025,0.06814372539520264
1772721315024429000,5.054428955078125,0.023641586303710938,0.02742634154856205,0.027804970741271973
1772721315043025400,5.073025390625,-0.05916881561279297,0.009975723922252655,0.020355790853500366
1772721315061622000,5.0916220703125,-0.008252143859863281,0.012544426135718822,0.02239200472831726
1772721315080218400,5.11021826171875,0.03730583190917969,0.013459829613566399,0.006414979696273804
1772721315098814700,5.128814697265625,0.05718517303466797,0.009463335387408733,0.0018310546875
1772721315117411000,5.1474111328125,0.00006771087646484375,-0.0055683571845293045,-0.04928755760192871
1772721315136007400,5.16600732421875,0.024713516235351562,0.021902818232774734,-0.06332859396934509
1772721315154603800,5.184603759765625,-0.05715370178222656,0.022755613550543785,-0.023740798234939575
1772721315173200100,5.2032001953125,-0.21226024627685547,0.06536613404750824,-0.021757423877716064
1772721315191796500,5.22179638671875,0.016785621643066406,0.02767171338200569,0.04377949237823486
1772721315210392800,5.240392822265625,0.11386680603027344,-0.033933430910110474,0.02591964602470398
1772721315228989200,5.2589892578125,0.009014129638671875,0.026214659214019775,0.041280597448349
1772721315247585500,5.27758544921875,-0.026709556579589844,0.033428966999053955,0.062007904052734375
1772721315266182000,5.296181884765625,-0.12240409851074219,0.05751020088791847,0.13828572630882263
1772721315284778200,5.3147783203125,0.07245826721191406,0.006414511241018772,-0.025080621242523193
1772721315303374600,5.33337451171875,0.125457763671875,-0.06902293860912323,0.012657225131988525
1772721315321971000,5.351970947265625,-0.07095527648925781,0.020806487649679184,-0.1183817982673645
1772721315340567600,5.370567626953125,-0.0006933212280273438,-0.025012921541929245,-0.02195948362350464
1772721315359164000,5.389163818359375,0.03645801544189453,-0.052496813237667084,0.02352568507194519
1772721315377760300,5.40776025390625,-0.02890300750732422,-0.04788224771618843,-0.028401434421539307
1772721315396356600,5.426356689453125,-0.013858795166015625,-0.05225437879562378,0.0298004150390625
1772721315414953000,5.444952880859375,-0.10224151611328125,-0.043651845306158066,0.10937994718551636
1772721315433549300,5.46354931640625,-0.15771961212158203,-0.03443653881549835,0.053370654582977295
1772721315452145700,5.482145751953125,-0.0012874603271484375,-0.06323876231908798,-0.04265674948692322
1772721315470742000,5.500741943359375,0.10909461975097656,-0.025511134415864944,-0.012117654085159302
1772721315489338400,5.51933837890625,-0.02157878875732422,0.026698734611272812,0.0590229332447052
1772721315507934700,5.537934814453125,-0.031805992126464844,0.02505277469754219,0.058977097272872925
1772721315526531000,5.556531005859375,0.04318428039550781,0.013961490243673325,0.055462151765823364
1772721315545127400,5.57512744140625,0.08037185668945312,0.0013605644926428795,0.04091474413871765
1772721315563723800,5.593723876953125,0.041778564453125,0.005114849656820297,0.03676789999008179
1772721315582320000,5.612320068359375,-0.09453773498535156,0.022465724498033524,0.02429330348968506
1772721315600916500,5.63091650390625,-0.02998638153076172,0.02162771113216877,0.0379466712474823
1772721315619512800,5.649512939453125,0.004570960998535156,-0.011556788347661495,0.04891699552536011
1772721315638109200,5.668109130859375,0.035025596618652344,-0.006125067360699177,0.065135657787323
1772721315656705500,5.68670556640625,0.03378486633300781,-0.014830591157078743,0.04979211091995239
1772721315675302000,5.705302001953125,0.06445693969726562,-0.04064037278294563,0.04424774646759033
1772721315693898200,5.723898193359375,0.08637714385986328,0.016883479431271553,0.05491161346435547
1772721315712494600,5.74249462890625,-0.014493942260742188,0.04059283435344696,0.02151384949684143
1772721315731091000,5.761091064453125,-0.08400535583496094,-0.018338153138756752,-0.049244076013565063
1772721315749687300,5.779687255859375,-0.0008211135864257812,0.008055562153458595,-0.1326175034046173
1772721315768284000,5.798283935546875,0.07022762298583984,0.05593814328312874,-0.13190394639968872
1772721315786880300,5.81688037109375,-0.04454517364501953,-0.0025558583438396454,-0.1303395926952362
1772721315805476600,5.8354765625,-0.03133106231689453,-0.03362548351287842,-0.079119473695755
1772721315824073000,5.854072998046875,-0.011806488037109375,-0.012752752751111984,0.12095332145690918
1772721315842669300,5.87266943359375,-0.10358619689941406,0.011645752936601639,0.22212648391723633
1772721315861265700,5.891265625,-0.11267375946044922,0.0015670694410800934,0.15521526336669922
1772721315879862000,5.909862060546875,0.19107341766357422,-0.017569541931152344,-0.028037160634994507
1772721315898458400,5.928458251953125,0.21468353271484375,-0.0038944166153669357,-0.08612272143363953
1772721315917054700,5.9470546875,-0.07420158386230469,-0.0001695491373538971,-0.0761270523071289
1772721315935651000,5.965651123046875,-0.32214832305908203,0.06171432510018349,0.021148681640625
1772721315954247400,5.984247314453125,-0.17859268188476562,0.02836049348115921,-0.019211560487747192
1772721315972843800,6.00284375,0.17446231842041016,0.046509869396686554,0.012095451354980469
1772721315991440100,6.021440185546875,0.0719451904296875,0.10104157030582428,-0.010106444358825684
1772721316010036500,6.040036376953125,-0.13389205932617188,0.033575255423784256,0.07135319709777832
1772721316028632800,6.0586328125,-0.09406852722167969,0.045242972671985626,-0.022196024656295776
1772721316047229200,6.077229248046875,0.12169933319091797,-0.021314295008778572,-0.005078136920928955
1772721316065825500,6.095825439453125,0.10911178588867188,-0.014321953058242798,0.019886165857315063
1772721316084422000,6.114421875,-0.05185508728027344,-0.05342608690261841,0.0660049319267273
1772721316103018200,6.133018310546875,-0.10734367370605469,-0.019687049090862274,-0.017216235399246216
1772721316121614600,6.151614501953125,0.051476478576660156,-0.0052106864750385284,-0.0371740460395813
1772721316140211000,6.1702109375,0.1103353500366211,-0.007780034095048904,-0.0922749936580658
1772721316158807300,6.188807373046875,0.023568153381347656,-0.039412256330251694,0.0018818974494934082
1772721316177403600,6.207403564453125,-0.031856536865234375,-0.0334867425262928,0.018705159425735474
1772721316196000000,6.226,0.01859760284423828,-0.036720532923936844,-0.02555781602859497
1772721316214596400,6.244596435546875,0.14082717895507812,0.012990422546863556,-0.01388499140739441
1772721316233192700,6.263192626953125,-0.0047016143798828125,0.05878439545631409,0.013918876647949219
1772721316251789000,6.2817890625,-0.1075143814086914,0.03053136169910431,-0.06092366576194763
1772721316270385400,6.300385498046875,0.1652364730834961,-0.09446679055690765,-0.09028545022010803
1772721316288981800,6.318981689453125,0.14546680450439453,-0.00923250988125801,-0.05681329965591431
1772721316307578000,6.337578125,-0.07637214660644531,-0.007593780755996704,-0.07361161708831787
1772721316326174500,6.356174560546875,-0.18338584899902344,0.024426154792308807,-0.0292813777923584
1772721316344770800,6.374770751953125,-0.0977792739868164,-0.005280621349811554,0.04224061965942383
1772721316363367200,6.3933671875,0.02789306640625,-0.07321855425834656,-0.019056081771850586
1772721316381963500,6.411963623046875,-0.007216453552246094,-0.06963906437158585,-0.048726797103881836
1772721316400559600,6.4305595703125,-0.1654672622680664,-0.007231499999761581,0.01933366060256958
1772721316419156000,6.449156005859375,-0.21840953826904297,0.02748662419617176,0.025730401277542114
1772721316437752300,6.46775244140625,-0.05894947052001953,-0.001196153461933136,-0.00669899582862854
1772721316456348700,6.4863486328125,0.14618587493896484,-0.008246250450611115,-0.08694338798522949
1772721316474945000,6.504945068359375,0.1891641616821289,0.006914088502526283,-0.00828021764755249
1772721316493541400,6.523541259765625,0.044402122497558594,0.009700430557131767,0.0017466545104980469
1772721316512137700,6.5421376953125,-0.034630775451660156,-0.007598826661705971,-0.05232137441635132
1772721316530734000,6.560734130859375,0.03950214385986328,-0.01963970810174942,-0.05247873067855835
1772721316549330400,6.579330322265625,0.07863712310791016,-0.042928509414196014,-0.005662024021148682
1772721316567926800,6.5979267578125,0.0069332122802734375,-0.04012422263622284,0.010222643613815308
1772721316586523100,6.616523193359375,-0.012849807739257812,-0.04159016162157059,0.01643344759941101
1772721316605119500,6.635119384765625,0.015776634216308594,-0.024824893102049828,-0.008671402931213379
1772721316623715800,6.6537158203125,-0.0035791397094726562,-0.02493232861161232,-0.03968685865402222
1772721316642312400,6.6723125,-0.12322521209716797,0.028643056750297546,-0.0403103232383728
1772721316660908500,6.690908447265625,-0.07897377014160156,-0.029689982533454895,-0.06633532047271729
1772721316679505000,6.7095048828125,0.05778026580810547,-0.04756578058004379,-0.12772849202156067
1772721316698101200,6.728101318359375,0.11717414855957031,-0.08206108212471008,-0.0620265007019043
1772721316716697600,6.746697509765625,0.0687408447265625,-0.07907845079898834,-0.018317222595214844
1772721316735294000,6.7652939453125,-0.14128684997558594,-0.04912624508142471,-0.1037757396697998
1772721316753890300,6.783890380859375,-0.05378532409667969,-0.13811063766479492,0.21309882402420044
1772721316772486700,6.802486572265625,-0.014683723449707031,-0.11390985548496246,0.07853657007217407
1772721316791083000,6.8210830078125,0.0863351821899414,-0.11708083748817444,0.008604317903518677
1772721316809679400,6.839679443359375,0.10980796813964844,-0.09403519332408905,0.03368067741394043
1772721316828275700,6.858275634765625,-0.013024330139160156,-0.06474855542182922,0.04297596216201782
1772721316846872000,6.8768720703125,-0.011247634887695312,-0.030843142420053482,-0.0094204843044281
1772721316865468400,6.895468505859375,0.02508544921875,-0.005289550870656967,0.08132809400558472
1772721316884064800,6.914064697265625,-0.04233360290527344,0.006551772356033325,0.08170026540756226
1772721316902661000,6.9326611328125,-0.04414081573486328,0.0039124637842178345,-0.04324600100517273
1772721316921257500,6.951257568359375,0.0841512680053711,0.006347008049488068,-0.060981184244155884
1772721316939853800,6.969853759765625,0.04319286346435547,0.03040231578052044,0.050520479679107666
1772721316958450000,6.988449951171875,-0.0202484130859375,0.013085246086120605,0.029306888580322266
1772721316977046300,7.00704638671875,-0.012412071228027344,-0.007374804466962814,-0.04586440324783325
1772721316995642600,7.025642578125,0.07220268249511719,0.04162697121500969,0.0073160529136657715
1772721317014239000,7.044239013671875,0.011876106262207031,0.06847397983074188,0.008356332778930664
1772721317032835300,7.06283544921875,0.009975433349609375,0.02903153747320175,-0.03447443246841431
1772721317051431700,7.081431640625,-0.008626937866210938,0.018027812242507935,-0.061287105083465576
1772721317070028000,7.100028076171875,-0.12525081634521484,0.0193483829498291,-0.041788727045059204
1772721317088624400,7.118624267578125,-0.08584022521972656,-0.0020510973408818245,-0.0701131522655487
1772721317107220700,7.137220703125,0.0007038116455078125,0.002672935836017132,-0.08842116594314575
1772721317125817000,7.155817138671875,0.029664993286132812,0.021287990733981133,-0.028548210859298706
1772721317144413400,7.174413330078125,0.031548500061035156,-0.035035621374845505,0.009007960557937622
1772721317163009800,7.193009765625,0.05943775177001953,-0.04050301015377045,0.005439013242721558
1772721317181606100,7.211606201171875,-0.01882171630859375,-0.04198775812983513,0.01718151569366455
1772721317200202500,7.230202392578125,-0.07672405242919922,-0.00217551551759243,0.02014613151550293
1772721317218798800,7.248798828125,-0.10276126861572266,0.017744582146406174,0.11581817269325256
1772721317237395200,7.267395263671875,0.000011444091796875,0.010246150195598602,-0.009751319885253906
1772721317255991600,7.285991455078125,0.12683582305908203,0.025838013738393784,-0.0704050064086914
1772721317274587600,7.304587646484375,0.11744976043701172,0.059412747621536255,-0.11774763464927673
1772721317293184000,7.32318408203125,0.038619041442871094,0.050411440432071686,0.010294884443283081
1772721317311780400,7.3417802734375,-0.014536857604980469,-0.01628461480140686,-0.03867232799530029
1772721317330376700,7.360376708984375,-0.13947200775146484,-0.033425427973270416,0.005948275327682495
1772721317348973000,7.37897314453125,-0.18490123748779297,-0.056211572140455246,0.023730337619781494
1772721317367569400,7.3975693359375,-0.027785301208496094,-0.10973145067691803,0.04393729567527771
1772721317386165800,7.416165771484375,0.16421985626220703,-0.08002851903438568,0.051141560077667236
1772721317404762000,7.43476220703125,-0.004626274108886719,-0.060577258467674255,0.05513530969619751
1772721317423358500,7.4533583984375,-0.1021566390991211,-0.05245477333664894,0.0029515326023101807
1772721317441954800,7.471954833984375,-0.09243583679199219,-0.02389422431588173,-0.0255279541015625
1772721317460551200,7.49055126953125,-0.07272720336914062,-0.009093654341995716,-0.055546730756759644
1772721317479147500,7.5091474609375,-0.06458759307861328,0.03237477317452431,-0.05803921818733215
1772721317497744000,7.527743896484375,-0.058582305908203125,-0.014126544818282127,-0.05071514844894409
1772721317516340000,7.546340087890625,0.0934438705444336,-0.03749965876340866,-0.15229111909866333
1772721317534936300,7.564936279296875,0.0702219009399414,-0.03788982704281807,-0.08043131232261658
1772721317553532700,7.58353271484375,-0.09722518920898438,0.0062388405203819275,0.04919937252998352
1772721317572129000,7.60212890625,-0.07695293426513672,-0.02089349739253521,0.14618486166000366
1772721317590725400,7.620725341796875,0.22924232482910156,-0.01582048460841179,0.12305751442909241
1772721317609321700,7.63932177734375,0.09094619750976562,0.06878989189863205,0.17938458919525146
1772721317627918000,7.65791796875,-0.04919910430908203,0.07817340642213821,0.06729692220687866
1772721317646514200,7.67651416015625,0.06661796569824219,0.03361103683710098,-0.024415522813796997
1772721317665110500,7.695110595703125,-0.061946868896484375,0.06419819593429565,-0.05431446433067322
1772721317683707000,7.713706787109375,-0.11154651641845703,0.01875104382634163,-0.07746458053588867
1772721317702303500,7.732303466796875,-0.049999237060546875,0.08398164063692093,-0.06564518809318542
1772721317720899600,7.750899658203125,0.11361980438232422,0.08620283007621765,-0.09085217118263245
1772721317739496000,7.769495849609375,0.2608976364135742,0.1260584443807602,-0.06106343865394592
1772721317758092300,7.78809228515625,0.09464263916015625,0.0493316724896431,-0.023947924375534058
1772721317776688600,7.806688720703125,-0.21430492401123047,0.04207972437143326,-0.029199838638305664
1772721317795285000,7.825284912109375,-0.2890472412109375,0.038900598883628845,0.006033718585968018
1772721317813881300,7.84388134765625,-0.03678703308105469,0.0266630370169878,0.046647995710372925
1772721317832477700,7.862477783203125,0.12884998321533203,0.002003125846385956,0.1144661009311676
1772721317851073800,7.88107373046875,0.08996963500976562,0.005232144147157669,0.08379748463630676
1772721317869670100,7.899670166015625,-0.036606788635253906,0.01237577199935913,0.07095935940742493
1772721317888266500,7.9182666015625,-0.1018972396850586,0.03478723019361496,0.07802581787109375
1772721317906862800,7.93686279296875,-0.07224082946777344,0.037855908274650574,0.0446438193321228
1772721317925459200,7.955459228515625,0.20842266082763672,-0.03794976323843002,-0.04064589738845825
1772721317944055600,7.9740556640625,0.2728385925292969,-0.022982679307460785,-0.04799783229827881
1772721317962652000,7.99265185546875,-0.024476051330566406,0.024349015206098557,0.03646451234817505
1772721317981248300,8.011248291015624,-0.19441509246826172,0.026408329606056213,0.03500157594680786
1772721317999844600,8.0298447265625,-0.100982666015625,-0.013746403157711029,-0.019531816244125366
1772721318018440700,8.048440673828125,0.10282325744628906,0.009711887687444687,0.012176483869552612
1772721318037037000,8.067037109375,0.12456417083740234,0.047504961490631104,0.035416483879089355
1772721318055633400,8.08563330078125,0.005009651184082031,0.07102080434560776,0.007915139198303223
1772721318074229800,8.104229736328126,-0.04881763458251953,0.017741557210683823,-0.05055612325668335
1772721318092826000,8.122826171875,-0.023004531860351562,0.03706322982907295,-0.04654833674430847
1772721318111422200,8.141422119140625,-0.11695384979248047,0.026157386600971222,-0.01200893521308899
1772721318130018600,8.1600185546875,-0.03398323059082031,-0.03517133742570877,-0.008778512477874756
1772721318148615000,8.178614990234376,-0.0052776336669921875,-0.08532417565584183,0.014487117528915405
1772721318167211300,8.197211181640625,0.07664680480957031,-0.12259246408939362,0.05576398968696594
1772721318185807600,8.2158076171875,0.0807638168334961,-0.050662558525800705,0.004977375268936157
1772721318204404000,8.234404052734375,-0.03419971466064453,0.04240471124649048,-0.0055179595947265625
1772721318223000300,8.253000244140624,-0.06887435913085938,0.044225797057151794,-0.004168838262557983
1772721318241596700,8.2715966796875,0.03139972686767578,-0.03173559159040451,-0.04722800850868225
1772721318260192800,8.29019287109375,0.15424633026123047,-0.01694939285516739,-0.08343350887298584
1772721318278789000,8.3087890625,-0.04511451721191406,0.044316306710243225,-0.06305322051048279
1772721318297385500,8.327385498046874,-0.20103073120117188,0.044129934161901474,-0.048732370138168335
1772721318315981800,8.34598193359375,-0.13701629638671875,0.05052391067147255,0.02371037006378174
1772721318334578200,8.364578125,0.07629013061523438,-0.030657248571515083,-0.023587346076965332
1772721318353174500,8.383174560546875,0.22391414642333984,-0.014704171568155289,-0.08053576946258545
1772721318371771000,8.40177099609375,0.009206771850585938,-0.002055589109659195,-0.03385135531425476
1772721318390367000,8.420366943359374,-0.21001434326171875,0.028461169451475143,-0.011423617601394653
1772721318408963300,8.43896337890625,-0.14993667602539062,-0.03058616630733013,0.04398849606513977
1772721318427559700,8.4575595703125,0.10160350799560547,-0.0572119802236557,-0.027549803256988525
1772721318446156000,8.476156005859375,0.2246999740600586,-0.10638216882944107,0.017384499311447144
1772721318464752400,8.49475244140625,-0.0021915435791015625,-0.011646486818790436,0.11197063326835632
1772721318483348500,8.513348388671876,-0.18595218658447266,0.013704657554626465,0.10642212629318237
1772721318501944800,8.53194482421875,-0.1033926010131836,0.015707293525338173,0.12220880389213562
1772721318520541200,8.550541259765625,0.18825626373291016,-0.06892532110214233,0.009756803512573242
1772721318539137500,8.569137451171875,0.3172779083251953,-0.04564691334962845,-0.03762483596801758
1772721318557734000,8.58773388671875,0.03008747100830078,0.017441198229789734,-0.06269064545631409
1772721318576330200,8.606330322265626,-0.1374959945678711,-0.003601768985390663,-0.03106573224067688
1772721318594926300,8.62492626953125,-0.19682979583740234,0.01243838295340538,0.022148489952087402
1772721318613522700,8.643522705078125,0.021144866943359375,-0.07998643815517426,0.04762963950634003
1772721318632119000,8.662119140625,0.22112369537353516,-0.09991949796676636,0.003590494394302368
1772721318650715400,8.68071533203125,-0.00958251953125,-0.0061386264860630035,-0.05304610729217529
1772721318669311700,8.699311767578125,-0.23964691162109375,0.003227377310395241,-0.037458330392837524
1772721318687907800,8.717907958984375,-0.11903572082519531,-0.01984160579741001,-0.042248308658599854
1772721318706504200,8.736504150390624,0.15985393524169922,-0.056824713945388794,-0.046178191900253296
1772721318725100500,8.7551005859375,0.09304428100585938,0.02613377943634987,-0.03749901056289673
1772721318743697000,8.77369677734375,-0.15831375122070312,0.053613871335983276,0.025204896926879883
1772721318762293200,8.792293212890625,-0.05550384521484375,0.012787964195013046,0.031112581491470337
1772721318780889600,8.8108896484375,0.04637908935546875,-0.030410774052143097,0.005264997482299805
1772721318799485700,8.829485595703124,-0.025083541870117188,-0.053128425031900406,-0.03395679593086243
1772721318818082000,8.84808203125,-0.026201248168945312,-0.004197883419692516,0.02932816743850708
1772721318836678400,8.866678466796875,0.06252670288085938,-0.05124039947986603,0.0213947594165802
1772721318855274800,8.885274658203125,0.1254739761352539,0.0007729995995759964,-0.02559909224510193
1772721318873870800,8.903870849609374,-0.028110504150390625,0.019131366163492203,0.01944383978843689
1772721318892467200,8.92246728515625,-0.046855926513671875,0.006373615004122257,0.004679471254348755
1772721318911063600,8.9410634765625,-0.06976604461669922,-0.027931131422519684,0.034761860966682434
1772721318929660000,8.959659912109375,-0.06603240966796875,-0.04680342972278595,0.021003365516662598
1772721318948256300,8.97825634765625,0.12192916870117188,-0.04230821132659912,0.015177398920059204
1772721318966852400,8.996852294921876,0.1266183853149414,0.003952641040086746,0.03197324275970459
1772721318985448700,9.01544873046875,-0.07102775573730469,0.045247260481119156,-0.008957326412200928
1772721319004045000,9.034045166015625,-0.03922557830810547,-0.000018824823200702667,-0.031098902225494385
1772721319022641400,9.052641357421875,0.08660888671875,0.008218398317694664,-0.04617235064506531
1772721319041237800,9.07123779296875,0.011818885803222656,0.003926107659935951,-0.05730655789375305
1772721319059834000,9.089834228515626,-0.14248371124267578,0.03474157676100731,-0.05088356137275696
1772721319078430200,9.10843017578125,-0.07087516784667969,-0.010555743239820004,0.01490601897239685
1772721319097026600,9.127026611328125,0.14286422729492188,-0.06478836387395859,0.01673269271850586
1772721319115623000,9.145622802734374,0.13850116729736328,-0.02008029818534851,-0.025053173303604126
1772721319134219300,9.16421923828125,-0.08897781372070312,0.0167418010532856,-0.007991969585418701
1772721319152815400,9.1828154296875,-0.12854576110839844,-0.010706827044487,0.0218944251537323
1772721319171411700,9.20141162109375,0.04863929748535156,-0.01974451169371605,0.019001901149749756
1772721319190008000,9.220008056640625,0.032253265380859375,0.010830641724169254,0.06888055801391602
1772721319208604400,9.2386044921875,-0.060889244079589844,-0.014485294930636883,0.052610307931900024
1772721319227200800,9.25720068359375,-0.03064441680908203,-0.01377643458545208,0.03283315896987915
1772721319245796900,9.275796875,0.032471656799316406,-0.018115051090717316,-0.02376052737236023
1772721319264393200,9.294393310546875,0.06280708312988281,0.011113067157566547,-0.04278671741485596
1772721319282989600,9.312989501953124,0.06664371490478516,0.039303310215473175,-0.011054784059524536
1772721319301585700,9.331585693359376,0.06431961059570312,-0.028870150446891785,0.022664785385131836
1772721319320182000,9.35018212890625,0.008437156677246094,0.021356765180826187,0.019544780254364014
1772721319338778400,9.3687783203125,-0.04094982147216797,0.02803046628832817,0.03983922302722931
1772721319357374700,9.387374755859375,-0.06766796112060547,0.009662535041570663,-0.0021020174026489258
1772721319375971000,9.40597119140625,-0.0118865966796875,-0.0026939408853650093,-0.024625301361083984
1772721319394567200,9.424567138671875,-0.012942314147949219,-0.02987806126475334,-0.06042686104774475
1772721319413163500,9.44316357421875,-0.08141326904296875,0.012639662250876427,-0.04341438412666321
1772721319431760000,9.461759765625,-0.02253437042236328,-0.012928872369229794,-0.031122535467147827
1772721319450356200,9.480356201171874,-0.0032033920288085938,0.014751901850104332,0.03608033061027527
1772721319468952300,9.498952392578126,0.013593673706054688,-0.009168161079287529,0.05265152454376221
1772721319487548700,9.517548583984375,0.09827327728271484,-0.022214718163013458,0.049996018409729004
1772721319506145000,9.53614501953125,0.03647327423095703,-0.019815362989902496,-0.004247725009918213
1772721319524741400,9.554741455078124,-0.06342220306396484,-0.023531757295131683,-0.07491615414619446
1772721319543337500,9.57333740234375,0.022951126098632812,-0.08450562506914139,-0.026560872793197632
1772721319561933800,9.591933837890625,0.008962631225585938,-0.037635207176208496,0.04436415433883667
1772721319580530200,9.6105302734375,-0.018083572387695312,-0.04943063482642174,-0.020282894372940063
1772721319599126300,9.629126220703125,0.031219482421875,-0.0006015663966536522,-0.026927322149276733
1772721319617722600,9.64772265625,-0.0667276382446289,0.02684912644326687,0.014016449451446533
1772721319636319000,9.666319091796876,-0.15183448791503906,0.03270483762025833,0.01975935697555542
1772721319654915300,9.684915283203125,-0.0038700103759765625,0.013650810346007347,-0.014531075954437256
1772721319673511700,9.70351171875,0.2011251449584961,-0.04574219137430191,-0.040592312812805176
1772721319692107800,9.722107666015624,0.011685371398925781,0.026072802022099495,0.038698285818099976
1772721319710704000,9.7407041015625,-0.22138500213623047,0.04135585576295853,0.005597442388534546
1772721319729300500,9.759300537109375,-0.024707794189453125,-0.00072442926466465,-0.0004037022590637207
1772721319747896600,9.777896484375,0.1844930648803711,-0.027592098340392113,-0.024359285831451416
1772721319766493000,9.796492919921874,0.038704872131347656,-0.010345405898988247,-0.018052875995635986
1772721319785089300,9.81508935546875,-0.10194110870361328,-0.0036087073385715485,0.012825220823287964
1772721319803685600,9.833685546875,-0.030707359313964844,-0.018723707646131516,0.02572813630104065
1772721319822281700,9.85228173828125,0.01947498321533203,-0.007935999892652035,0.03887668251991272
1772721319840878000,9.870878173828125,0.06917095184326172,-0.015582741238176823,-0.04875117540359497
1772721319859474400,9.889474365234374,0.058258056640625,0.012372231110930443,-0.02625352144241333
1772721319878070500,9.908070556640626,-0.049880027770996094,0.04656672850251198,0.003338545560836792
1772721319896667100,9.926667236328125,-0.08772563934326172,0.01215616799890995,0.04567807912826538
1772721319915263200,9.94526318359375,0.04680156707763672,-0.03695690631866455,0.012356400489807129
1772721319933859600,9.963859619140624,0.048254966735839844,-0.0019227974116802216,-0.023768305778503418
1772721319952455700,9.98245556640625,-0.09204673767089844,0.03609029948711395,0.029201120138168335
1772721319971052000,10.001052001953125,-0.10099601745605469,0.039706651121377945,-0.026729732751846313
1772721319989648400,10.0196484375,0.08074951171875,-0.003858722746372223,-0.08778458833694458
1772721320008244700,10.03824462890625,0.06693649291992188,0.005320539698004723,0.0012964606285095215
1772721320026840800,10.0568408203125,-0.0703897476196289,-0.01059199869632721,0.07195067405700684
1772721320045437200,10.075437255859375,-0.045314788818359375,0.028222503140568733,0.043596357107162476
1772721320064033500,10.094033447265625,0.057349205017089844,-0.05776245519518852,-0.04976522922515869
1772721320082629600,10.112629638671875,0.27905750274658203,0.00004038587212562561,-0.011557191610336304
1772721320101226000,10.13122607421875,-0.056382179260253906,0.03131948411464691,0.028184443712234497
1772721320119822300,10.149822265625,-0.31757545471191406,0.060677219182252884,0.047490477561950684
1772721320138418700,10.168418701171875,0.012677192687988281,-0.032524172216653824,-0.004529625177383423
1772721320157014800,10.187014892578125,0.2910423278808594,-0.005248472094535828,0.025763750076293945
1772721320175611100,10.205611083984374,-0.028049468994140625,0.0038310587406158447,-0.02666342258453369
1772721320194207500,10.22420751953125,-0.16269493103027344,-0.006155289709568024,-0.020024120807647705
1772721320212803600,10.242803466796875,-0.05081748962402344,-0.008224137127399445,0.005783408880233765
1772721320231400000,10.26139990234375,0.027849197387695312,0.0009422190487384796,-0.06446728110313416
1772721320249996300,10.279996337890625,0.1364288330078125,-0.03929276391863823,-0.016915977001190186
1772721320268592400,10.29859228515625,-0.0013322830200195312,0.038822825998067856,0.06020280718803406
1772721320287188700,10.317188720703125,-0.04053974151611328,-0.002420995384454727,0.041065067052841187
1772721320305785000,10.33578515625,-0.03131866455078125,-0.018176106736063957,0.008769482374191284
1772721320324381200,10.354381103515625,-0.1371173858642578,0.025185149163007736,0.009311199188232422
1772721320342977500,10.3729775390625,-0.02241992950439453,-0.010511893779039383,0.0003534555435180664
1772721320361574000,10.391573974609376,0.2338266372680664,-0.009331922978162766,-0.0334298312664032
1772721320380170000,10.410169921875,0.07458209991455078,0.03407258167862892,-0.059394001960754395
1772721320398766300,10.428766357421875,-0.30724048614501953,0.09248355031013489,-0.0038239657878875732
1772721320417362700,10.44736279296875,-0.19394207000732422,0.020425476133823395,-0.00009924173355102539
1772721320435958800,10.465958740234376,0.39452075958251953,-0.10437607020139694,-0.05894550681114197
1772721320454555100,10.48455517578125,0.3618040084838867,-0.041657280176877975,-0.037535160779953
1772721320473151500,10.5031513671875,-0.16715049743652344,-0.02538040094077587,0.04345381259918213
1772721320491747600,10.52174755859375,-0.3277244567871094,-0.04196044057607651,0.13948169350624084
1772721320510344000,10.540343994140626,-0.07938480377197266,-0.04792918264865875,0.08317595720291138
1772721320528940300,10.558940185546875,0.215545654296875,-0.09341957420110703,-0.0014137327671051025
1772721320547536400,10.577536376953125,0.21780681610107422,-0.01404782384634018,-0.054289281368255615
1772721320566132700,10.5961328125,-0.07431793212890625,0.06633421778678894,-0.013573825359344482
1772721320584729000,10.61472900390625,-0.22414112091064453,0.053980473428964615,-0.06224706768989563
1772721320603325200,10.6333251953125,-0.1425323486328125,0.009492423385381699,0.00045412778854370117
1772721320621921500,10.651921630859375,0.22511863708496094,-0.09111878275871277,-0.013487905263900757
1772721320640517600,10.670517578125,0.17866802215576172,-0.033108681440353394,0.09342184662818909
1772721320659114000,10.689114013671874,-0.2315673828125,0.06239910423755646,0.06296759843826294
1772721320677710300,10.70771044921875,-0.14564228057861328,0.041997428983449936,0.013552457094192505
1772721320696306700,10.726306640625,0.24848079681396484,-0.05088650435209274,-0.10017558932304382
1772721320714902800,10.74490283203125,0.22823810577392578,-0.0007583387196063995,-0.003983914852142334
1772721320733499100,10.7634990234375,-0.07343292236328125,-0.04909685626626015,-0.022763103246688843
1772721320752095200,10.78209521484375,-0.2395162582397461,-0.011418141424655914,0.004961490631103516
1772721320770691600,10.800691650390625,-0.06642913818359375,-0.03285821154713631,0.01458817720413208
1772721320789288000,10.819287841796875,0.16774845123291016,-0.029172727838158607,0.003939032554626465
1772721320807884000,10.837884033203125,0.11800670623779297,-0.016742881387472153,0.010262936353683472
1772721320826480400,10.85648046875,-0.09834766387939453,-0.005897734314203262,-0.05461317300796509
1772721320845076500,10.875076416015625,-0.17973899841308594,0.040403369814157486,-0.021974533796310425
1772721320863672800,10.8936728515625,-0.08380413055419922,0.008976567536592484,-0.03504052758216858
1772721320882269200,10.912269287109375,0.00141143798828125,-0.041377730667591095,-0.033074140548706055
1772721320900865500,10.930865478515624,0.023575782775878906,-0.04838492348790169,-0.02961030602455139
1772721320919461600,10.949461669921876,-0.1775674819946289,-0.045758023858070374,0.016263186931610107
1772721320938058000,10.96805810546875,-0.11613178253173828,-0.06062951311469078,-0.11278167366981506
1772721320956654000,10.986654052734375,0.3331413269042969,0.041186243295669556,-0.13807564973831177
1772721320975250400,11.00525048828125,0.1935291290283203,-0.02365056797862053,0.15916655957698822
1772721320993846800,11.0238466796875,0.07250404357910156,-0.08363737165927887,0.16239303350448608
1772721321012443000,11.04244287109375,-0.27297210693359375,0.0078040920197963715,0.14443722367286682
1772721321031039200,11.061039306640625,-0.29606151580810547,-0.032837968319654465,0.18651066720485687
