time,seconds_elapsed,z,y,x
1772795392396115500,0.075115478515625,0.009577975684404372,0.057920420179516076,-0.04446896406263113
1772795392406108700,0.085108642578125,0.13943711226284503,0.02649513515047729,-0.0035586057970300317
1772795392416100900,0.095100830078125,0.13045242629647255,-0.020429916827380656,0.021616021339409052
1772795392426092500,0.105092529296875,0.07384674197733401,-0.07771393879950046,-0.018036445819586515
1772795392436085800,0.115085693359375,-0.02481412326097488,-0.1189708820130676,-0.025944625128246843
1772795392446077700,0.12507763671875,-0.08781389253139495,-0.1288347619667649,-0.06920969329383224
1772795392456069600,0.135069580078125,-0.06072364103198051,-0.1426003255341202,-0.08642466666270048
1772795392466062600,0.1450625,0.008547463592886924,-0.13843633772246539,-0.0729129317259416
1772795392476054800,0.1550546875,0.03567220188379287,-0.11639335967525839,-0.04669865934345871
1772795392486046500,0.16504638671875,0.025342531049251556,-0.0803126500558108,-0.0021624752635136246
1772795392496039700,0.175039794921875,0.0059773208439350125,-0.05266111141182482,0.02158284972216934
1772795392506031900,0.185031982421875,-0.02420680501759052,-0.019822744714468717,0.02344524606056511
1772795392516023600,0.1950234375,-0.013392565536499023,0.007564663100615143,0.03452734269760549
1772795392526015700,0.205015625,0.00837035346031189,0.014181889283284545,0.024914259167201816
1772795392536008700,0.2150087890625,-0.002203647524118423,0.02056333394870162,0.022025332792662083
1772795392546000600,0.225000732421875,0.0021516250759363175,0.019851094026118517,0.03367456179317087
1772795392555992600,0.23499267578125,0.0013134206861257552,0.009882657719403505,0.02132288361173123
1772795392565985800,0.24498583984375,-0.008359247544407844,0.015679799690842627,0.010559205274097622
1772795392575977500,0.2549775390625,-0.014978373423218725,0.011911094807088374,0.004843129182234406
1772795392585969700,0.2649697265625,-0.004026186776161194,0.008117474677786231,-0.022280732325837015
1772795392595963000,0.274962890625,-0.006004793372750282,0.0238907248057425,-0.03994618940856307
1772795392605954600,0.28495458984375,0.006155600020289421,0.007881547030061484,-0.02845730206891894
1772795392615946800,0.29494677734375,-0.002974631896615028,-0.018995280914381147,-0.0335687998637557
1772795392625939700,0.304939697265625,-0.029194530302286147,-0.030677170075476167,-0.04118515661899
1772795392635931600,0.314931640625,-0.00813420661687851,-0.033414778345823286,-0.04597034506890923
1772795392645923600,0.324923583984375,-0.00608545739352703,-0.05725844913944602,-0.059361485833302134
1772795392655916800,0.334916748046875,0.019478022930026054,-0.05998787410333752,-0.053160585366562006
1772795392665908500,0.344908447265625,0.009594926819205284,-0.04167304973378777,-0.047005058411508795
1772795392675900700,0.354900634765625,0.005431961920857429,-0.023995719550177454,-0.06022497079484165
1772795392685892600,0.364892578125,0.0015957447588443754,-0.02452471186034381,-0.0523274590106681
1772795392695885600,0.374885498046875,-0.02032207253873348,-0.0009460486784577369,-0.05910327328853309
1772795392705877500,0.38487744140625,-0.0022907412856817246,0.02312975037060678,-0.03332881709542125
1772795392715869700,0.39486962890625,-0.0019534721553325653,-0.003312485548853874,-0.01254274377413094
1772795392725862700,0.404862548828125,-0.0015150807380676268,-0.006377645273134112,-0.049742264823056756
1772795392735854600,0.4148544921875,0.01337912153303623,-0.002017477302253246,-0.059914516606181856
1772795392745846800,0.4248466796875,-0.003206687086820602,-0.009534136542677879,-0.038741489793919025
1772795392755839500,0.434839599609375,0.004404372438788414,-0.039483796061202885,-0.027390074696205555
1772795392765831700,0.444831787109375,0.008543956461548805,-0.019376096925511954,-0.003983991602249443
1772795392775823600,0.45482373046875,-0.012138766083121299,-0.02632825415097177,-0.007376995041407645
1772795392785816600,0.464816650390625,-0.009594342297315596,-0.03427731345929205,0.0027737755622714755
1772795392795808500,0.47480859375,-0.0018003274202346802,-0.04446962164975703,0.017299400249309836
1772795392805800700,0.48480078125,0.00007423427999019622,-0.02616583013087511,0.01666976057626307
1772795392815792600,0.494792724609375,-0.004748071309924125,-0.029402985421195623,0.029754027348570525
1772795392825785600,0.50478564453125,0.00017418752312660217,-0.0158720343273133,0.04660100765526294
1772795392835777800,0.51477783203125,-0.003991699984669685,-0.016899989135563374,0.03822495510652661
1772795392845769700,0.524769775390625,-0.0036029929280281064,-0.020078984497860074,0.02428787089716643
1772795392855762700,0.5347626953125,-0.0018196166425943374,-0.01594298067167401,0.020979440468922257
1772795392865754600,0.544754638671875,0.003890577697753906,-0.021019187957420943,-0.014063779328949748
1772795392875746800,0.554746826171875,0.012158055305480956,-0.029317133768647908,-0.009352277169749141
1772795392885739500,0.564739501953125,0.007549100205302238,-0.039949221615865824,-0.016201485477387905
1772795392895731700,0.574731689453125,0.005603811356425285,-0.05026793266497552,-0.0032996625998988746
1772795392905723600,0.5847236328125,0.009866729497909545,-0.0545296086974442,-0.021949600675329566
1772795392915716600,0.594716552734375,0.013017302483320236,-0.05160970266275108,-0.02348601646237075
1772795392925708800,0.604708740234375,-0.00812894591987133,-0.047235213905572886,-0.019580168130248782
1772795392935700700,0.61470068359375,-0.001502221256494522,-0.044265185118839145,-0.023361257571540773
1772795392945693700,0.624693603515625,0.011988543957471847,-0.03572685468047857,-0.033163653128966686
1772795392955685600,0.634685546875,0.004229015871882439,-0.01587071915306151,-0.02836998911164701
1772795392965677800,0.644677734375,-0.005169511592388153,-0.01051686396971345,-0.03395703199636191
1772795392975669500,0.65466943359375,-0.006762918263673782,0.01147474921643734,-0.0260314266288653
1772795392985662700,0.664662841796875,0.000685059654712677,0.02930938885360956,-0.025210429102182387
1772795392995654700,0.674654541015625,-0.017990999242663383,0.019374270294606685,-0.006875584857910871
1772795393005646300,0.684646240234375,-0.012695230922102927,0.022745938684791325,0.011557422531209885
1772795393015639000,0.69463916015625,-0.011993804654479027,0.0007459229964762925,0.012031762044690548
1772795393025631200,0.70463134765625,-0.0034878421157598493,-0.0009602233342826366,-0.014195589015074074
1772795393035623200,0.714623046875,0.005598550659418106,-0.024549188714474438,-0.01925952134113759
1772795393045616000,0.7246162109375,0.0062777650952339165,-0.03607391455247998,-0.02493405984621495
1772795393055608300,0.7346083984375,0.001817278555035591,-0.04029145918227732,-0.018882541254907844
1772795393065600300,0.744600341796875,0.00028232407271862027,-0.04675459078177809,-0.03000756371822208
1772795393075593200,0.75459326171875,-0.0035468788266181943,-0.032953006052970885,-0.03847845494356006
1772795393085585200,0.764585205078125,-0.009374562066793442,-0.018053470019623635,-0.021491372046433387
1772795393095577300,0.774577392578125,-0.010727730241417884,0.0028031477872282264,0.012345065777562558
1772795393105570000,0.784570068359375,-0.016394085440039632,0.00708140962831676,0.006599507862888277
1772795393115562200,0.794562255859375,-0.01860240913927555,0.00810666102282703,0.01408248402941972
1772795393125554200,0.80455419921875,0.007383680510520935,-0.01772102319486439,-0.0011438728054985403
1772795393135546000,0.814546142578125,0.004397358176112175,-0.01151040505170822,-0.0010598843164741991
1772795393145539000,0.8245390625,-0.0019406126737594603,-0.0309649740409106,-0.013399543266557156
1772795393155531300,0.83453125,0.027260347369313237,-0.0364102338347584,-0.004794358137063682
1772795393165523000,0.84452294921875,0.01191957037448883,-0.032019378464668985,-0.004583455332741141
1772795393175516200,0.85451611328125,0.003925649011135101,-0.05331029603555798,0.002944346356205642
1772795393185508400,0.86450830078125,-0.005265373182296753,-0.04017506626099348,-0.018325126567855475
1772795393195500000,0.8745,-0.020030980637669563,-0.035564942117035384,-0.024216084302589296
1772795393205493200,0.8844931640625,-0.003264554753899574,-0.030778219297155737,-0.05299976878166198
1772795393215485200,0.894485107421875,0.008819850793480872,-0.042102746387943625,-0.06019855771195143
1772795393225477000,0.90447705078125,-0.013273907592892646,-0.01768251781538129,-0.06618614422157407
1772795393235470000,0.914469970703125,0.004805354455113411,-0.022573796988278626,-0.05874448644611984
1772795393245462300,0.924462158203125,-0.0014238953232765196,-0.02019048204831779,-0.050204110181145366
1772795393255454000,0.934453857421875,-0.011600421422719954,-0.014455007136240601,-0.05070767578911036
1772795393265447200,0.944447265625,-0.0037128830432891845,-0.01959068952426314,-0.029496143597364424
1772795393275439400,0.954439453125,-0.003173369339108467,-0.013756065086647867,-0.042162148424983024
1772795393285431000,0.96443115234375,-0.008441080608963966,-0.026869521420821545,-0.02712473829090595
1772795393295423200,0.97442333984375,-0.0009498480707406997,-0.019218056819587943,-0.026892208176665006
1772795393305416200,0.984416259765625,-0.01494680924117565,-0.014906184969842433,-0.010890556120313703
1772795393315408100,0.994408203125,-0.015576923838257789,-0.02295760867409408,-0.022063290182873604
1772795393325400000,1.004400146484375,0.001970423290133476,-0.01977079533152282,-0.024667627462372183
1772795393335393300,1.014393310546875,0.013109656941890716,-0.006917378173023462,-0.017271781590022146
1772795393345385000,1.024385009765625,-0.006547229686379432,-0.0026394816581159827,0.006403912225551903
1772795393355377200,1.034377197265625,0.00910100582242012,0.007540551572665572,-0.010186645634658634
1772795393365370400,1.044370361328125,0.005607318487763404,-0.017276275102049113,-0.006682181177660822
1772795393375362000,1.054362060546875,0.010928221249580383,-0.02899601205550134,0.006787796976603568
1772795393385354000,1.06435400390625,0.013807576078176497,-0.04340096950493753,0.008185425347462296
1772795393395347200,1.07434716796875,-0.012236965760588645,-0.04307385644242167,0.011366247340664267
1772795393405339100,1.084339111328125,0.0023749124377965927,-0.024553645693883297,-0.005371317774802446
1772795393415331000,1.0943310546875,0.009216156634688376,0.014069588015228509,-0.0009458294827491044
1772795393425323300,1.1043232421875,-0.00969137293100357,0.020292261922359466,-0.005362659544311464
1772795393435316000,1.11431591796875,-0.014368132570385932,0.025030761686339973,-0.002501388361677527
1772795393445308200,1.12430810546875,-0.000495090040564537,0.03627952012717724,-0.018474179649725555
1772795393455300000,1.134300048828125,-0.0009726444244384765,0.023884879586845636,-0.01710526591669768
1772795393465293000,1.14429296875,-0.007890460988879203,0.0042371261131018394,-0.0074385159702971574
1772795393475285000,1.154284912109375,-0.009997077879309653,-0.022046485178545117,0.017327603430487216
1772795393485277200,1.164277099609375,0.009170563927292824,-0.030757541835308072,0.01224178806617856
1772795393495270100,1.174270263671875,0.009967851784825324,-0.033118498812988395,0.02102265855614096
1772795393505262000,1.184261962890625,-0.008530512458086014,-0.03962473890185356,0.015121910079754887
1772795393515254300,1.194254150390625,-0.0017208324432373045,-0.04336458301730454,0.02267009696960449
1772795393525247000,1.2042470703125,-0.027061025404930113,-0.042103696236014364,0.028068814207985994
1772795393535239200,1.2142392578125,-0.024716508105397224,-0.024595804335176944,0.016353461168706417
1772795393545231000,1.224231201171875,-0.024026187753677368,-0.0221523567058146,0.002158237479813397
1772795393555224000,1.23422412109375,0.0008919804036617279,-0.037128976563364266,-0.006476137211546301
1772795393565216000,1.244216064453125,-0.01011398225724697,-0.05777757764272391,-0.012306706528551876
1772795393575208200,1.254208251953125,0.018375614646077156,-0.0321875746384263,-0.003574205224961042
1772795393585200000,1.2642001953125,0.03157061178386211,-0.02314494793973863,-0.01693352607898414
1772795393595193000,1.274193115234375,0.00672901599407196,-0.04704743624851107,-0.022901056181266904
1772795393605185300,1.284185302734375,0.0032592940568923947,-0.04758877658359706,-0.03160995741356164
1772795393615177200,1.29417724609375,-0.0009434183299541472,-0.035103900476545095,-0.014353373392671346
1772795393625170200,1.304170166015625,-0.002591185536980629,-0.02691613704152405,-0.014530118199065327
1772795393635162000,1.314162109375,-0.01696983950138092,-0.015413403839617966,-0.0014429653499275445
1772795393645154300,1.324154296875,0.009202128109335898,-0.010040040238201618,0.000792830878123641
1772795393655147000,1.33414697265625,-0.011138649129867553,0.008543079678714274,0.015400105966627596
1772795393665139200,1.34413916015625,0.006233341431617736,0.002522504214942455,0.002756312970817089
1772795393675131100,1.354131103515625,0.0007043488770723343,0.010261647099629043,-0.006127360306493938
1772795393685124000,1.3641240234375,-0.002731470790505409,0.012545520253106951,-0.0016928849903866648
1772795393695116000,1.374115966796875,0.00699088180065155,0.007286576811596751,-0.002552789755351841
1772795393705108200,1.384108154296875,0.010310381612181663,0.018401552804931998,0.01076956008914858
1772795393715100200,1.39410009765625,-0.0035638299614191055,0.025999387522786854,-0.006163198804855346
1772795393725093000,1.404093017578125,0.013543956705927849,0.006838979174569249,-0.01805584463980049
1772795393735085300,1.414085205078125,-0.007198387071490287,-0.0025479309171438217,-0.025600816659256814
1772795393745077200,1.4240771484375,0.014705401700735091,-0.018658596305921673,-0.01877023998685181
1772795393755070200,1.4340703125,0.003245265531539917,-0.03713723293505609,-0.04060304588209838
1772795393765062100,1.444062255859375,0.008952537262439728,-0.03000891542509198,-0.009350815865024923
1772795393775054300,1.454054443359375,-0.01109656355381012,-0.009771963886544107,-0.005812083812244236
1772795393785047000,1.464047119140625,0.01495382350385189,-0.01887757281884551,0.00952967956326902
1772795393795039200,1.474039306640625,-0.007750175735354423,-0.004793956278264522,-0.006829444161243737
1772795393805031200,1.48403125,-0.00784486828148365,-0.011326865178346633,-0.00602327887751162
1772795393815024000,1.494024169921875,-0.0068622869849205015,-0.015338073581084608,-0.008980448182672261
1772795393825016300,1.504016357421875,-0.012345102310180663,-0.023137422220408915,-0.03417651996593922
1772795393835008300,1.51400830078125,0.01045475851893425,-0.00955021089464426,-0.03630344899203628
1772795393845000200,1.524000244140625,0.01303892979323864,-0.022653803421929478,-0.05518723235595971
1772795393854993200,1.5339931640625,0.008898176726698875,-0.027088863259926436,-0.04824840953610837
1772795393864985300,1.5439853515625,0.014152443993091582,-0.022748349837586283,-0.038750805611535905
1772795393874977000,1.55397705078125,-0.00034311434924602505,-0.03068535338193178,-0.022546908981353045
1772795393884970200,1.56397021484375,-0.007677695021033286,-0.025469372299313543,-0.01744706509169191
1772795393894962200,1.573962158203125,-0.007237550038099288,-0.023667072117701173,-0.0384834233796224
1772795393904954000,1.5839541015625,-0.011579378634691238,-0.03649630468301475,-0.008712517961487174
1772795393914947300,1.593947265625,-0.009501987838745117,-0.02621478383913636,-0.031386012464575466
1772795393924939300,1.603939208984375,-0.0062421092599630355,-0.021260741628333926,-0.022385106015764177
1772795393934931200,1.61393115234375,-0.0022667758882045745,-0.023022782864794134,-0.023456863433122633
1772795393944924200,1.623924072265625,0.012910334977507591,-0.022311858116462826,-0.011955335807614027
1772795393954916400,1.633916259765625,0.014275193589925765,-0.019392098212242127,-0.016458163652196524
1772795393964908000,1.643907958984375,0.0005272387444972992,-0.006760653241351246,-0.006075483988784253
1772795393974900200,1.653900146484375,-0.0012245733588933945,-0.01588160587325692,0.012833579946868122
1772795393984893200,1.66389306640625,-0.003714636608958244,-0.01684635925218463,0.00803092890549451
1772795393994885000,1.673885009765625,0.008040683114528656,-0.004371420017257333,0.018458799417503176
1772795394004877000,1.683876953125,-0.0047118309527635575,0.002987126052007079,0.014533223471604287
1772795394014870500,1.69387060546875,-0.010393383720517157,0.004091434032097459,0.02227671373784542
1772795394024862700,1.70386279296875,-0.0064794251471757885,0.0029806232459843158,0.038438122933171684
1772795394034854700,1.713854736328125,0.0010568155765533446,0.008985928075388073,0.031917963916808366
1772795394044847600,1.72384765625,0.00021451953351497648,0.0018033961601555347,0.021443952708132565
1772795394054839600,1.733839599609375,0.007760697129368782,-0.006676993545889854,-0.004198547668382525
1772795394064831700,1.743831787109375,0.002284311544895172,-0.015187778390198945,0.008139065455086528
1772795394074824400,1.753824462890625,-0.007833177843689918,-0.030195377907902,-0.0044474809281528
1772795394084816600,1.763816650390625,-0.009881927067041397,-0.026517200851812958,0.00529668163601309
1772795394094808600,1.77380859375,-0.01030570543706417,-0.03007547785528004,0.005635960060358047
1772795394104800800,1.78380078125,-0.007331658062338829,-0.02977101501598954,-0.015390936279483139
1772795394114793700,1.793793701171875,-0.01259703124463558,-0.02280738654844463,-0.026687040993385015
1772795394124785700,1.80378564453125,0.0050122752040624614,-0.03054784460738301,-0.017049005684815346
1772795394134777600,1.813777587890625,0.007196633505821228,-0.027977555727958677,-0.01621098395809531
1772795394144770600,1.8237705078125,0.009060673812031746,-0.024220029825344682,-0.0039939650069922205
1772795394154762800,1.8337626953125,0.02812076359093189,-0.010719181608781218,-0.011961984744109212
1772795394164754700,1.843754638671875,0.01948328362703323,-0.014010405173897742,0.004730499120615422
1772795394174747600,1.85374755859375,0.0006663549542427063,-0.009545315523818135,0.003715951783210039
1772795394184739600,1.863739501953125,-0.003181552645564079,0.004664923071116209,0.03623345249574631
1772795394194731800,1.873731689453125,-0.012714520144462584,0.009501695577800274,0.033072577312029894
1772795394204724500,1.883724365234375,-0.027029461222887036,0.004701163428276777,0.032971089698933066
1772795394214716700,1.893716552734375,-0.007774141132831573,0.003421937272697687,0.03153649031855166
1772795394224708600,1.90370849609375,-0.003734510353207588,0.0010039894107729196,0.03530873886626214
1772795394234700800,1.91370068359375,0.007681202152371406,0.010021043276786804,0.02457304451409727
1772795394244693800,1.92369384765625,0.010602642557024955,-0.002326908577606082,0.006547741143032908
1772795394254685700,1.933685791015625,0.0017296002715826034,-0.010761559445783496,-0.018320450392737983
1772795394264678000,1.943677978515625,-0.0032540333598852157,-0.012447174445167183,-0.01205729834474623
1772795394274670600,1.953670654296875,0.001765256106853485,-0.0031112638883292673,-0.00609652677681297
1772795394284662800,1.963662841796875,-0.009824059399962424,-0.03172602154128253,-0.02238667691834271
1772795394294654700,1.97365478515625,-0.008859013760089874,-0.043786023299768564,-0.019597996047884224
1772795394304647700,1.983647705078125,-0.01719546495079994,-0.036069238377362485,-0.008278583523631096
1772795394314639600,1.9936396484375,-0.0005436053574085235,-0.010883870651200413,-0.021570465164631604
1772795394324631800,2.0036318359375,0.002181435692310333,0.0021804127790033814,-0.01720090831089765
1772795394334623500,2.01362353515625,-0.006629062750935554,0.008139832640066742,-0.013579795204289256
1772795394344616700,2.02361669921875,0.0011626140385866165,0.0035270050823688506,-0.02395436462648213
1772795394354609000,2.03360888671875,-0.009756839382648468,0.028046456245705485,-0.047320371438376606
1772795394364600600,2.0436005859375,-0.008865443500876426,0.024840353680774568,-0.04738697040118277
1772795394374593800,2.05359375,0.001169043779373169,0.010183686492592096,-0.03469491781685501
1772795394384585700,2.063585693359375,0.008665537014603614,0.00401077001132071,-0.04275412296876311
1772795394394577700,2.07357763671875,0.004179331511259079,-0.009116860978677869,-0.051597646898776287
1772795394404570600,2.083570556640625,-0.009435352343320847,-0.000053483752906322475,-0.03390873587522655
1772795394414562800,2.093562744140625,-0.007976970228552817,-0.019273221072927116,-0.008602152922190725
1772795394424554500,2.103554443359375,0.0013619360029697416,-0.03260645763762295,-0.0011405848698690533
1772795394434547700,2.113547607421875,-0.005916530567407608,-0.03309584858976304,-0.0036718569131568074
1772795394444539600,2.12353955078125,-0.008753215298056602,-0.0026410890933126208,0.022529081063717604
1772795394454531600,2.133531494140625,-0.009669745621085166,-0.007990925688669085,0.01617317269835621
1772795394464523500,2.1435234375,-0.00038519992530345915,-0.00021035481505095958,0.012308715822547674
1772795394474516700,2.153516845703125,-0.011716156756877899,-0.000008183306455612182,0.0030968335041776296
1772795394484508700,2.1635087890625,-0.02405482932627201,0.0074448361132293936,0.010561251100711523
1772795394494500600,2.17350048828125,-0.012694646400213241,0.03152173114083707,0.024445363013818857
1772795394504493800,2.183493896484375,-0.01385667591691017,0.014952873655781148,0.02039890063460916
1772795394514485500,2.193485595703125,-0.00538052399456501,0.006522387506067752,0.0061212958918884395
1772795394524477700,2.203477783203125,0.014631167420744894,-0.005410407676175236,0.001740486991778016
1772795394534470700,2.213470703125,0.008901683858036994,-0.02185322762876749,0.011641922476887702
1772795394544462600,2.223462646484375,0.005426116701960563,-0.03751892572902143,0.015208492384664714
1772795394554454500,2.23345458984375,0.007056348252296447,-0.04657528869211673,0.015746837045066058
1772795394564447700,2.24344775390625,-0.004348842859268188,-0.06109948860704899,-0.00248830968439579
1772795394574439700,2.253439697265625,-0.008305471530556678,-0.062118091065064066,0.005620799023844302
1772795394584431600,2.263431640625,-0.004040799823403358,-0.05153218044713139,-0.014749934962205589
1772795394594423800,2.273423828125,0.0051256724506616586,-0.04765066283866763,-0.02585786016024649
1772795394604416500,2.28341650390625,0.005887304472923278,-0.03332110871300101,-0.03474726905860007
1772795394614408700,2.29340869140625,-0.00024608371555805207,-0.012183847333863377,-0.04258892246969044
1772795394624400600,2.303400634765625,-0.0060965633094310755,-0.013738017973303793,-0.03706814975421875
1772795394634393600,2.3133935546875,-0.01064472813308239,0.00239595522582531,-0.04752919188346714
1772795394644385500,2.323385498046875,-0.0070136781543493265,0.013512684784829615,-0.026282515313103792
1772795394654377700,2.333377685546875,0.0061561845421791075,0.01896890436410904,-0.026177410970814524
1772795394664370700,2.34337060546875,0.0011848258703947066,0.02465418345890939,-0.004723009933903813
1772795394674362600,2.353362548828125,-0.004240121787786483,0.023535262431576845,-0.011923881223425269
1772795394684354600,2.3633544921875,0.0028869536131620405,0.014745222254469989,0.003919328868202865
1772795394694347500,2.373347412109375,0.006439677658677101,-0.0029613340236246586,0.01717339924946427
1772795394704339700,2.383339599609375,0.0040402153015136714,-0.005313888499140739,0.03378233301658183
1772795394714331600,2.39333154296875,0.0003454524368047714,-0.006581862608343363,0.034692141337879
1772795394724323800,2.40332373046875,-0.005220949518680572,-0.005718304581567644,0.04598583489898592
1772795394734316500,2.413316650390625,-0.006373626685142517,-0.00855250509418547,0.035767186690866946
1772795394744308700,2.423308837890625,-0.0015986673682928084,-0.004869797993451356,0.03119491033926606
1772795394754300700,2.43330078125,-0.00589899491071701,-0.014381576573848724,0.022581907229498027
1772795394764293600,2.443293701171875,0.0039051907449960707,-0.03031871202662587,0.007526303851604461
1772795394774285600,2.45328564453125,-0.007522796720266341,-0.019549042339622975,-0.012035707567445934
1772795394784277800,2.46327783203125,0.004237783700227737,-0.03811601483933627,-0.011450747286342084
1772795394794270700,2.473270751953125,-0.010527239233255386,-0.03574767827279866,-0.004062354068085551
1772795394804262700,2.4832626953125,-0.01127951890528202,-0.0209851395573467,-0.016250146924704313
1772795394814254800,2.4932548828125,-0.0017757775008678436,-0.021336802539229392,-0.039119967717491086
1772795394824246500,2.50324658203125,0.022146365356445312,-0.015916750251874327,-0.04957184015959501
1772795394834239700,2.51323974609375,0.01083119061589241,-0.010102876341342925,-0.04478785728607326
1772795394844231700,2.523231689453125,-0.007891630032658576,-0.017205840214341878,-0.0285765080017969
1772795394854223600,2.5332236328125,-0.016342647513747213,-0.01821538258306682,-0.03870831817667931
1772795394864216600,2.543216552734375,-0.027531565526127812,0.0018977233801037072,-0.018518859041668473
1772795394874208800,2.553208740234375,-0.020603812089562416,0.007079290736466646,-0.008776450043171643
1772795394884200400,2.563200439453125,-0.005261866050958633,-0.0028311317726969717,-0.008723587344773112
1772795394894193700,2.573193603515625,0.009089315384626389,-0.0025796412296593186,0.006675861034728586
1772795394904185900,2.583185791015625,-0.0019330138891935347,-0.008205810548365116,0.012907923824712633
1772795394914177500,2.593177490234375,0.007315291449427604,0.002864814846590161,0.011177337172441184
1772795394924170800,2.603170654296875,0.0249877262622118,-0.010462284238263965,0.012285115751251578
1772795394934162700,2.61316259765625,0.01603518899977207,-0.020980390316992996,0.0012438625812530516
1772795394944154600,2.623154541015625,0.006197685596346855,-0.035411285925284024,0.019588424501940607
1772795394954146600,2.633146484375,-0.012459668600559234,-0.04248546209521591,0.026534955704212188
1772795394964139800,2.643139892578125,-0.0022252748340368268,-0.03540222583599388,0.03551474629975855
1772795394974131700,2.653131591796875,0.003239420312643051,-0.019378069686889647,0.01085658078547567
1772795394984123600,2.66312353515625,-0.00428337640762329,-0.01665470913760364,0.003983772406540811
1772795394994116600,2.67311669921875,0.0034632921963930127,-0.02634169815443456,-0.017480602035112678
1772795395004108500,2.683108642578125,-0.010072481203079223,-0.009852554842084646,-0.010078216824121774
1772795395014099700,2.693099609375,-0.016453706672787664,0.0012033844403922557,-0.001497873874939978
1772795395024092700,2.7030927734375,-0.013469722425937651,-0.0031090719312429427,-0.022732348550856114
1772795395034084900,2.7130849609375,-0.005856909334659576,0.01362220957390964,-0.03099617289677262
1772795395044076800,2.723076904296875,-0.001976268509030342,0.018047332539781927,-0.03705097942370921
1772795395054068700,2.73306884765625,0.010732406416535377,0.0005010083246976137,-0.024228140066564083
1772795395064062000,2.74306201171875,0.0021627309918403623,-0.023888313652947545,-0.020021628287434576
1772795395074054000,2.753053955078125,-0.005244914916157722,-0.01950103847943246,-0.04486607362143695
1772795395084045800,2.7630458984375,-0.013598317241668701,-0.04271415628455579,-0.005495711339451372
1772795395094038800,2.773038818359375,0.001491115340590477,-0.044460488495230675,0.004121536909416318
1772795395104030700,2.78303076171875,-0.010838789400458335,-0.007997428494691849,0.008893865877762436
1772795395114022700,2.793022705078125,-0.0025175357788801193,-0.006982187037542462,0.021222711172886193
1772795395124015900,2.803015869140625,-0.01524140827357769,-0.010923325878754258,0.04260835782252252
1772795395134007800,2.8130078125,-0.004403787916898727,0.017418021660298107,0.019164792262390255
1772795395143999700,2.822999755859375,-0.008276829957962036,0.03570237782634794,0.02264335509315133
1772795395153991700,2.83299169921875,-0.0026367782443761823,0.031972397517785425,0.011395400369912385
1772795395163985000,2.84298486328125,-0.01415478208065033,0.034640155422315,0.013972703512012958
1772795395173976800,2.852976806640625,0.014471592944860457,0.00901676160506904,0.01735456450264901
1772795395183968800,2.86296875,0.016924246793985367,-0.0019408318694680929,-0.008904387271776795
1772795395193962000,2.8729619140625,0.01353518887758255,-0.01962612616382539,-0.00020421733520925044
1772795395203953700,2.88295361328125,-0.013540449574589728,-0.031689635053649544,0.02008314921632409
1772795395213945900,2.89294580078125,-0.015489830076694487,-0.0424658075466752,-0.0019167568741366265
1772795395223938800,2.902938720703125,-0.013907529321312903,-0.057586000593379136,-0.0263811168493703
1772795395233930800,2.9129306640625,-0.0013005612045526504,-0.07751739331409335,-0.018629370211437343
1772795395243922700,2.922922607421875,0.0012257424026727675,-0.05916391743458807,-0.03913041604626923
1772795395253916000,2.932916015625,-0.015011106649041175,-0.049945203516632314,-0.032306524842977524
1772795395263907600,2.942907470703125,0.00686930124759674,-0.035800942829996345,-0.06361998352799564
1772795395273899800,2.952899658203125,-0.010964461606740951,-0.005842296287417411,-0.01807327069863677
1772795395283891700,2.9628916015625,-0.004275777623057365,-0.003750584705173969,-0.020629604117944834
1772795395293884700,2.972884765625,-0.0020808979272842407,0.004299012368172407,-0.0028538185285404325
1772795395303876900,2.982876953125,-0.004785480710864067,0.008657572903856634,0.011576492557860911
1772795395313868800,2.992868896484375,0.0015291092634201048,0.016280688193440435,0.019751725304871796
1772795395323861800,3.00286181640625,0.010272972211241722,0.003972191566601395,0.040676184183545405
1772795395333853700,3.012853759765625,0.006650690060853958,-0.0027503946866840124,0.022580226729065178
1772795395343846000,3.022845947265625,-0.004537058907747268,0.012517317071929573,0.034641141803003844
1772795395353838600,3.032838623046875,0.0012239888370037077,0.005863339075446129,0.03520915094930678
1772795395363830800,3.042830810546875,0.011228665500879286,0.0030017390992492436,0.027608064828440547
1772795395373822700,3.05282275390625,-0.003896422916650772,-0.018857406813651324,0.01991045953053981
1772795395383815000,3.06281494140625,-0.003127192109823227,-0.012730594496428965,-0.00423179235085845
1772795395393808000,3.072807861328125,0.0043920974791049954,-0.006330152869597077,0.0019977131558582186
1772795395403799800,3.0827998046875,0.013114917638897895,-0.013928425978869199,-0.0019687427897006273
1772795395413792000,3.0927919921875,0.01702127742767334,-0.023087372533604503,-0.04059230529237538
1772795395423784700,3.10278466796875,0.01324935767352581,-0.033752778128534555,-0.03706562900356948
1772795395433777000,3.11277685546875,-0.002093172886967659,-0.017957316168770193,-0.05519048375897109
1772795395443768800,3.122768798828125,0.0026958149552345273,-0.03035166444815695,-0.035459947372600435
1772795395453761800,3.13276171875,-0.019070611172914503,-0.02327281210310757,-0.02885605559553951
1772795395463753700,3.142753662109375,-0.005564648389816284,-0.012160466458275914,-0.02191683091688901
1772795395473746000,3.152745849609375,0.00490121604502201,-0.013065890865400432,0.0008490180447697638
1772795395483739000,3.16273876953125,-0.008442834174633025,-0.007225859600305556,-0.019247502109780906
1772795395493730800,3.172730712890625,-0.00651683454811573,-0.01512172741666436,-0.019444559051841497
1772795395503722800,3.18272265625,0.002155132207274437,0.0016375380739569662,-0.022862039345130324
1772795395513714700,3.192714599609375,0.01628361080288887,-0.0011170943964272737,-0.010338146401941776
1772795395523708000,3.2027080078125,0.004101005578041076,0.0018633827190846204,0.002279343108832836
1772795395533699800,3.212699951171875,0.008421791386604309,0.0018582681525498627,-0.004177249152027071
1772795395543691800,3.22269189453125,-0.02114391031563282,0.0067952130980789656,0.02477784637119621
1772795395553684700,3.232684814453125,-0.018809914410114287,-0.013157806932553648,0.018259696648828684
1772795395563677000,3.242677001953125,-0.017025369080901145,-0.007646715360879897,0.021896189987659454
1772795395573668600,3.252668701171875,-0.020748188996315,0.0023046967457979917,0.012461677894555032
1772795395583661800,3.262661865234375,0.018611761489510534,-0.014960910831764339,0.0040735695818439124
1772795395593653800,3.27265380859375,0.02158522434234619,-0.03039711102508008,-0.016255334556475282
1772795395603645700,3.282645751953125,0.011168459746241569,-0.029163185315951703,0.005901552193984389
1772795395613637600,3.2926376953125,0.0015787936240434645,-0.035011692148447036,-0.007767309533245861
1772795395623630800,3.302630859375,0.018232991304993628,-0.05975574584789574,-0.011137991542741655
1772795395633622800,3.312622802734375,0.00011222820281982422,-0.05892572476454079,-0.014585574713349342
1772795395643614700,3.32261474609375,-0.008447510349750519,-0.048045945766568184,0.014056034413911402
1772795395653608000,3.33260791015625,-0.013082768934965133,-0.028424057386443016,0.011545695560798049
1772795395663599600,3.342599609375,-0.015453589719533919,-0.03277947611697018,0.019779672757722435
1772795395673591800,3.352591796875,0.007224106034636497,-0.0070784139536321155,0.011022292741201818
1772795395683584800,3.362584716796875,0.004368716603517532,0.010459653889760374,0.003203399151191115
1772795395693576700,3.37257666015625,0.003252279794216156,0.03271357127390802,0.007313647481612861
1772795395703568600,3.382568603515625,0.0009808277308940886,0.04340374598391354,-0.018130699974298475
1772795395713560800,3.392560791015625,-0.00004734627306461334,0.03776844351068139,-0.015591317689791322
1772795395723553800,3.4025537109375,0.0016448445975780486,0.04888371176496148,-0.02984857376422733
1772795395733545700,3.412545654296875,-0.013431143981218337,0.041429084910079836,-0.03422284332569688
1772795395743538000,3.422537841796875,-0.008795885396003723,0.02525609487481415,-0.026941819472052157
1772795395753530600,3.432530517578125,-0.008560907596349716,0.013272592418640851,-0.0285785538284108
1772795395763522800,3.442522705078125,-0.011531447839736938,-0.005783040380850434,-0.01489617503248155
1772795395773514800,3.4525146484375,0.005171849679946899,-0.01698576772287488,-0.03097944095768034
1772795395783507700,3.4625078125,0.004146013763546943,-0.04243497401699423,-0.028351284411177038
1772795395793499600,3.472499755859375,0.007280220136046409,-0.04725194584466517,0.004193506167083978
1772795395803491800,3.482491943359375,-0.002627425894141197,-0.04370214440859854,-0.02296619383934885
1772795395813483800,3.49248388671875,-0.016566519397497176,-0.014606325240433215,-0.02363580019660294
1772795395823476700,3.502476806640625,-0.006975684231519699,-0.0039072365716099735,-0.00835307353194803
1772795395833468700,3.51246875,-0.009894786548614502,-0.0012114216163754462,0.01591649452354759
1772795395843460900,3.5224609375,-0.0009095160603523254,-0.0035245939295738935,-0.014636026258952915
1772795395853453800,3.532453857421875,0.011131050345301628,0.004595511096715927,-0.009938041168451308
1772795395863445800,3.54244580078125,-0.0037099604338407515,-0.0038973727647215128,0.008136727367527782
1772795395873438000,3.55243798828125,0.009138999745249747,-0.006570610561966896,-0.0005135755453258752
1772795395883430700,3.5624306640625,0.015543606090545654,-0.023576617355272174,0.007538505746051668
1772795395893422800,3.5724228515625,0.0035351883888244625,-0.029522008690983054,0.01894811730440706
1772795395903414800,3.582414794921875,0.0034568624556064603,-0.03675064477026462,0.008783464305847883
1772795395913407000,3.592406982421875,-0.00971709189414978,-0.03432239471003413,0.005805617538839578
1772795395923399700,3.602399658203125,-0.011970423778891563,-0.04556282371394336,-0.01026142790392041
1772795395933392000,3.612391845703125,-0.003162263423204422,-0.03893178820163011,-0.029307269961759447
1772795395943383800,3.6223837890625,0.010415011030435562,-0.029549262024089692,-0.025677681287750602
1772795395953376800,3.632376708984375,-0.01223112054169178,-0.010802037586644291,-0.02609861011356115
1772795395963369000,3.642368896484375,-0.006759995654225349,-0.002094634191691875,-0.03214158007223159
1772795395973361000,3.65236083984375,-0.011785130339860915,0.01964300423339009,-0.022288915632292627
1772795395983353900,3.662353759765625,-0.008107318609952925,0.02739361836016178,-0.02268650011513382
1772795395993345800,3.672345703125,0.000533083963394165,0.03500321658104658,-0.002451594403199851
1772795396003338000,3.682337890625,0.00034662148058414456,0.020476094056665894,0.010188874124363064
1772795396013331200,3.692331298828125,-0.013905775755643843,0.011455021602660417,0.013296813544444739
1772795396023323100,3.7023232421875,-0.004949731361865997,-0.00846460761502385,0.006397482484765351
1772795396033315000,3.712315185546875,-0.009297989699244499,0.0027252602454274893,-0.000187668059207499
1772795396043307000,3.72230712890625,0.007172083586454391,-0.011486951110884547,0.03369421634171158
1772795396053300200,3.73230029296875,-0.001485270121693611,-0.002548223178088665,0.02590951728224754
1772795396063292200,3.742292236328125,-0.003988777375221252,-0.011814356434345245,0.0018030308339744806
1772795396073284000,3.7522841796875,0.015087679016590118,-0.018838994374126193,0.004147840394452214
1772795396083277300,3.76227734375,-0.0003986439287662506,-0.01823489100113511,0.012686426561139523
1772795396093269000,3.77226904296875,-0.0075087681949138636,-0.008322057339176535,0.006317585648968815
1772795396103261200,3.78226123046875,0.00003682487905025482,-0.0072569123256951565,-0.022398988410644232
1772795396113254100,3.792254150390625,0.00265256033539772,-0.011029635797441005,-0.017127404683269558
1772795396123246000,3.80224609375,0.020792028138041495,-0.00764167385958135,-0.017426351097226143
1772795396133238000,3.812238037109375,0.005998948153853416,-0.027780279590189454,-0.019156572423316538
1772795396143230200,3.822230224609375,0.002112462109327316,-0.012552826776728034,-0.021007424454391
1772795396153223200,3.83222314453125,-0.011101824250817299,-0.01713562452234328,-0.015179412420652806
1772795396163215000,3.842215087890625,0.005125087928771972,-0.007518778132274746,-0.018881262613274157
1772795396173207000,3.85220703125,0.005783844098448753,-0.03151866240091622,-0.020301066283322868
1772795396183200000,3.862199951171875,0.006765256351232528,-0.012836100697517394,-0.004891206107661128
1772795396193192200,3.872192138671875,0.010421440771222115,-0.031594723311811686,-0.022808372929133472
1772795396203184000,3.88218408203125,-0.00039630584120750427,-0.028806261637061834,-0.02285809382237494
1772795396213177000,3.892177001953125,0.01303016196489334,-0.026958514878526327,-0.009741422617807983
1772795396223169000,3.9021689453125,-0.011184241837263107,-0.018107538294419644,0.005328501546382904
1772795396233161200,3.9121611328125,-0.0069791913628578185,0.008511953888088465,0.023339593729004262
1772795396243153200,3.922153076171875,-0.008421791386604309,0.0004144990850239992,0.010011179469898343
1772795396253146000,3.93214599609375,-0.005301613539457321,0.018981106258556247,0.016106098811514674
1772795396263138000,3.942137939453125,-0.00889057794213295,0.018839432765543458,0.014899061109311877
1772795396273130200,3.952130126953125,-0.0055956280499696726,0.03757701259180903,-0.002660597511380911
1772795396283123200,3.962123291015625,-0.007369651985168457,0.02313793367706239,-0.011309329521656036
1772795396293115100,3.972115234375,0.004173486292362213,0.00011083996333181857,-0.019170272155106065
1772795396303107300,3.982107421875,-0.006430909830331802,-0.00021627309918403624,-0.025480514747835695
1772795396313100000,3.99210009765625,-0.01972293760180473,-0.03067643942311406,-0.023450068366155027
1772795396323092200,4.00209228515625,0.006013561201095581,-0.030825127178803084,-0.032009112798981366
1772795396333084200,4.012084228515625,-0.015841712254285812,-0.029299305851012467,-0.013861973146535455
1772795396343076400,4.022076416015625,0.0008972411006689071,-0.04142155919075012,-0.0011808072824031114
1772795396353069000,4.032069091796875,-0.008066402077674865,-0.04004983244612813,-0.024349464891292152
1772795396363061200,4.042061279296875,-0.002647299638390541,-0.04020283105075359,-0.015484861640632152
1772795396373053200,4.05205322265625,-0.002740238618850708,-0.02330050382763147,0.005835610818304121
1772795396383046100,4.062046142578125,-0.00564063623547554,-0.008157295231521129,-0.011510368519090115
1772795396393038300,4.072038330078125,0.008829203143715858,0.015529285304248332,-0.014804916552454233
1772795396403030300,4.0820302734375,0.011464812344312666,0.024316549002379177,0.003822919289022684
1772795396413023200,4.092023193359375,0.0016524433821439742,0.025503201503679154,-0.006488485236465931
1772795396423015200,4.10201513671875,-0.0016267244189977644,0.01740033987313509,-0.027110855896025896
1772795396433007400,4.11200732421875,-0.008685410758852959,0.03263020383939147,-0.01605677977707237
1772795396442999000,4.1219990234375,-0.029241292053461074,0.01650894399136305,-0.012025076575577259
1772795396452992300,4.1319921875,-0.022000234884023664,0.027397783078625795,-0.013918964030779897
1772795396462984200,4.141984130859375,-0.016585224097967147,0.037358036078885194,-0.01664188618864864
1772795396472976100,4.15197607421875,0.00003682487905025482,0.02866933738440275,-0.011272650773078203
1772795396482969000,4.161968994140625,0.018598317486047743,0.010848872403055428,0.007396905318275093
1772795396492961300,4.171961181640625,0.006177227330207824,-0.002258665646985173,0.0066912412669509645
1772795396502953000,4.181952880859375,-0.0072749594390392296,-0.030275530472025275,0.03215001910701394
1772795396512946200,4.1919462890625,-0.0015349544823169707,-0.03882810863144696,0.03855243349522352
1772795396522938400,4.2019384765625,-0.00725099404156208,-0.0057281683884561055,0.0390633056268096
1772795396532930000,4.211929931640625,-0.007335165193676948,-0.005772372856363654,0.039674934719130396
1772795396542922200,4.221922119140625,-0.023639818784594535,-0.008911839925870298,0.030145583949424324
1772795396552915200,4.231915283203125,-0.00829319657087326,-0.010452639627084136,0.015815335704013705
1772795396562907100,4.2419072265625,-0.008474398356676101,-0.018261998203769326,-0.00105462361946702
1772795396572899000,4.251899169921875,-0.0008738602250814438,-0.023544687847048044,-0.0368578314717859
1772795396582892300,4.261892333984375,0.0031108254969120022,-0.016644406939297914,-0.025766419017128644
1772795396592884000,4.271884033203125,-0.006119944185018539,-0.01959865363501012,-0.032602292919158934
1772795396602876200,4.281876220703125,0.013501286607980728,-0.018792305688187478,-0.048045653505623336
1772795396612869400,4.291869384765625,0.0005763385832309722,-0.02823525681607425,-0.05123173619583249
1772795396622861000,4.301861083984375,-0.009425999993085861,-0.03943739963620901,-0.03146846658363938
1772795396632853200,4.311853271484375,-0.0061836570709943766,-0.036499665683880446,-0.02795483243949711
1772795396642845200,4.32184521484375,-0.006431494352221488,-0.02165003320686519,-0.016166742957569657
1772795396652838100,4.331838134765625,-0.001948211458325386,-0.030142478676885364,-0.021342538160271943
1772795396662830000,4.341830078125,0.007583586996793746,-0.016768179449439046,-0.03182297910973429
1772795396672822300,4.351822265625,0.003178630036115646,0.009792860544100404,-0.017128573727048933
1772795396682815000,4.36181494140625,0.004446458014845848,0.02753127326518297,-0.005093231485784054
1772795396692807200,4.37180712890625,-0.009237783944606781,0.017824264373630286,0.008716938408277928
1772795396702799000,4.381799072265625,-0.016150924333930016,0.027428032086417076,0.0022996917771175504
1772795396712792000,4.3917919921875,-0.004303834673762321,0.015879413916170596,0.022128245177865026
1772795396722784000,4.401783935546875,-0.0006318681627511978,0.01609466410204768,0.048279498794116076
1772795396732776200,4.411776123046875,0.0035813656181097027,0.016627748065441844,0.05215648635793477
1772795396742768000,4.42176806640625,-0.0020171850413084028,-0.013895254361629486,0.05178096757642924
1772795396752761000,4.431760986328125,0.010415595552325248,-0.021844752061367035,0.02897489620223641
1772795396762753300,4.441753173828125,0.0040308629512786865,-0.016451880041882395,0.03853263281621039
1772795396772745200,4.4517451171875,0.009950900650024413,-0.009718553198873997,0.028921631645038724
1772795396782738200,4.46173828125,0.011249123767018317,-0.018119301797449586,0.013046126719005405
1772795396792730000,4.471730224609375,0.0035761049211025238,-0.013214213294908404,-0.007342215988971293
1772795396802722300,4.481722412109375,-0.0041238019317388535,0.0008623159177601337,-0.024035284375585615
1772795396812715000,4.491715087890625,-0.004084054443240165,0.015460530916973948,-0.038046639397554094
1772795396822707200,4.501707275390625,-0.000043839141726493834,0.004008139662817121,-0.04918645757120103
1772795396832699100,4.51169921875,0.011261398726701736,-0.002645984464138746,-0.05478741938341409
1772795396842691000,4.521691162109375,-0.003839139771461487,-0.012331292980536817,-0.06360843922067433
1772795396852684300,4.531684326171875,-0.0027227029621601103,-0.021108692871779203,-0.0458290734346956
1772795396862676200,4.54167626953125,-0.003787701845169067,-0.025235417412966487,-0.02305065725240856
1772795396872668200,4.551668212890625,-0.005975567278265953,-0.007406403798982501,-0.005323021653667092
1772795396882661000,4.5616611328125,-0.012831424522399902,-0.018580781829357147,-0.015114786219224333
1772795396892653300,4.5716533203125,-0.00024199206233024596,-0.03404752329140901,-0.004456906343623996
1772795396902645000,4.58164501953125,-0.01637070456445217,-0.024221271934360265,-0.004531286754086613
1772795396912638200,4.59163818359375,-0.011805588605999945,-0.025088994679599998,0.010333068368025123
1772795396922630100,4.601630126953125,0.022623335218429564,-0.015159356013312935,0.011851437041722238
1772795396932622000,4.6116220703125,0.01614332554936409,-0.008469283790141344,0.024461693094111978
1772795396942614000,4.621614013671875,0.014226093751192092,-0.008464023093134165,0.02905486610326916
1772795396952607200,4.631607177734375,-0.00199029703438282,0.012723580233752727,0.04275331925116479
1772795396962599200,4.64159912109375,-0.014994740036129951,0.01630399600379169,0.04228157355356961
1772795396972591000,4.651591064453125,-0.02346446221768856,0.02155658276975155,0.04241805941481143
1772795396982584300,4.661584228515625,-0.03534077797234058,0.01567651175521314,0.013534494757838546
1772795396992576000,4.671575927734375,-0.01891512835025787,0.013175854045897722,0.02154781494140625
1772795397002568200,4.681568115234375,0.001975099465250969,0.0018184475988149641,-0.011332198940590024
1772795397012563000,4.69156298828125,0.0021364275068044662,0.0004595072705298662,0.0011893559150397777
1772795397022555100,4.70155517578125,0.001319265905022621,-0.016586100880801678,-0.022122144230641422
1772795397032547000,4.711547119140625,-0.006925999870896339,-0.03763276136703789,-0.030606990916095672
1772795397042539000,4.7215390625,-0.0019487959802150724,-0.04085968752428889,-0.031328437058441336
1772795397052532200,4.7315322265625,-0.022176760494709014,-0.04843479895368218,-0.04088591794408858
1772795397062524200,4.741524169921875,-0.002924363014101982,-0.03279416222944855,-0.0386164386421442
1772795397072515800,4.751515869140625,0.003004442512989044,-0.022949717628583312,-0.024306940923817456
1772795397082509000,4.761509033203125,-0.00776946495771408,-0.020792977986112234,-0.01711713901758194
1772795397092501200,4.771501220703125,0.01219838731586933,-0.0011645137347280979,-0.003022014702297747
1772795397102493000,4.781492919921875,0.002766542103886604,0.025185513856634496,-0.02074373201690614
1772795397112486100,4.791486083984375,0.020655250015854835,0.0360173620596528,0.009392609180137514
1772795397122478000,4.80147802734375,-0.001963409027457237,0.0325453751001507,0.0007216653380542993
1772795397132470000,4.811469970703125,0.002681201907992363,0.04259016457870602,0.00828070241548121
1772795397142462000,4.8214619140625,-0.00658171647787094,0.015118220285326242,0.005582001383416355
1772795397152455200,4.831455078125,-0.014049568140506744,0.00841572697199881,-0.015987294737435875
1772795397162446800,4.84144677734375,-0.008110241219401359,0.013100669917836785,-0.026095650971494612
1772795397172439000,4.85143896484375,-0.0007528641939163207,-0.004217909955978393,-0.028732867607288062
1772795397182432300,4.861432373046875,-0.002142272725701332,-0.011223697064816952,-0.032129195514693856
1772795397192424000,4.871423828125,-0.0182820911437273,-0.010692366667091845,-0.00609564999397844
1772795397202416000,4.881416015625,-0.005308043280243873,-0.03439348718486726,0.0016573022203519939
1772795397212409000,4.8914091796875,0.014535305830836296,-0.026609482245147226,0.02042326789088547
1772795397222401000,4.901401123046875,0.004293313279747963,-0.02166508464552462,0.022929624688625333
1772795397232393000,4.91139306640625,-0.0010913023680448532,-0.018804142256453632,0.04602167339734733
1772795397242385200,4.92138525390625,-0.005652326673269271,-0.0028478637117892503,0.02905939614791423
1772795397252378000,4.931378173828125,0.006047463470697402,-0.006595087416097521,0.04232844490259886
1772795397262370000,4.9413701171875,-0.005649988585710525,-0.0021999211970716716,0.006835472043231129
1772795397272362000,4.951362060546875,-0.010102876341342925,0.003731295482814312,0.02163768518194556
1772795397282355000,4.96135498046875,-0.0005932897180318832,-0.0054179333955049515,0.009109846716001629
1772795397292347100,4.97134716796875,0.02254676285088062,-0.00559979276843369,0.013152509702928363
1772795397302339000,4.981339111328125,0.017249825486540794,-0.0033593934305012224,-0.008483494978584348
1772795397312331000,4.9913310546875,0.00006663549542427062,-0.013232333473488688,-0.006229249778389931
1772795397322324000,5.001323974609375,-0.0031201778471469876,-0.025967531079798937,-0.013372472596541046
1772795397332316200,5.011316162109375,-0.0012929624199867248,-0.013034326683357357,-0.027879173387400806
1772795397342308000,5.02130810546875,-0.001647182685136795,-0.02267784188464284,-0.016860935766808686
1772795397352301000,5.031301025390625,-0.010136194089055061,-0.027380539682880043,-0.018895108475536108
1772795397362293000,5.04129296875,-0.008213117071986197,-0.03706175654605031,-0.00401347342506051
1772795397372285200,5.05128515625,0.0004126724541187286,-0.03022109687104821,-0.01895662940442562
1772795397382278000,5.06127783203125,0.0020160159975290298,-0.006084069154039025,-0.022363149912282825
1772795397392270000,5.07127001953125,0.0018365677773952483,0.013575374757498503,-0.03628525574821979
1772795397402262000,5.081261962890625,0.00005436053574085235,0.009000687253102659,-0.02999992840103805
1772795397412254200,5.091254150390625,-0.013460370075702666,0.018213263691216706,-0.013534494757838546
1772795397422247200,5.1012470703125,-0.00703355189859867,0.01424450619071722,0.007062449199520051
1772795397432239000,5.111239013671875,0.004222586131095886,0.008010580237209797,0.024343984998576342
1772795397442231300,5.121231201171875,-0.0015770400583744047,0.018739771783351896,0.01758128593061119
1772795397452224000,5.13122412109375,-0.01288987671136856,0.004454933582246304,0.01979987529553473
1772795397462216200,5.14121630859375,0.005586860221624374,0.016170359686762094,0.02639306301549077
1772795397472208100,5.1512080078125,-0.0004506663769483566,0.006416808239743113,0.029284802401624618
1772795397482201000,5.161201171875,-0.004534720820188522,-0.0025909663412719964,0.03362973627075553
1772795397492193000,5.171193115234375,-0.012355039182305336,-0.004985971719026565,0.00040302784293889997
1772795397502185200,5.181185302734375,0.0036181904971599576,-0.00494827005714178,-0.012520678072795272
1772795397512177000,5.191177001953125,-0.012293079861998558,-0.014370982114598155,-0.034084750029258426
1772795397522170000,5.201170166015625,-0.0048597149908542634,-0.021407968079298734,-0.03407934320177883
1772795397532162300,5.211162353515625,0.005261281529068946,-0.014169395127892493,-0.046070188714191315
1772795397542154000,5.221154052734375,0.011619710645079611,-0.019550868970528244,-0.04614730907101184
1772795397552147200,5.231147216796875,0.017636778977513312,-0.024286007733643054,-0.04322809715606272
1772795397562139100,5.24113916015625,-0.007502338454127311,-0.02312010575942695,-0.03788907421566546
1772795397572131000,5.251131103515625,-0.0015717793613672256,-0.019599092026427387,-0.04632778020445257
1772795397582124000,5.2611240234375,0.0020627777487039565,-0.01288899992853403,-0.040969029650278384
1772795397592116200,5.2711162109375,-0.014549334356188773,-0.015194719587638973,-0.031135398704372343
1772795397602108000,5.28110791015625,0.0015618424892425537,-0.020461627139896153,-0.024433270717225966
1772795397612100000,5.29110009765625,0.0027022446960210797,-0.017531491972133516,0.0016493015769869087
1772795397622093000,5.301093017578125,0.014156535646319388,-0.0044560295607894655,0.02100694953035563
1772795397632085000,5.3110849609375,-0.0045960956186056135,0.00506269021704793,0.03032046559229493
1772795397642077000,5.321076904296875,0.009181085321307183,0.01555485813692212,0.026562610896117982
1772795397652070100,5.331070068359375,0.005218026909232139,0.01931348001807928,0.0321294877756387
1772795397662062000,5.34106201171875,0.0031283611536026,0.01912007633782923,0.05379274579025805
1772795397672054000,5.351053955078125,-0.021481763967871666,0.0320437822535634,0.0558845304377377
1772795397682046200,5.361046142578125,-0.03437105615735054,0.03621032734848559,0.027484876840189097
1772795397692039000,5.371038818359375,-0.017874094864726065,0.023420550010725856,-0.004829392917826771
1772795397702031000,5.381031005859375,-0.0068710548132658,0.0036550153762102125,0.004944616795331239
1772795397712023000,5.39102294921875,0.020321488016843796,-0.019020196159929035,-0.03247238292917609
1772795397722016000,5.40101611328125,0.021468319964408872,-0.03465294183865189,0.001054185228049755
1772795397732008000,5.411008056640625,0.016708558216691018,-0.055170317753776905,-0.019261055711098013
1772795397742000000,5.421000244140625,-0.02151975789070129,-0.059481093624979255,-0.014330138647556305
1772795397751993000,5.4309931640625,-0.01648527085483074,-0.04609634606875479,-0.013221958209946752
1772795397761985000,5.440985107421875,-0.01781856528520584,-0.0486860703010112,-0.0028909356685355306
1772795397771977200,5.450977294921875,-0.017095511707663536,-0.0351546077504754,0.004848097618296742
1772795397781969200,5.46096923828125,-0.00009060089290142059,-0.031540728102251885,-0.007640285620093345
1772795397791962000,5.470962158203125,0.0016916063487529753,-0.004687573294341564,0.0016844459556043148
1772795397801954000,5.4809541015625,0.004557517173886299,0.013809183513373135,0.023271569994091985
1772795397811946200,5.4909462890625,-0.0056850598990917205,0.01916691115424037,0.006627601446211337
1772795397821939000,5.50093896484375,-0.005533668729662895,0.027237989407032728,0.010681918338313699
1772795397831931100,5.51093115234375,-0.002763619494438171,0.028519699780642983,0.011443404230102896
1772795397841923000,5.520923095703125,0.004541735082864761,0.024112916189059613,0.016210801295004785
1772795397851916000,5.530916015625,0.01042377885878086,0.03341280558444559,-0.02090663096103817
1772795397861908000,5.540907958984375,-0.0015910685837268828,0.006781038442254066,-0.011486658849939704
1772795397871900200,5.550900146484375,-0.012271452552080155,-0.022158055794239042,-0.019524675083346665
1772795397881891800,5.560891845703125,-0.015378770917654036,-0.020786475180089473,-0.000984152199141681
1772795397891885000,5.570885009765625,-0.01017243444621563,-0.024158874222636222,0.0034295725898817178
1772795397901877200,5.580877197265625,-0.008342296409606932,-0.02182232103385031,0.0031193741295486685
1772795397911869000,5.590868896484375,-0.003446341061592102,-0.010663213637843727,-0.008692534619383513
1772795397921862100,5.600862060546875,-0.0010194061756134032,0.0016110153932124376,-0.015276296923868357
1772795397931854000,5.61085400390625,-0.005337853896617889,-0.012875336729362606,-0.013638356991112231
1772795397941846000,5.620845947265625,-0.0020715455770492553,-0.002798033220693469,-0.03530746022462845
1772795397951839000,5.6308388671875,-0.007197802549600601,-0.004770429272204637,-0.02370013413708657
1772795397961831200,5.6408310546875,-0.010351882666349411,0.0015552666179835795,-0.011920410624705254
1772795397971823000,5.650822998046875,-0.027512860825657844,-0.003737798288837075,-0.01551346668060869
1772795397981815000,5.66081494140625,-0.024384499672055242,0.008464096158370375,0.01559698024559766
1772795397991808300,5.670808349609375,-0.008283844220638275,0.002429272973537445,0.017421163465455174
1772795398001800000,5.680800048828125,-0.0010948094993829727,-0.013272738549113273,0.021886545376479626
1772795398011790300,5.690790283203125,0.0029477438896894454,-0.01524155440405011,0.030519495295733213
1772795398021783300,5.700783203125,-0.002555529701709747,-0.01594005806222558,0.046585042901150876
1772795398031775200,5.710775146484375,0.01092354507446289,-0.029661928618326783,0.04166760637369007
1772795398041767400,5.720767333984375,0.002258592581748962,-0.05058211318068206,0.025687435496784747
1772795398051759400,5.73075927734375,-0.007311199796199798,-0.029081059990450738,0.0037204452952370047
1772795398061752300,5.74075244140625,0.004357610687613487,-0.036857173884660005,0.001422507083788514
1772795398071744300,5.750744140625,0.00492518144249916,-0.04404876588918268,-0.02910995729137212
1772795398081736400,5.760736328125,0.006975684231519699,-0.03902377733401954,-0.04288012396860867
1772795398091729400,5.7707294921875,-0.004338905987143516,-0.03367401380389928,-0.02032415489796549
1772795398101721300,5.780721435546875,-0.007466682618856429,-0.017426497227698564,-0.006641629971563816
1772795398111713300,5.79071337890625,-0.005684475377202034,-0.010268807492777705,-0.025088446690328416
1772795398121706200,5.800706298828125,-0.03310673530995845,0.006701689595729112,-0.027429895249940453
1772795398131698400,5.810698486328125,-0.012099603116512299,0.0014728490315377711,-0.036707865074463185
1772795398141690400,5.8206904296875,0.012913257586956023,0.0162622026886791,-0.0188883134085685
1772795398151682300,5.830682373046875,0.006019406419992447,0.009028086716681719,-0.03306340762488544
1772795398161675300,5.84067529296875,-0.00120820674598217,0.011618906927481293,-0.0059306321579962965
1772795398171667500,5.85066748046875,-0.007984569013118743,0.010798603520542382,0.02988287789262831
1772795398181659100,5.8606591796875,-0.0075397478550672525,-0.0015652765553444623,0.03069371935147792
1772795398191652400,5.87065234375,-0.005075403568148612,-0.010672785183787345,0.04453015619795769
1772795398201644300,5.880644287109375,0.00449906498491764,-0.015880144568532706,0.03374010131005198
1772795398211636200,5.89063623046875,0.006503390544652939,-0.027537995266914365,0.024137173847481607
1772795398221628200,5.900628173828125,0.014852116695046423,-0.010242430942505598,0.025283859664574262
1772795398231621400,5.910621337890625,-0.008671966755390167,-0.031093495791405436,-0.000052753100544214245
1772795398241613300,5.92061328125,-0.009127893829345703,-0.00741173756122589,-0.0010381474087014795
1772795398251605200,5.930605224609375,-0.005834697502851486,-0.026280250290781258,-0.019777078941836952
1772795398261598500,5.940598388671875,-0.018109657186269758,-0.015925737275928258,-0.029365977879054844
1772795398271590100,5.950590087890625,-0.027279636591672894,-0.007860650372505187,-0.04076247422751039
1772795398281582300,5.960582275390625,-0.01452595348060131,-0.0069580024443566795,-0.0336187399527058
1772795398291575300,5.9705751953125,0.016720248654484748,-0.0005124065015465021,-0.0354658291241154
1772795398301567200,5.980567138671875,0.017636778977513312,0.01502586582675576,-0.04055617453306913
1772795398311559200,5.99055908203125,0.00215805481672287,0.0008022562935948371,-0.04502809578273445
1772795398321551400,6.00055126953125,-0.00782265644967556,-0.003616802257671952,-0.03774257841706276
1772795398331544300,6.01054443359375,-0.006625555619597435,0.006067702541127801,-0.02863901531137526
1772795398341536300,6.020536376953125,-0.010939327165484427,0.011229250022768974,0.008456753102131188
1772795398351528200,6.030528076171875,-0.01687690052092075,0.0022325813576579093,0.016124584316276013
1772795398361521200,6.040521240234375,-0.016907880181074142,0.00327573373503983,0.010941007665917277
1772795398371513300,6.050513427734375,-0.001183072304725647,0.0023155834659934044,0.04422868903335184
1772795398381505300,6.06050537109375,0.0027671266257762906,-0.008123758288100361,0.06111231155600398
1772795398391498200,6.070498291015625,-0.001740121665596962,-0.021177154998108745,0.033769546600244935
1772795398401490200,6.080490234375,-0.02114332579374313,-0.005080152808502316,0.006531520660594105
1772795398411482400,6.090482421875,0.0048620530784130095,-0.004141702914610505,0.00500058476626873
1772795398421474300,6.100474365234375,-0.015775661280751228,-0.012125833536311983,-0.008849223018437623
1772795398431467300,6.11046728515625,-0.013771920242905616,-0.023465850457176564,-0.02362966271676123
1772795398441459200,6.120459228515625,-0.012671265524625778,-0.01465389070920646,0.003557765546813607
1772795398451451400,6.130451416015625,-0.009836334359645843,-0.025649551171809434,-0.02338763412181288
1772795398461444400,6.1404443359375,0.0009708908587694168,-0.03666347794346511,-0.029192046084254977
1772795398471436300,6.150436279296875,-0.0014887772530317305,-0.045296427862718695,-0.02156673883758485
1772795398481428500,6.160428466796875,0.0004699555993080139,-0.025872984664142132,-0.007977152891643345
1772795398491420200,6.170420166015625,0.0005751695394515991,-0.020334201367944477,0.015044241733662783
1772795398501413400,6.180413330078125,-0.0018465046495199202,-0.014279504438862204,0.011885375843942165
1772795398511405300,6.1904052734375,-0.009468670091032982,0.006986351756006479,0.025214118896611033
1772795398521397200,6.200397216796875,0.004042553389072418,0.007532806657627225,0.01777764875292778
1772795398531390200,6.21039013671875,-0.009026771542429923,0.009550868481770157,0.0025134806582704184
1772795398541382400,6.22038232421875,-0.009625906479358673,0.014999781537428498,0.012916582055203615
1772795398551374000,6.2303740234375,-0.0019376900643110274,0.007627572268992662,-0.0032168431546539065
1772795398561367300,6.2403671875,-0.005889642560482025,0.019097353049367664,-0.020581746388226747
1772795398571359500,6.250359375,-0.0021855273455381394,0.014843202736228703,-0.011485307143069803
1772795398581351200,6.26035107421875,0.0034749826341867445,0.0006560527559369802,-0.0035823519987985488
1772795398591343400,6.27034326171875,-0.012286650121212005,-0.010344283881783484,-0.015644399583898485
1772795398601336300,6.28033642578125,0.001955225721001625,-0.017362419015541673,0.006026493747904896
1772795398611328300,6.290328369140625,0.00909925225675106,-0.030682138511538504,0.005741758522391319
1772795398621320200,6.3003203125,0.0031762919485569,-0.014470570031553507,0.007895794751122594
1772795398631313400,6.3103134765625,-0.013238251757621765,-0.005098126856610178,0.01741349161565304
1772795398641305000,6.32030517578125,0.019487959802150723,-0.02221745783127844,0.024327070396393535
1772795398651297300,6.33029736328125,0.0011754735201597213,0.0029662293944507836,0.0049115182433277366
1772795398661289200,6.340289306640625,-0.012497078001499176,-0.004399477067962288,0.01234839024581015
1772795398671282200,6.3502822265625,-0.005150222370028495,-0.00720839700885117,0.012694317606650293
1772795398681274000,6.360274169921875,-0.001866378393769264,0.0033334552716463802,0.02026435100212693
1772795398691266300,6.370266357421875,0.0017366145342588423,0.0016745821487158536,0.011745200188271701
1772795398701259300,6.38025927734375,-0.014186346262693404,-0.005637056038901209,-0.012758067025244235
1772795398711251200,6.390251220703125,-0.021673487147688863,-0.008644348096102476,-0.019105390225350856
1772795398721243400,6.400243408203125,0.0026665888607501982,-0.035999168815836306,-0.00508888410422951
1772795398731236000,6.410236083984375,0.005817746368050575,-0.05357325782068074,-0.007870368048921227
1772795398741228300,6.420228271484375,-0.0061871642023324964,-0.04376585729457438,-0.007160100887715816
1772795398751220200,6.43022021484375,0.010194061756134033,-0.038269744096323846,-0.03316584508605301
1772795398761212400,6.44021240234375,0.000037409400939941404,-0.0352774304125458,-0.03402830713428557
1772795398771205000,6.450205078125,-0.013590718457102774,-0.02542100311294198,-0.005597235485166311
1772795398781197300,6.460197265625,-0.014701310047507285,-0.020651596754044294,-0.005863923597335815
1772795398791189200,6.470189208984375,0.0007692308068275451,0.002984276507794857,-0.010015965242870151
1772795398801182200,6.48018212890625,-0.009264087429642676,0.002906169770285487,-0.021273162718489766
1772795398811174400,6.49017431640625,-0.0013695347875356673,0.008157879753410816,-0.027456344865448772
1772795398821166300,6.500166259765625,0.007872925332188606,0.011823197327926754,-0.0031214199561625717
1772795398831158300,6.510158203125,-0.014133154770731925,0.00936294469423592,0.012120718969777226
1772795398841151200,6.520151123046875,-0.004382160606980323,0.0024336568877100944,0.01740136278644204
1772795398851143400,6.530143310546875,-0.005647650498151779,0.017151187417656182,0.0188910168223083
1772795398861135400,6.54013525390625,0.0010667524486780166,0.010915215637534855,0.02350895894654095
1772795398871128300,6.55012841796875,-0.002167407166957855,0.004987725284695625,0.03140932027492672
1772795398881120300,6.560120361328125,0.010352467188239097,-0.0012123714644461869,0.04386014798190444
1772795398891112400,6.570112548828125,-0.010012859970331191,-0.00722973205782473,0.036584421357885
1772795398901105400,6.58010546875,0.0021054478466510772,-0.01263787471167743,0.03923504546452313
1772795398911097300,6.590097412109375,0.0009071779727935791,-0.00627718057334423,0.018967552657239137
1772795398921089300,6.60008935546875,0.010022212320566177,-0.004382379802688956,0.008915602785535156
1772795398931081200,6.610081298828125,0.003701777127385139,0.008564268597215414,-0.01031231784094125
1772795398941074400,6.620074462890625,-0.008022562935948371,-0.0009950754519551992,-0.020699491016380488
1772795398951066400,6.63006640625,-0.0064554597496986384,0.011604951467365026,-0.019477182679809628
1772795398961058300,6.640058349609375,0.0009147767573595046,-0.00528466240465641,-0.04505582403987646
1772795398971051300,6.65005126953125,0.0039010990917682647,-0.009116203391551971,-0.05359503126107156
1772795398981043500,6.66004345703125,0.007901566904783249,-0.018576763241365552,-0.0572104087466374
1772795398991035100,6.67003515625,-0.0048883565634489055,-0.016529986779391763,-0.04069751923251897
1772795399001027300,6.68002734375,-0.027248656931519507,-0.015801380243897437,-0.03668616469930857
1772795399011020500,6.6900205078125,-0.018811667975783347,-0.02465476798079908,-0.029672632675431666
1772795399021012200,6.70001220703125,-0.011438508859276771,-0.03053184332065284,-0.012724493549205362
1772795399031004400,6.71000439453125,-0.005737082347273826,-0.019666458174213766,-0.0063170011270791285
1772795399040997600,6.71999755859375,-0.006056231299042702,-0.04630955042801797,0.002237805522046983
1772795399050989300,6.7299892578125,0.015891981136798856,-0.028068960338458418,0.03310896379966288
1772795399060981500,6.7399814453125,0.014347089782357216,-0.0195822870220989,0.011602649912424386
1772795399070974500,6.749974365234375,0.03180442053973675,-0.00818126062899828,0.0031579891068860885
1772795399080966400,6.75996630859375,0.011293547430634498,0.004412117353826761,-0.012955745021812617
1772795399090958300,6.769958251953125,-0.016191256344318387,0.014846782932803034,0.009983962669409811
1772795399100950500,6.779950439453125,-0.021877485287189483,0.02580992936529219,-0.0025388708278536796
1772795399110943200,6.789943115234375,-0.021348492977023122,0.02895246517471969,0.007922609692811965
1772795399120935400,6.799935302734375,-0.015676292559504507,0.047071547776460644,0.023242051638662813
1772795399130927400,6.80992724609375,0.013503040173649786,0.010270561058446764,0.0036003260469064115
1772795399140920300,6.81992041015625,0.01783259381055832,0.003913374051451683,-0.011391199118830263
1772795399150912500,6.82991259765625,0.022840777361392974,-0.017157544093206523,-0.03038414194565266
1772795399160904400,6.839904541015625,0.01818330694437027,-0.03413965855427086,-0.04545994786135852
1772795399170896400,6.849896484375,0.012384265276789664,-0.04166881195008754,-0.036091779002733526
1772795399180889300,6.859889404296875,-0.002645546072721481,-0.0618584172155708,-0.0344031683286652
1772795399190881500,6.869881591796875,-0.012224690800905227,-0.04685556693822145,-0.043032684181816876
1772795399200873500,6.87987353515625,-0.02498947982788086,-0.04875007544793188,-0.03563647298328578
1772795399210866400,6.889866455078125,-0.002613397368788719,-0.03535400278009474,-0.008248553711548447
1772795399220858400,6.8998583984375,0.019313187757134437,-0.016060177310556173,0.020924970335327087
1772795399230850600,6.9098505859375,0.018798223972320557,-0.00631181349530816,0.025402882934361694
1772795399240843300,6.91984326171875,0.014015665870904921,0.017468144412338734,0.019789792292937636
1772795399250835500,6.92983544921875,-0.008725158247351646,0.050710707996413106,0.014017127175629139
1772795399260827400,6.939827392578125,-0.034085224953293795,0.07557363883517682,-0.03863890620227903
1772795399270819300,6.9498193359375,0.09761106392443179,0.12963307273760438,-0.054706718830019235
1772795399280812500,6.9598125,0.04833119244873523,0.05619359638690948,0.025217954821512102
1772795399290804500,6.969804443359375,-0.08177636593282223,-0.012802344558387994,0.08445804276484996
1772795399300796400,6.97979638671875,-0.15582418344020843,-0.03131093793436885,0.07045728220213204
1772795399310789400,6.989789306640625,-0.1324748720347881,-0.029761954926699398,0.07977704534176737
1772795399320781600,6.999781494140625,0.0029021511822938917,-0.0318695947304368,0.07774444353561848
1772795399330773200,7.009773193359375,0.13241291271448136,-0.02515555710978806,0.06957191420234739
