time,seconds_elapsed,z,y,x
1772795392396115500,0.075115478515625,-0.015885038301348686,-0.19547298550605774,0.012452838942408562
1772795392406108700,0.085108642578125,-0.014804700389504433,-0.1414732038974762,0.007767137140035629
1772795392416100900,0.095100830078125,-0.008935625664889812,-0.07351332902908325,0.007890441454946995
1772795392426092500,0.105092529296875,-0.006857401691377163,-0.0006370563060045242,0.007904954254627228
1772795392436085800,0.115085693359375,-0.002974779112264514,0.0648370310664177,0.0039035542868077755
1772795392446077700,0.12507763671875,-0.0004287972114980221,0.11762061715126038,0.0022920756600797176
1772795392456069600,0.135069580078125,-0.001443195273168385,0.15000012516975403,-0.012522823177278042
1772795392466062600,0.1450625,-0.00009445357136428356,0.16008399426937103,-0.02326340414583683
1772795392476054800,0.1550546875,0.0065767643973231316,0.14458972215652466,-0.03148404881358147
1772795392486046500,0.16504638671875,0.008182832039892673,0.11907745897769928,-0.0296524316072464
1772795392496039700,0.175039794921875,0.014802118763327599,0.08485398441553116,-0.01913055032491684
1772795392506031900,0.185031982421875,0.015106325969099998,0.03927473723888397,-0.00297658727504313
1772795392516023600,0.1950234375,0.013638658449053764,-0.0020047915168106556,0.006031288765370846
1772795392526015700,0.205015625,0.010132936760783195,-0.03475027531385422,0.00803873036056757
1772795392536008700,0.2150087890625,0.013958834111690521,-0.0649300143122673,0.010349022224545479
1772795392546000600,0.225000732421875,0.01047377847135067,-0.07889660447835922,0.007706040982156992
1772795392555992600,0.23499267578125,0.007064132951200008,-0.07910460233688354,0.004117963835597038
1772795392565985800,0.24498583984375,0.00460470374673605,-0.0700562447309494,0.004538743291050196
1772795392575977500,0.2549775390625,0.0023109230678528547,-0.05455664545297623,0.006263672839850187
1772795392585969700,0.2649697265625,-0.004710734821856022,-0.03397643566131592,0.004447503946721554
1772795392595963000,0.274962890625,-0.005947506986558437,-0.016579600051045418,0.00012119876919314265
1772795392605954600,0.28495458984375,-0.0066333552822470665,-0.000585164874792099,-0.0019122296944260597
1772795392615946800,0.29494677734375,-0.00506129115819931,0.010380933061242104,-0.004070189315825701
1772795392625939700,0.304939697265625,-0.005813848692923784,0.012986179441213608,-0.003470979630947113
1772795392635931600,0.314931640625,-0.0038004987873136997,0.016895700246095657,-0.006107775494456291
1772795392645923600,0.324923583984375,-0.004128236789256334,0.010509482584893703,-0.00036141707096248865
1772795392655916800,0.334916748046875,-0.001196895376779139,0.00351122859865427,-0.0004788624355569482
1772795392665908500,0.344908447265625,0.0009881309233605862,-0.005107337608933449,0.0030473731458187103
1772795392675900700,0.354900634765625,0.0034944319631904364,-0.013169791549444199,0.0032383217476308346
1772795392685892600,0.364892578125,0.0035430414136499166,-0.018527640029788017,0.001296852482482791
1772795392695885600,0.374885498046875,0.005185678601264954,-0.01823948696255684,-0.00006189238047227263
1772795392705877500,0.38487744140625,0.00650095846503973,-0.012554619461297989,0.0007995053310878575
1772795392715869700,0.39486962890625,0.005422111600637436,-0.0030577874276787043,-0.0009387399186380208
1772795392725862700,0.404862548828125,0.004520239308476448,0.011708270758390427,-0.0020572938956320286
1772795392735854600,0.4148544921875,0.002306087641045451,0.02261391654610634,-0.002269281540066004
1772795392745846800,0.4248466796875,0.0014324435032904148,0.0330725833773613,-0.00054996891412884
1772795392755839500,0.434839599609375,-0.0048906998708844185,0.041659947484731674,-0.0024637163151055574
1772795392765831700,0.444831787109375,-0.0019575264304876328,0.04563407599925995,-0.000607068301178515
1772795392775823600,0.45482373046875,-0.0056803589686751366,0.0455123707652092,-0.003493668744340539
1772795392785816600,0.464816650390625,-0.007151521742343903,0.038202956318855286,-0.005904469173401594
1772795392795808500,0.47480859375,-0.005367469973862171,0.028689611703157425,-0.003855699673295021
1772795392805800700,0.48480078125,-0.0049890452064573765,0.01808168925344944,-0.006756759248673916
1772795392815792600,0.494792724609375,-0.004318461287766695,0.007896962575614452,-0.0002168344217352569
1772795392825785600,0.50478564453125,-0.003728794865310192,-0.002127853687852621,0.0021514338441193104
1772795392835777800,0.51477783203125,0.0004427805542945862,-0.016032749786973,0.0026039050426334143
1772795392845769700,0.524769775390625,0.00035281735472381115,-0.026400292292237282,0.0023588924668729305
1772795392855762700,0.5347626953125,0.002108373213559389,-0.03300359845161438,0.0034619737416505814
1772795392865754600,0.544754638671875,0.005591395311057568,-0.03826291486620903,0.001661917893216014
1772795392875746800,0.554746826171875,0.0030928177293390036,-0.04235938936471939,0.0015940072480589151
1772795392885739500,0.564739501953125,0.0022435567807406187,-0.03733071684837341,-0.0005609916406683624
1772795392895731700,0.574731689453125,0.0011250292882323265,-0.03062700852751732,0.0019354554824531078
1772795392905723600,0.5847236328125,-0.0012204702943563461,-0.016754262149333954,0.0030549101065844297
1772795392915716600,0.594716552734375,-0.00596835371106863,-0.0009563914500176907,0.0007779074367135763
1772795392925708800,0.604708740234375,-0.006740745157003403,0.012748010456562042,0.0009816125966608524
1772795392935700700,0.61470068359375,-0.007670721039175987,0.025575391948223114,-0.000697776791639626
1772795392945693700,0.624693603515625,-0.007831884548068047,0.033461954444646835,-0.00465728435665369
1772795392955685600,0.634685546875,-0.006076861638575792,0.034784212708473206,-0.007367317099124193
1772795392965677800,0.644677734375,-0.0015499033033847809,0.027636371552944183,-0.0036277598701417446
1772795392975669500,0.65466943359375,-0.0009754594648256898,0.018970977514982224,-0.002367019420489669
1772795392985662700,0.664662841796875,0.0031426281202584505,0.0031607127748429775,-0.002963114995509386
1772795392995654700,0.674654541015625,0.0075341807678341866,-0.010905038565397263,0.0012984753120690584
1772795393005646300,0.684646240234375,0.011651067063212395,-0.020315848290920258,0.0019209389574825764
1772795393015639000,0.69463916015625,0.0131903737783432,-0.025665871798992157,-0.0004498070338740945
1772795393025631200,0.70463134765625,0.012600515969097614,-0.023993834853172302,-0.0013272103387862444
1772795393035623200,0.714623046875,0.012648718431591988,-0.02241005189716816,0.0022675246000289917
1772795393045616000,0.7246162109375,0.00994502380490303,-0.0120627973228693,-0.0009491791715845466
1772795393055608300,0.7346083984375,0.005173970945179462,0.003150776494294405,0.0009661662625148892
1772795393065600300,0.744600341796875,-0.001072324113920331,0.017508596181869507,-0.001535021117888391
1772795393075593200,0.75459326171875,-0.005689979065209627,0.031338658183813095,-0.004400316160172224
1772795393085585200,0.764585205078125,-0.003576962510123849,0.03736560046672821,-0.004018736071884632
1772795393095577300,0.774577392578125,-0.004895759746432304,0.040449272841215134,-0.009174083359539509
1772795393105570000,0.784570068359375,-0.0017282282933592796,0.036817148327827454,-0.0074356794357299805
1772795393115562200,0.794562255859375,0.0016811506357043982,0.025816962122917175,-0.0071043819189071655
1772795393125554200,0.80455419921875,0.004386815242469311,0.008795838803052902,-0.003860786557197571
1772795393135546000,0.814546142578125,0.002286646282300353,-0.009561064653098583,-0.0009683272219263017
1772795393145539000,0.8245390625,0.001520996680483222,-0.02823379822075367,0.0014272655826061964
1772795393155531300,0.83453125,0.0012781163677573204,-0.04676966369152069,0.005630799103528261
1772795393165523000,0.84452294921875,-0.0012138225138187408,-0.05783647298812866,0.005847156513482332
1772795393175516200,0.85451611328125,-0.0023067838046699762,-0.05872436612844467,0.00449613481760025
1772795393185508400,0.86450830078125,0.0010728195775300264,-0.056351881474256516,0.007044777739793062
1772795393195500000,0.8745,-0.0012063137255609035,-0.04494183510541916,0.004378953482955694
1772795393205493200,0.8844931640625,-0.00059317029081285,-0.03314458206295967,0.0018288171850144863
1772795393215485200,0.894485107421875,-0.002491471590474248,-0.01965434104204178,-0.00017947267042472959
1772795393225477000,0.90447705078125,-0.0027229420375078917,0.0010401606559753418,-0.0035418998450040817
1772795393235470000,0.914469970703125,-0.0009277052013203502,0.01685001701116562,-0.0011490497272461653
1772795393245462300,0.924462158203125,-0.000020300736650824547,0.030191857367753983,-0.003443682100623846
1772795393255454000,0.934453857421875,0.0009051477536559105,0.04263068363070488,-0.0054229432716965675
1772795393265447200,0.944447265625,0.000362129183486104,0.0459979847073555,-0.002829823177307844
1772795393275439400,0.954439453125,-0.0018677355255931616,0.04671331122517586,-0.0037390263751149178
1772795393285431000,0.96443115234375,-0.00009971554391086102,0.03963528946042061,-0.006356910336762667
1772795393295423200,0.97442333984375,-0.0043517183512449265,0.03314250335097313,-0.0048338486813008785
1772795393305416200,0.984416259765625,-0.00460103340446949,0.019591154530644417,-0.00443189637735486
1772795393315408100,0.994408203125,-0.004264942370355129,0.00486547127366066,-0.0013088074047118425
1772795393325400000,1.004400146484375,-0.008679952472448349,-0.0057023074477910995,-0.004279328044503927
1772795393335393300,1.014393310546875,-0.004943803884088993,-0.013274473138153553,0.0006709557492285967
1772795393345385000,1.024385009765625,-0.006846464239060879,-0.02229517325758934,0.003066947218030691
1772795393355377200,1.034377197265625,-0.004466396756470203,-0.020143870264291763,0.0019505501259118319
1772795393365370400,1.044370361328125,-0.004908299073576927,-0.020904451608657837,0.00046067143557593226
1772795393375362000,1.054362060546875,-0.0031665917485952377,-0.014752015471458435,-0.00007835234282538295
1772795393385354000,1.06435400390625,-0.0012180316261947155,-0.00833748560398817,0.004253785125911236
1772795393395347200,1.07434716796875,-0.0011218915460631251,0.0020051668398082256,0.003383730538189411
1772795393405339100,1.084339111328125,0.0005072059575468302,0.009252283722162247,-0.0005780680221505463
1772795393415331000,1.0943310546875,-0.004351465031504631,0.013502156361937523,-0.0033757188357412815
1772795393425323300,1.1043232421875,-0.0012383342254906893,0.014905628748238087,-0.0039972951635718346
1772795393435316000,1.11431591796875,-0.004065279848873615,0.01887054368853569,-0.006189076695591211
1772795393445308200,1.12430810546875,-0.0036287668626755476,0.012548232451081276,-0.006641393061727285
1772795393455300000,1.134300048828125,-0.006521225906908512,0.00889757089316845,-0.003832557238638401
1772795393465293000,1.14429296875,-0.0075846267864108086,0.004642372485250235,-0.003311110194772482
1772795393475285000,1.154284912109375,-0.004192025400698185,-0.0020232535898685455,-0.0016242638230323792
1772795393485277200,1.164277099609375,-0.004468120634555817,-0.005999660585075617,0.0009784703142940998
1772795393495270100,1.174270263671875,-0.005627128295600414,-0.012242643162608147,0.0019151041051372886
1772795393505262000,1.184261962890625,-0.002743023680523038,-0.0165021400898695,0.006207533646374941
1772795393515254300,1.194254150390625,-0.0042945812456309795,-0.01842467673122883,-0.000635458854958415
1772795393525247000,1.2042470703125,0.0014627063646912575,-0.016083022579550743,0.0014060669345781207
1772795393535239200,1.2142392578125,0.0002160805743187666,-0.01780262589454651,-0.0018658926710486412
1772795393545231000,1.224231201171875,-0.0021519602742046118,-0.0089632049202919,-0.005371491890400648
1772795393555224000,1.23422412109375,0.000038489699363708496,-0.005727464333176613,-0.009943606331944466
1772795393565216000,1.244216064453125,0.0002994793467223644,-0.006250775419175625,-0.007390167564153671
1772795393575208200,1.254208251953125,-0.0026752715930342674,-0.006059560459107161,-0.003715537954121828
1772795393585200000,1.2642001953125,-0.0023025784175843,-0.006529791746288538,-0.0016143573448061943
1772795393595193000,1.274193115234375,-0.0018927179044112563,-0.006872008088976145,0.0043114423751831055
1772795393605185300,1.284185302734375,-0.002907817019149661,-0.007091944571584463,0.003949839621782303
1772795393615177200,1.29417724609375,-0.0020726497750729322,-0.007126033306121826,0.0037160140927881002
1772795393625170200,1.304170166015625,-0.0017971853958442807,-0.005483128130435944,0.0015017809346318245
1772795393635162000,1.314162109375,-0.0035777748562395573,-0.0010590851306915283,-0.001331822481006384
1772795393645154300,1.324154296875,-0.00037427712231874466,-0.00001996150240302086,-0.004089417867362499
1772795393655147000,1.33414697265625,0.0032998197712004185,0.004968937952071428,-0.008472980931401253
1772795393665139200,1.34413916015625,0.002728665480390191,0.0015899194404482841,-0.007053064648061991
1772795393675131100,1.354131103515625,0.0033638293389230967,0.001722012646496296,-0.00592042226344347
1772795393685124000,1.3641240234375,0.006272098980844021,0.0010570618323981762,-0.0006126879598014057
1772795393695116000,1.374115966796875,0.00960557721555233,-0.004926794674247503,-0.0009245441178791225
1772795393705108200,1.384108154296875,0.009543185122311115,-0.008770761080086231,-0.0006611843127757311
1772795393715100200,1.39410009765625,0.011567720212042332,-0.008632276207208633,-0.00018474477110430598
1772795393725093000,1.404093017578125,0.012305384501814842,-0.011197269894182682,0.0004124950501136482
1772795393735085300,1.414085205078125,0.009085888043045998,-0.011281691491603851,-0.0011342689394950867
1772795393745077200,1.4240771484375,0.00421356875449419,-0.00804562121629715,-0.0014727036468684673
1772795393755070200,1.4340703125,0.0034811997320502996,-0.007672246545553207,0.00023358361795544624
1772795393765062100,1.444062255859375,-0.000925210420973599,-0.003865340258926153,0.00466655008494854
1772795393775054300,1.454054443359375,-0.002924711909145117,0.0018151821568608284,0.0006521011237055063
1772795393785047000,1.464047119140625,-0.00036293244920670986,0.000007673166692256927,-0.0006484815967269242
1772795393795039200,1.474039306640625,0.005673122592270374,0.002862048801034689,-0.0016791250091046095
1772795393805031200,1.48403125,0.0038934240583330393,-0.003064278978854418,-0.0048688724637031555
1772795393815024000,1.494024169921875,0.007233826443552971,-0.00677858991548419,-0.004270460456609726
1772795393825016300,1.504016357421875,0.0037749377079308033,-0.013220432214438915,-0.002179852919653058
1772795393835008300,1.51400830078125,-0.0027285018004477024,-0.01779867336153984,0.0021179565228521824
1772795393845000200,1.524000244140625,-0.0061605507507920265,-0.017612885683774948,0.0030560814775526524
1772795393854993200,1.5339931640625,-0.00738507229834795,-0.018019016832113266,0.004823355004191399
1772795393864985300,1.5439853515625,-0.006849262863397598,-0.014755353331565857,0.004496694542467594
1772795393874977000,1.55397705078125,-0.005053760018199682,-0.010872198268771172,0.005332394503057003
1772795393884970200,1.56397021484375,-0.0006819999543949962,-0.0033308998681604862,0.003735458943992853
1772795393894962200,1.573962158203125,0.002082094782963395,0.000337870791554451,-0.0018601089250296354
1772795393904954000,1.5839541015625,0.000023925676941871643,0.012488007545471191,-0.004148993641138077
1772795393914947300,1.593947265625,0.004642645828425884,0.017500076442956924,-0.007126940414309502
1772795393924939300,1.603939208984375,0.0057959361001849174,0.021329330280423164,-0.009267616085708141
1772795393934931200,1.61393115234375,0.007238836959004402,0.028207741677761078,-0.006638010963797569
1772795393944924200,1.623924072265625,0.004917765036225319,0.029443878680467606,-0.006372252479195595
1772795393954916400,1.633916259765625,0.0028423636686056852,0.029278498142957687,-0.0016086563700810075
1772795393964908000,1.643907958984375,-0.001374733168631792,0.027631640434265137,-0.0006899741129018366
1772795393974900200,1.653900146484375,-0.005731398239731789,0.023731175810098648,-0.0005711970734409988
1772795393984893200,1.66389306640625,-0.006125522777438164,0.01679105870425701,-0.0011506732553243637
1772795393994885000,1.673885009765625,-0.00968323927372694,0.01226554811000824,0.000520460307598114
1772795394004877000,1.683876953125,-0.007866720668971539,0.003544147126376629,0.000046123634092509747
1772795394014870500,1.69387060546875,-0.007560457102954388,-0.0019321106374263763,-0.0007339162402786314
1772795394024862700,1.70386279296875,-0.002306582173332572,-0.008434240706264973,-0.00044584181159734726
1772795394034854700,1.713854736328125,0.0007339487783610821,-0.012982120737433434,0.00028173383907414973
1772795394044847600,1.72384765625,0.0020526384469121695,-0.01611645519733429,0.000836070510558784
1772795394054839600,1.733839599609375,0.006784543395042419,-0.015911124646663666,0.001487746019847691
1772795394064831700,1.743831787109375,0.0034163682721555233,-0.01783095672726631,0.0021050400100648403
1772795394074824400,1.753824462890625,0.0037082508206367493,-0.014064980670809746,0.0020232810638844967
1772795394084816600,1.763816650390625,0.004515861626714468,-0.012207796797156334,0.0007313557434827089
1772795394094808600,1.77380859375,0.0018700109794735909,-0.007861251011490822,0.0015031398506835103
1772795394104800800,1.78380078125,0.0009065116755664349,-0.0005837930366396904,-0.00008719239849597216
1772795394114793700,1.793793701171875,0.0045374659821391106,0.005336414091289043,-0.0019450135296210647
1772795394124785700,1.80378564453125,0.0009550980757921934,0.01000181958079338,-0.0008342628716491163
1772795394134777600,1.813777587890625,0.003655276959761977,0.01757318712770939,-0.001972497906535864
1772795394144770600,1.8237705078125,0.002150268293917179,0.019686756655573845,-0.001787276123650372
1772795394154762800,1.8337626953125,0.0034325807355344296,0.02146042138338089,-0.0031332378275692463
1772795394164754700,1.843754638671875,-0.0014391816221177578,0.02452106773853302,-0.00127959786914289
1772795394174747600,1.85374755859375,0.0010500750504434109,0.02211623266339302,-0.0009624155354686081
1772795394184739600,1.863739501953125,0.0032205514144152403,0.020995840430259705,-0.00032112631015479565
1772795394194731800,1.873731689453125,0.005057067610323429,0.022926632314920425,-0.00043670745799317956
1772795394204724500,1.883724365234375,0.007561878301203251,0.018557511270046234,-0.001374273095279932
1772795394214716700,1.893716552734375,0.00866948626935482,0.014185400679707527,-0.004798032809048891
1772795394224708600,1.90370849609375,0.010545492172241211,0.0056981309317052364,-0.007171415723860264
1772795394234700800,1.91370068359375,0.009363846853375435,-0.004365421831607819,-0.0045910789631307125
1772795394244693800,1.92369384765625,0.004072388634085655,-0.012740608304738998,-0.00426540058106184
1772795394254685700,1.933685791015625,0.002892341697588563,-0.022600162774324417,0.00163216982036829
1772795394264678000,1.943677978515625,0.0013660334516316652,-0.025363873690366745,0.004170960746705532
1772795394274670600,1.953670654296875,-0.0025147246196866035,-0.027826497331261635,0.0064418381080031395
1772795394284662800,1.963662841796875,-0.004598349332809448,-0.02488653175532818,0.0036640018224716187
1772795394294654700,1.97365478515625,-0.004975985735654831,-0.019213732331991196,0.0042650774121284485
1772795394304647700,1.983647705078125,-0.004492365755140781,-0.01670452207326889,0.005140646826475859
1772795394314639600,1.9936396484375,-0.0039123292081058025,-0.010062597692012787,-0.0028459071181714535
1772795394324631800,2.0036318359375,-0.0020397333428263664,-0.0022639622911810875,-0.0011446552816778421
1772795394334623500,2.01362353515625,0.0000300754327327013,-0.0033124489709734917,-0.000447972328402102
1772795394344616700,2.02361669921875,0.0021603377535939217,-0.0011699358001351357,0.0011904044076800346
1772795394354609000,2.03360888671875,0.003170741256326437,-0.004629648290574551,0.002688698936253786
1772795394364600600,2.0436005859375,0.0020013228058815002,-0.007964003831148148,0.004209603648632765
1772795394374593800,2.05359375,0.0016471224371343851,-0.009087326005101204,0.003782166400924325
1772795394384585700,2.063585693359375,0.002484453609213233,-0.0066991690546274185,0.003107160795480013
1772795394394577700,2.07357763671875,0.001564597710967064,-0.0019315779209136963,0.0031814631074666977
1772795394404570600,2.083570556640625,-0.0005248020170256495,0.005502985790371895,0.0007411555852741003
1772795394414562800,2.093562744140625,-0.004258553963154554,0.01581607572734356,-0.0003206467372365296
1772795394424554500,2.103554443359375,-0.0047240834683179855,0.025437522679567337,-0.0020283455960452557
1772795394434547700,2.113547607421875,-0.0036431062035262585,0.03502862900495529,-0.0033751060254871845
1772795394444539600,2.12353955078125,-0.0033376088831573725,0.042577728629112244,-0.0027297153137624264
1772795394454531600,2.133531494140625,-0.0008246500510722399,0.04352341964840889,-0.006757745984941721
1772795394464523500,2.1435234375,0.0032243875321000814,0.038073424249887466,-0.005851313006132841
1772795394474516700,2.153516845703125,0.0028997480403631926,0.02696138247847557,-0.0059953900054097176
1772795394484508700,2.1635087890625,0.004114948213100433,0.013188580051064491,-0.001397975254803896
1772795394494500600,2.17350048828125,0.0034281190019100904,-0.0004002004861831665,-0.0031010666862130165
1772795394504493800,2.183493896484375,-0.0011648526415228844,-0.014701087959110737,0.00015667249681428075
1772795394514485500,2.193485595703125,-0.003664761781692505,-0.024450121447443962,-0.0006987348897382617
1772795394524477700,2.203477783203125,-0.006356344558298588,-0.030752267688512802,0.006140023469924927
1772795394534470700,2.213470703125,-0.008289799094200134,-0.03309398517012596,0.0067131356336176395
1772795394544462600,2.223462646484375,-0.014611760154366493,-0.035983964800834656,0.0049242363311350346
1772795394554454500,2.23345458984375,-0.011058837175369263,-0.034906186163425446,0.003429670352488756
1772795394564447700,2.24344775390625,-0.00990083534270525,-0.030444687232375145,0.005855889990925789
1772795394574439700,2.253439697265625,-0.00477025518193841,-0.0233731959015131,0.003680087858811021
1772795394584431600,2.263431640625,-0.003680423367768526,-0.01963391713798046,0.002984948456287384
1772795394594423800,2.273423828125,0.002455499954521656,-0.011281445622444153,0.004774859175086021
1772795394604416500,2.28341650390625,0.0005672937259078026,-0.004474213346838951,0.00076251570135355
1772795394614408700,2.29340869140625,0.0010458636097609997,0.0030673258006572723,-0.0011690750252455473
1772795394624400600,2.303400634765625,0.0013620713725686073,0.009855203330516815,-0.0032647443003952503
1772795394634393600,2.3133935546875,-0.0008653964614495635,0.01988093927502632,-0.0013613830087706447
1772795394644385500,2.323385498046875,-0.003175796242430806,0.03001900017261505,-0.002402546349912882
1772795394654377700,2.333377685546875,-0.004749191924929619,0.04001570865511894,-0.0029255913104861975
1772795394664370700,2.34337060546875,-0.001378288958221674,0.04485004022717476,-0.0064500439912080765
1772795394674362600,2.353362548828125,-0.004106431268155575,0.04846128821372986,-0.005241234786808491
1772795394684354600,2.3633544921875,-0.0018774400232359767,0.04879741743206978,-0.004417812451720238
1772795394694347500,2.373347412109375,-0.00305935088545084,0.04309798777103424,-0.00396587373688817
1772795394704339700,2.383339599609375,-0.0018212287686765194,0.03233646601438522,-0.0020490384194999933
1772795394714331600,2.39333154296875,-0.0020270911045372486,0.020184991881251335,-0.0053068832494318485
1772795394724323800,2.40332373046875,0.0021269158460199833,0.0001607099547982216,-0.0008252345724031329
1772795394734316500,2.413316650390625,0.002484312281012535,-0.018982624635100365,-0.00008567480836063623
1772795394744308700,2.423308837890625,0.002165065845474601,-0.035452213138341904,0.0038339109160006046
1772795394754300700,2.43330078125,0.001637759618461132,-0.051525190472602844,0.00837007351219654
1772795394764293600,2.443293701171875,0.0011666466016322374,-0.06026595085859299,0.008387117646634579
1772795394774285600,2.45328564453125,-0.003918393049389124,-0.06564100831747055,0.010625503957271576
1772795394784277800,2.46327783203125,-0.0015722649404779077,-0.061896152794361115,0.007983967661857605
1772795394794270700,2.473270751953125,-0.002941662445664406,-0.0497092604637146,0.006627886556088924
1772795394804262700,2.4832626953125,-0.002322094514966011,-0.03168916702270508,0.004536719527095556
1772795394814254800,2.4932548828125,-0.0018536443822085857,-0.011016378179192543,0.0007811295217834413
1772795394824246500,2.50324658203125,0.0009052224922925234,0.008679602295160294,0.0012096863938495517
1772795394834239700,2.51323974609375,0.0035769056994467974,0.02857927232980728,0.001130057848058641
1772795394844231700,2.523231689453125,-0.0007114895852282643,0.04256167262792587,-0.003103650175035
1772795394854223600,2.5332236328125,0.000312495743855834,0.056233808398246765,-0.00009774015052244067
1772795394864216600,2.543216552734375,-0.0026081367395818233,0.0613589733839035,-0.0042036669328808784
1772795394874208800,2.553208740234375,-0.0013117098715156317,0.05905134975910187,-0.006948321126401424
1772795394884200400,2.563200439453125,0.0038318869192153215,0.05038505420088768,-0.010097349993884563
1772795394894193700,2.573193603515625,0.005426587536931038,0.03973107784986496,-0.007042704150080681
1772795394904185900,2.583185791015625,0.00781464483588934,0.024127615615725517,-0.008404911495745182
1772795394914177500,2.593177490234375,0.007359510287642479,0.009255992248654366,-0.00565413199365139
1772795394924170800,2.603170654296875,0.002888520946726203,-0.004894141107797623,-0.0006564710638485849
1772795394934162700,2.61316259765625,-0.0007019528420642018,-0.013986173085868359,0.007023020181804895
1772795394944154600,2.623154541015625,-0.0031325779855251312,-0.02075980044901371,0.009875452145934105
1772795394954146600,2.633146484375,-0.010159328579902649,-0.023360377177596092,0.00894547626376152
1772795394964139800,2.643139892578125,-0.011705509386956692,-0.022285643965005875,0.004795738961547613
1772795394974131700,2.653131591796875,-0.013397149741649628,-0.020137272775173187,0.002387175802141428
1772795394984123600,2.66312353515625,-0.008789515122771263,-0.021840592846274376,-0.00005302549107000232
1772795394994116600,2.67311669921875,-0.00696524977684021,-0.021820353344082832,-0.002056787721812725
1772795395004108500,2.683108642578125,-0.003368128091096878,-0.02203315868973732,0.0031807725317776203
1772795395014099700,2.693099609375,0.0008308780379593372,-0.017316967248916626,0.0031650597229599953
1772795395024092700,2.7030927734375,0.002216273220255971,-0.012932030484080315,0.0056661926209926605
1772795395034084900,2.7130849609375,0.005777452141046524,-0.007628612220287323,0.0029689427465200424
1772795395044076800,2.723076904296875,0.007712803781032562,-0.005194114986807108,0.0031014084815979004
1772795395054068700,2.73306884765625,0.006012908183038235,0.006108340807259083,-0.0021183870267122984
1772795395064062000,2.74306201171875,0.005741440691053867,0.016102910041809082,-0.005363685078918934
1772795395074054000,2.753053955078125,0.0012308445293456316,0.027560897171497345,-0.005670215003192425
1772795395084045800,2.7630458984375,-0.002594736171886325,0.03945046290755272,-0.0038232626393437386
1772795395094038800,2.773038818359375,-0.0035942206159234047,0.04434748366475105,-0.0011965868761762977
1772795395104030700,2.78303076171875,-0.0026019178330898285,0.048204824328422546,-0.00028810312505811453
1772795395114022700,2.793022705078125,-0.005583592690527439,0.04310700297355652,-0.0016260752454400063
1772795395124015900,2.803015869140625,-0.0026983991265296936,0.033562008291482925,-0.005254125688225031
1772795395134007800,2.8130078125,-0.004764213226735592,0.01650313101708889,-0.005209917668253183
1772795395143999700,2.822999755859375,-0.0025156827177852392,-0.007178682833909988,-0.004555285442620516
1772795395153991700,2.83299169921875,-0.004735427442938089,-0.025321200489997864,0.0008432085160166025
1772795395163985000,2.84298486328125,-0.003980337176471949,-0.041629355400800705,0.003139491891488433
1772795395173976800,2.852976806640625,-0.007334056310355663,-0.053169362246990204,0.007655680645257235
1772795395183968800,2.86296875,-0.0023821236100047827,-0.056842248886823654,0.009635208174586296
1772795395193962000,2.8729619140625,-0.0025989050045609474,-0.05200674757361412,0.011980121955275536
1772795395203953700,2.88295361328125,0.00017736549489200115,-0.046039894223213196,0.007798666134476662
1772795395213945900,2.89294580078125,0.0018860495183616877,-0.030388228595256805,0.004353068303316832
1772795395223938800,2.902938720703125,0.004670001566410065,-0.015556102618575096,0.00359545205719769
1772795395233930800,2.9129306640625,0.0016358625143766403,0.0016226181760430336,-0.002901329193264246
1772795395243922700,2.922922607421875,0.0011685106437653303,0.015038127079606056,-0.005226961802691221
1772795395253916000,2.932916015625,-0.0002285835798829794,0.028760330751538277,-0.0061457520350813866
1772795395263907600,2.942907470703125,0.00032904045656323433,0.040281038731336594,-0.006529700476676226
1772795395273899800,2.952899658203125,-0.0019932358991354704,0.044508542865514755,-0.005088397767394781
1772795395283891700,2.9628916015625,0.00014386698603630066,0.047876130789518356,-0.0031159003265202045
1772795395293884700,2.972884765625,-0.000655081239528954,0.04193674772977829,-0.002638662001118064
1772795395303876900,2.982876953125,-0.0004626670852303505,0.0343782939016819,-0.00516642676666379
1772795395313868800,2.992868896484375,-0.00038729968946427107,0.02265212871134281,-0.004605565220117569
1772795395323861800,3.00286181640625,-0.001210416085086763,0.013396245427429676,-0.00013577030040323734
1772795395333853700,3.012853759765625,-0.002632544143125415,0.0002839057706296444,0.0002503880823496729
1772795395343846000,3.022845947265625,-0.0014780554920434952,-0.011355414986610413,0.00029947111033834517
1772795395353838600,3.032838623046875,-0.001625860808417201,-0.022879445925354958,0.00214770482853055
1772795395363830800,3.042830810546875,-0.00022908335085958242,-0.035868361592292786,0.0045038023963570595
1772795395373822700,3.05282275390625,0.0010100854560732841,-0.03840715438127518,0.006968291476368904
1772795395383815000,3.06281494140625,-0.002308970084413886,-0.04360738769173622,0.0016195192001760006
1772795395393808000,3.072807861328125,0.0024024283047765493,-0.04557120054960251,0.0034395232796669006
1772795395403799800,3.0827998046875,0.004957413766533136,-0.04238966479897499,0.0025060861371457577
1772795395413792000,3.0927919921875,0.00264578964561224,-0.03281800076365471,0.0017289759125560522
1772795395423784700,3.10278466796875,0.0051574017852544785,-0.02537212334573269,0.002688033739104867
1772795395433777000,3.11277685546875,0.003974691964685917,-0.011240057647228241,0.001754862256348133
1772795395443768800,3.122768798828125,0.003156868275254965,0.0037597636692225933,0.0017238089349120855
1772795395453761800,3.13276171875,0.003610404673963785,0.0211962778121233,-0.00010711420327425003
1772795395463753700,3.142753662109375,-0.0004612688207998872,0.03257100284099579,-0.003656735410913825
1772795395473746000,3.152745849609375,-0.0011318528559058905,0.043513666838407516,-0.005969690624624491
1772795395483739000,3.16273876953125,-0.002474235836416483,0.04638863354921341,-0.009485382586717606
1772795395493730800,3.172730712890625,-0.002319772494956851,0.04464133083820343,-0.004426974803209305
1772795395503722800,3.18272265625,-0.0025147160049527884,0.034019581973552704,-0.0065998476929962635
1772795395513714700,3.192714599609375,-0.001969034317880869,0.022153867408633232,-0.005272261798381805
1772795395523708000,3.2027080078125,-0.0008251734543591738,0.005305212922394276,0.00510138925164938
1772795395533699800,3.212699951171875,-0.0019753926899284124,-0.008752282708883286,0.006451079156249762
1772795395543691800,3.22269189453125,-0.0020241616293787956,-0.021286018192768097,0.005045090336352587
1772795395553684700,3.232684814453125,-0.0012883302988484502,-0.032163701951503754,0.006786531303077936
1772795395563677000,3.242677001953125,-0.0018992098048329353,-0.03512125462293625,0.0014330470003187656
1772795395573668600,3.252668701171875,0.0013250792399048805,-0.033891938626766205,0.0018402442801743746
1772795395583661800,3.262661865234375,0.0030892707873135805,-0.02790958434343338,-0.0030288121197372675
1772795395593653800,3.27265380859375,0.005654693581163883,-0.014804702252149582,-0.0052954284474253654
1772795395603645700,3.282645751953125,0.00594564713537693,-0.004060325212776661,-0.0030462858267128468
1772795395613637600,3.2926376953125,0.0017160146962851286,0.008946819230914116,-0.002672644332051277
1772795395623630800,3.302630859375,0.000029185088351368904,0.024825703352689743,-0.001430650008842349
1772795395633622800,3.312622802734375,-0.005532027687877417,0.03461015596985817,-0.0002822950482368469
1772795395643614700,3.32261474609375,-0.004600503481924534,0.03767556697130203,-0.006367353722453117
1772795395653608000,3.33260791015625,-0.006423703394830227,0.034623317420482635,-0.006010756362229586
1772795395663599600,3.342599609375,-0.005726945586502552,0.028247671201825142,-0.0034580903593450785
1772795395673591800,3.352591796875,-0.002030478324741125,0.013440761715173721,-0.00583549402654171
1772795395683584800,3.362584716796875,-0.0003298841184005141,-0.008133270777761936,-0.001353444647975266
1772795395693576700,3.37257666015625,0.001181992469355464,-0.021330565214157104,0.001520106103271246
1772795395703568600,3.382568603515625,0.002409285632893443,-0.03631318733096123,0.005517376121133566
1772795395713560800,3.392560791015625,0.003590397769585252,-0.05124792829155922,0.008419422432780266
1772795395723553800,3.4025537109375,0.005432465113699436,-0.05185685306787491,0.006736650597304106
1772795395733545700,3.412545654296875,0.005284925922751427,-0.04506152868270874,0.0051882886327803135
1772795395743538000,3.422537841796875,0.0030987367499619722,-0.03466508165001869,0.006508684251457453
1772795395753530600,3.432530517578125,0.0032848918344825506,-0.015358229167759418,0.0001346742792520672
1772795395763522800,3.442522705078125,0.0014036837965250015,0.007071599364280701,-0.0028616455383598804
1772795395773514800,3.4525146484375,-0.003638212801888585,0.023751508444547653,0.0020502889528870583
1772795395783507700,3.4625078125,-0.005097824148833752,0.036453649401664734,-0.0047149951569736
1772795395793499600,3.472499755859375,-0.00761397834867239,0.04665835201740265,-0.004047340713441372
1772795395803491800,3.482491943359375,-0.00742288026958704,0.04945032671093941,-0.0031178442295640707
1772795395813483800,3.49248388671875,-0.0035730144008994102,0.04304675757884979,-0.00391918933019042
1772795395823476700,3.502476806640625,0.0004363239277154207,0.03037875145673752,-0.0039045424200594425
1772795395833468700,3.51246875,0.005615106783807278,0.011320903897285461,-0.003805472981184721
1772795395843460900,3.5224609375,0.00438762316480279,-0.0028267079032957554,-0.0022324505262076855
1772795395853453800,3.532453857421875,0.0033963946625590324,-0.019405419006943703,0.0019468482350930572
1772795395863445800,3.54244580078125,0.0003981830086559057,-0.026774726808071136,0.0022672016639262438
1772795395873438000,3.55243798828125,0.0018501381855458021,-0.030956421047449112,0.0000983233330771327
1772795395883430700,3.5624306640625,-0.0006834514206275344,-0.02785075083374977,0.0014040428213775158
1772795395893422800,3.5724228515625,0.004104912281036377,-0.02158939279615879,0.0021183027420192957
1772795395903414800,3.582414794921875,0.0005899716634303331,-0.013714190572500229,0.0008977253455668688
1772795395913407000,3.592406982421875,0.0019162259995937347,-0.001732895616441965,-0.0009891242953017354
1772795395923399700,3.602399658203125,0.001885891193524003,0.005093124695122242,-0.004312458913773298
1772795395933392000,3.612391845703125,-0.0003213365562260151,0.011513739824295044,-0.0028043107595294714
1772795395943383800,3.6223837890625,-0.0009431934449821711,0.009715018793940544,-0.004106676205992699
1772795395953376800,3.632376708984375,-0.002169046550989151,0.011943550780415535,-0.002703989390283823
1772795395963369000,3.642368896484375,-0.0012187468819320202,0.00892484001815319,-0.004255174193531275
1772795395973361000,3.65236083984375,-0.00012445403262972832,0.007329605985432863,0.00040162907680496573
1772795395983353900,3.662353759765625,-0.0016669342294335365,0.00724846450611949,-0.00207965774461627
1772795395993345800,3.672345703125,-0.0023625518660992384,0.005035377573221922,-0.001580048818141222
1772795396003338000,3.682337890625,-0.003099821275100112,0.005533854942768812,0.0018476189579814672
1772795396013331200,3.692331298828125,-0.001305649639107287,0.0020709470845758915,-0.000428584695328027
1772795396023323100,3.7023232421875,-0.003444608533754945,0.005559960845857859,-0.001310436287894845
1772795396033315000,3.712315185546875,-0.003942619543522596,0.004379647318273783,-0.0031999489292502403
1772795396043307000,3.72230712890625,-0.0034449161030352116,0.0032162535935640335,-0.0011785305105149746
1772795396053300200,3.73230029296875,-0.0012049315264448524,-0.0018426869064569473,0.000010837276931852102
1772795396063292200,3.742292236328125,0.0004638051614165306,-0.006673927418887615,0.00039033775101415813
1772795396073284000,3.7522841796875,0.0004986927378922701,-0.015650644898414612,-0.000495429674629122
1772795396083277300,3.76227734375,-0.00036781688686460257,-0.016735099256038666,0.0027145864441990852
1772795396093269000,3.77226904296875,0.0017922730185091496,-0.022371944040060043,0.004277063068002462
1772795396103261200,3.78226123046875,0.001427644630894065,-0.020957933738827705,0.005218836013227701
1772795396113254100,3.792254150390625,0.0042726993560791016,-0.017405008897185326,0.0013905417872592807
1772795396123246000,3.80224609375,0.001833875896409154,-0.014767380431294441,0.0009349271422252059
1772795396133238000,3.812238037109375,0.001855714013800025,-0.007892429828643799,0.0008166827610693872
1772795396143230200,3.822230224609375,0.004674537107348442,0.0009113154374063015,-0.00012064119800925255
1772795396153223200,3.83222314453125,0.0026225715409964323,0.010504022240638733,-0.0008615325787104666
1772795396163215000,3.842215087890625,-0.0006724492413923144,0.016012027859687805,-0.00013622205005958676
1772795396173207000,3.85220703125,-0.0014375753235071898,0.019435787573456764,-0.003980761393904686
1772795396183200000,3.862199951171875,-0.0018019292037934065,0.021604834124445915,-0.0037196106277406216
1772795396193192200,3.872192138671875,-0.0008764807134866714,0.01783752627670765,-0.0008093083160929382
1772795396203184000,3.88218408203125,-0.001292516477406025,0.011194119229912758,-0.0011517927050590515
1772795396213177000,3.892177001953125,-0.0008749327389523387,0.004455788526684046,-0.0026570113841444254
1772795396223169000,3.9021689453125,0.0025947915855795145,0.0007307673804461956,-0.00037614646134898067
1772795396233161200,3.9121611328125,0.002761505777016282,-0.003549198852851987,-0.0010999937076121569
1772795396243153200,3.922153076171875,0.0056747449561953545,-0.0047878073528409,0.003046896308660507
1772795396253146000,3.93214599609375,0.00471680611371994,-0.005588087253272533,0.0018101243767887354
1772795396263138000,3.942137939453125,0.0032908255234360695,-0.004406020976603031,0.0005626708152703941
1772795396273130200,3.952130126953125,0.003415993880480528,-0.0029016011394560337,-0.0022956999018788338
1772795396283123200,3.962123291015625,0.0026078077498823404,-0.0009300783276557922,-0.004264733754098415
1772795396293115100,3.972115234375,0.004215025343000889,-0.0005836011841893196,-0.003646347438916564
1772795396303107300,3.982107421875,0.003825621446594596,-0.0029201433062553406,-0.002416235161945224
1772795396313100000,3.99210009765625,0.003797924844548106,-0.00034380145370960236,-0.0013195453211665154
1772795396323092200,4.00209228515625,-0.00008643721230328083,0.00010957708582282066,0.002196121495217085
1772795396333084200,4.012084228515625,-0.0011588921770453453,0.00010771304368972778,0.0019628286827355623
1772795396343076400,4.022076416015625,-0.0053152963519096375,0.0019263597205281258,0.0013342415913939476
1772795396353069000,4.032069091796875,-0.00810309313237667,-0.0007690251804888248,-0.0001962771057151258
1772795396363061200,4.042061279296875,-0.010186858475208282,-0.002502268645912409,-0.0026393269654363394
1772795396373053200,4.05205322265625,-0.007063503377139568,-0.01104036346077919,-0.0034678366500884295
1772795396383046100,4.062046142578125,-0.006520368158817291,-0.016277385875582695,-0.0028423129115253687
1772795396393038300,4.072038330078125,-0.0008603518363088369,-0.020481185987591743,-0.004205052275210619
1772795396403030300,4.0820302734375,0.003851627465337515,-0.020689021795988083,0.00004801980685442686
1772795396413023200,4.092023193359375,0.0047674886882305145,-0.018669014796614647,0.0036909577902406454
1772795396423015200,4.10201513671875,0.01201015617698431,-0.009398489259183407,0.004656987730413675
1772795396433007400,4.11200732421875,0.011427989229559898,0.0017875866033136845,0.003864431055262685
1772795396442999000,4.1219990234375,0.011267158202826977,0.0134323351085186,-0.00018759147496894002
1772795396452992300,4.1319921875,0.006674802862107754,0.02451508119702339,-0.005064105615019798
1772795396462984200,4.141984130859375,0.003047113073989749,0.03714505210518837,-0.005331010092049837
1772795396472976100,4.15197607421875,-0.0034832244273275137,0.04345221817493439,-0.010380097664892673
1772795396482969000,4.161968994140625,-0.0039948513731360435,0.042762093245983124,-0.007677893154323101
1772795396492961300,4.171961181640625,-0.006003673654049635,0.03859690949320793,-0.0026969830505549908
1772795396502953000,4.181952880859375,-0.006796387955546379,0.03048577345907688,-0.0027381302788853645
1772795396512946200,4.1919462890625,-0.005766809917986393,0.016307638958096504,-0.00015299994265660644
1772795396522938400,4.2019384765625,-0.0007772952085360885,-0.0024860375560820103,0.0013307554181665182
1772795396532930000,4.211929931640625,0.0005654706619679928,-0.019844787195324898,0.0002511098573449999
1772795396542922200,4.221922119140625,0.005896368063986301,-0.04075443744659424,0.0008202322060242295
1772795396552915200,4.231915283203125,0.004444412887096405,-0.05255170911550522,0.0006889383657835424
1772795396562907100,4.2419072265625,0.00374798197299242,-0.06448645889759064,0.003592683235183358
1772795396572899000,4.251899169921875,-0.002695802366361022,-0.06557595729827881,0.006974631454795599
1772795396582892300,4.261892333984375,-0.004740187898278236,-0.06332920491695404,0.008155240677297115
1772795396592884000,4.271884033203125,-0.004900243598967791,-0.05193353444337845,0.005937627051025629
1772795396602876200,4.281876220703125,-0.005998621694743633,-0.03862253949046135,0.0057640643790364265
1772795396612869400,4.291869384765625,-0.005050536245107651,-0.018493037670850754,0.0022580125369131565
1772795396622861000,4.301861083984375,-0.0013385474449023604,0.0018595983274281025,0.002303046640008688
1772795396632853200,4.311853271484375,0.0020529883913695812,0.021294549107551575,-0.004680560436099768
1772795396642845200,4.32184521484375,0.00467862281948328,0.032973386347293854,-0.0035074115730822086
1772795396652838100,4.331838134765625,0.005706336814910173,0.04824848100543022,-0.00751733360812068
1772795396662830000,4.341830078125,0.006588243413716555,0.05796781927347183,-0.005663133226335049
1772795396672822300,4.351822265625,0.006302220281213522,0.05983868986368179,-0.009420853108167648
1772795396682815000,4.36181494140625,0.0015171600971370935,0.058122068643569946,-0.008365310728549957
1772795396692807200,4.37180712890625,0.0007560288067907095,0.05146310478448868,-0.004759922623634338
1772795396702799000,4.381799072265625,-0.0016013107961043715,0.03858433663845062,-0.006219411268830299
1772795396712792000,4.3917919921875,-0.0033896234817802906,0.025489574298262596,-0.0029210862703621387
1772795396722784000,4.401783935546875,-0.003421780187636614,0.007840733975172043,-0.0035794759169220924
1772795396732776200,4.411776123046875,-0.004746968857944012,-0.009502836503088474,-0.0004973994800820947
1772795396742768000,4.42176806640625,-0.005458142142742872,-0.024647489190101624,0.001558695686981082
1772795396752761000,4.431760986328125,-0.006195304915308952,-0.04028024524450302,0.0035789695102721453
1772795396762753300,4.441753173828125,-0.008282090537250042,-0.05519188940525055,0.007179241627454758
1772795396772745200,4.4517451171875,-0.004020234104245901,-0.06365807354450226,0.008623473346233368
1772795396782738200,4.46173828125,-0.003567263949662447,-0.06852749735116959,0.008830295875668526
1772795396792730000,4.471730224609375,-0.0010806703940033913,-0.06355804204940796,0.007610834203660488
1772795396802722300,4.481722412109375,0.0022361387964338064,-0.0564928837120533,0.006152619607746601
1772795396812715000,4.491715087890625,0.003193811746314168,-0.04368174821138382,0.003643389092758298
1772795396822707200,4.501707275390625,0.004971786867827177,-0.028329800814390182,0.0017168611520901322
1772795396832699100,4.51169921875,0.003597862087190151,-0.009557178243994713,-0.0018523073522374034
1772795396842691000,4.521691162109375,-0.0003681662492454052,0.01162278838455677,-0.0032962760888040066
1772795396852684300,4.531684326171875,0.00206383247859776,0.030902210623025894,-0.0029442061204463243
1772795396862676200,4.54167626953125,0.0006572336424142122,0.05180561542510986,-0.003417608328163624
1772795396872668200,4.551668212890625,0.000023135216906666756,0.06633049249649048,-0.00803313311189413
1772795396882661000,4.5616611328125,0.0015421605203300714,0.0724087655544281,-0.00891269650310278
1772795396892653300,4.5716533203125,0.00010352092795073986,0.07480906695127487,-0.009654385969042778
1772795396902645000,4.58164501953125,0.0007995625492185354,0.0662863701581955,-0.007996966131031513
1772795396912638200,4.59163818359375,0.00037079351022839546,0.05034228786826134,-0.010017240419983864
1772795396922630100,4.601630126953125,-0.0045692878775298595,0.029719559475779533,-0.006384313106536865
1772795396932622000,4.6116220703125,-0.002297877799719572,0.005309023428708315,-0.0037533764261752367
1772795396942614000,4.621614013671875,-0.0021182044874876738,-0.017064208164811134,0.003499551909044385
1772795396952607200,4.631607177734375,-0.0006273668259382248,-0.03726774826645851,0.00860589649528265
1772795396962599200,4.64159912109375,0.0015820744447410107,-0.050432298332452774,0.006104231346398592
1772795396972591000,4.651591064453125,0.002611918607726693,-0.06089106574654579,0.00797163974493742
1772795396982584300,4.661584228515625,0.0021627668756991625,-0.061220116913318634,0.006239018402993679
1772795396992576000,4.671575927734375,0.004837113432586193,-0.05812792107462883,-0.0021001379936933517
1772795397002568200,4.681568115234375,0.007543710991740227,-0.04260056093335152,-0.0009586852975189686
1772795397012563000,4.69156298828125,0.005862190388143063,-0.024553116410970688,-0.006492467597126961
1772795397022555100,4.70155517578125,0.007711872458457947,-0.004412876442074776,-0.0025837987195700407
1772795397032547000,4.711547119140625,0.006619444116950035,0.01601889543235302,-0.003299922915175557
1772795397042539000,4.7215390625,0.00469560083001852,0.033134035766124725,-0.00004791253013536334
1772795397052532200,4.7315322265625,0.000748530263081193,0.047029346227645874,-0.004194720648229122
1772795397062524200,4.741524169921875,-0.002227061428129673,0.04993819445371628,-0.005202647298574448
1772795397072515800,4.751515869140625,-0.008127560839056969,0.049929406493902206,-0.009111369028687477
1772795397082509000,4.761509033203125,-0.010727547109127045,0.03973686695098877,-0.008835914544761181
1772795397092501200,4.771501220703125,-0.009339774027466774,0.02090725302696228,-0.007713391911238432
1772795397102493000,4.781492919921875,-0.007316878065466881,0.0002782819792628288,-0.004552407655864954
1772795397112486100,4.791486083984375,-0.0015966746723279357,-0.021315693855285645,-0.0018666095566004515
1772795397122478000,4.80147802734375,0.0046867793425917625,-0.03987555578351021,0.0038745515048503876
1772795397132470000,4.811469970703125,0.010407249443233013,-0.04523090645670891,0.008681024424731731
1772795397142462000,4.8214619140625,0.010074280202388763,-0.04651104658842087,0.008779002353549004
1772795397152455200,4.831455078125,0.008752552792429924,-0.039043277502059937,0.00436614453792572
1772795397162446800,4.84144677734375,0.006518557667732239,-0.020143212750554085,0.003864251310005784
1772795397172439000,4.85143896484375,0.0022753432858735323,0.003159713465720415,-0.000025295361410826445
1772795397182432300,4.861432373046875,-0.000014415476471185684,0.024692503735423088,-0.000986941158771515
1772795397192424000,4.871423828125,-0.005248059518635273,0.04172341525554657,-0.005486351903527975
1772795397202416000,4.881416015625,-0.00580524280667305,0.057994112372398376,-0.007073597516864538
1772795397212409000,4.8914091796875,-0.005838266108185053,0.0577126145362854,-0.006919666659086943
1772795397222401000,4.901401123046875,-0.008231625892221928,0.05054294317960739,-0.00714845210313797
1772795397232393000,4.91139306640625,-0.0030829370953142643,0.03340310603380203,-0.004486356861889362
1772795397242385200,4.92138525390625,-0.003138903994113207,0.013477204367518425,-0.0047552576288580894
1772795397252378000,4.931378173828125,0.0016819501761347055,-0.012385285459458828,-0.0020825089886784554
1772795397262370000,4.9413701171875,0.0026862130034714937,-0.03689654543995857,0.0019235196523368359
1772795397272362000,4.951362060546875,0.006250055506825447,-0.052618782967329025,0.00488016102463007
1772795397282355000,4.96135498046875,0.0019922011997550726,-0.06354250758886337,0.009078715927898884
1772795397292347100,4.97134716796875,0.003456140635535121,-0.06503494828939438,0.00660304119810462
1772795397302339000,4.981339111328125,-0.0008424338884651661,-0.057895708829164505,0.006396219599992037
1772795397312331000,4.9913310546875,0.00023348326794803143,-0.04063922539353371,0.005596738308668137
1772795397322324000,5.001323974609375,0.0013832030817866325,-0.023102743551135063,0.002841005101799965
1772795397332316200,5.011316162109375,0.002335815690457821,0.0006111082620918751,-0.0026720045134425163
1772795397342308000,5.02130810546875,-0.00022436445578932762,0.022172875702381134,-0.000949046399910003
1772795397352301000,5.031301025390625,0.0019927171524614096,0.037348367273807526,-0.005652188789099455
1772795397362293000,5.04129296875,-0.00012875697575509548,0.04826226830482483,-0.007765141315758228
1772795397372285200,5.05128515625,0.0013706027530133724,0.049444179981946945,-0.004351500887423754
1772795397382278000,5.06127783203125,0.0025093117728829384,0.047514546662569046,-0.004753502551466227
1772795397392270000,5.07127001953125,0.004569266922771931,0.04009071737527847,-0.0037337779067456722
1772795397402262000,5.081261962890625,0.0034722283016890287,0.023722145706415176,-0.003114701248705387
1772795397412254200,5.091254150390625,0.0030376005452126265,0.01237521506845951,-0.0037253641057759523
1772795397422247200,5.1012470703125,0.0017506524454802275,0.0024293172173202038,-0.00023941817926242948
1772795397432239000,5.111239013671875,-0.00023713090922683477,-0.008229185827076435,-0.00035127095179632306
1772795397442231300,5.121231201171875,0.000757518457248807,-0.013701576739549637,0.00022271927446126938
1772795397452224000,5.13122412109375,-0.0034297695383429527,-0.01625421643257141,0.002365764928981662
1772795397462216200,5.14121630859375,-0.0026710350066423416,-0.019516322761774063,0.005247038789093494
1772795397472208100,5.1512080078125,-0.0027477340772747993,-0.021253501996397972,0.0004099395009689033
1772795397482201000,5.161201171875,-0.0028239961247891188,-0.020404744893312454,-0.0017788764089345932
1772795397492193000,5.171193115234375,0.00046181189827620983,-0.023769382387399673,0.0014680495951324701
1772795397502185200,5.181185302734375,-0.0016086588148027658,-0.026530960574746132,0.0027451864443719387
1772795397512177000,5.191177001953125,-0.0009718970395624638,-0.030233021825551987,0.005346828140318394
1772795397522170000,5.201170166015625,0.0008625772316008806,-0.028144551441073418,0.0044777654111385345
1772795397532162300,5.211162353515625,0.0007328812498599291,-0.023551929742097855,0.003112096805125475
1772795397542154000,5.221154052734375,0.000017965910956263542,-0.017537564039230347,0.0034564118832349777
1772795397552147200,5.231147216796875,-0.0015375865623354912,-0.005214319098740816,-0.00020490202587097883
1772795397562139100,5.24113916015625,0.001011167885735631,0.006082332693040371,-0.0015917450655251741
1772795397572131000,5.251131103515625,0.003477521240711212,0.019386686384677887,-0.003581658937036991
1772795397582124000,5.2611240234375,0.005283035337924957,0.03700024634599686,-0.003546103835105896
1772795397592116200,5.2711162109375,0.0031956497114151716,0.04783717915415764,-0.007312878500670195
1772795397602108000,5.28110791015625,0.0026001394726336002,0.05178125947713852,-0.005117122549563646
1772795397612100000,5.29110009765625,-0.0022364272736012936,0.055066533386707306,-0.0058830478228628635
1772795397622093000,5.301093017578125,-0.005494710057973862,0.05265823379158974,-0.005759246647357941
1772795397632085000,5.3110849609375,-0.007556795142591,0.04047693312168121,-0.0033075406681746244
1772795397642077000,5.321076904296875,-0.0069432370364665985,0.02553011104464531,-0.004752943757921457
1772795397652070100,5.331070068359375,-0.004952790215611458,0.009381765499711037,-0.00034967303508892655
1772795397662062000,5.34106201171875,-0.0018174436409026384,-0.012391144409775734,0.0019284778973087668
1772795397672054000,5.351053955078125,-0.0006789421895518899,-0.030460957437753677,0.006992745213210583
1772795397682046200,5.361046142578125,-0.0016934808809310198,-0.043737512081861496,0.00686285737901926
1772795397692039000,5.371038818359375,0.001132399309426546,-0.05621948093175888,0.009904986247420311
1772795397702031000,5.381031005859375,-0.001669420162215829,-0.060740455985069275,0.007455065846443176
1772795397712023000,5.39102294921875,-0.000708285253494978,-0.0598570853471756,0.004333574790507555
1772795397722016000,5.40101611328125,-0.0009171111742034554,-0.05080483481287956,-0.0005158805288374424
1772795397732008000,5.411008056640625,-0.0034076995216310024,-0.031027134507894516,0.001793879084289074
1772795397742000000,5.421000244140625,-0.001087752403691411,-0.00956212542951107,0.0028870513197034597
1772795397751993000,5.4309931640625,-0.0024579488672316074,0.013882480561733246,0.005259661469608545
1772795397761985000,5.440985107421875,-0.003791679162532091,0.03524099290370941,-0.00008044886635616422
1772795397771977200,5.450977294921875,-0.003558386117219925,0.04907158762216568,-0.005605176091194153
1772795397781969200,5.46096923828125,-0.006545135285705328,0.0534452386200428,-0.00801790039986372
1772795397791962000,5.470962158203125,-0.004711815156042576,0.05079139769077301,-0.01409896183758974
1772795397801954000,5.4809541015625,-0.005420202389359474,0.038572873920202255,-0.011977588757872581
1772795397811946200,5.4909462890625,-0.000622783787548542,0.01868198998272419,-0.006174027919769287
1772795397821939000,5.50093896484375,-0.0007183641428127885,-0.00741905253380537,0.0013432984706014395
1772795397831931100,5.51093115234375,-0.0012145109940320253,-0.03445999324321747,0.007005711551755667
1772795397841923000,5.520923095703125,0.0012844905722886324,-0.0519237220287323,0.010430937632918358
1772795397851916000,5.530916015625,-0.0005323179066181183,-0.06573008745908737,0.010389125905930996
1772795397861908000,5.540907958984375,-0.003313259221613407,-0.07002941519021988,0.008425635285675526
1772795397871900200,5.550900146484375,-0.0008698089513927698,-0.06446367502212524,0.010275999084115028
1772795397881891800,5.560891845703125,-0.0005571605870500207,-0.04627325385808945,0.007556029595434666
1772795397891885000,5.570885009765625,-0.0018498589051887393,-0.025683289393782616,0.004504047334194183
1772795397901877200,5.580877197265625,-0.004891271237283945,0.00036803027614951134,-0.0007768440409563482
1772795397911869000,5.590868896484375,-0.0031607490964233875,0.024169234558939934,-0.003336141584441066
1772795397921862100,5.600862060546875,-0.007075595669448376,0.03848292678594589,-0.006660299841314554
1772795397931854000,5.61085400390625,-0.005857465788722038,0.045958153903484344,-0.00743181724101305
1772795397941846000,5.620845947265625,-0.0036107690539211035,0.04776955768465996,-0.0036580285523086786
1772795397951839000,5.6308388671875,-0.004080550745129585,0.04378919675946236,-0.006435705814510584
1772795397961831200,5.6408310546875,0.001510510453954339,0.03090805374085903,-0.00492868572473526
1772795397971823000,5.650822998046875,0.0009267455898225307,0.013767417520284653,-0.0015544607304036617
1772795397981815000,5.66081494140625,-0.00028027419466525316,-0.0019537131302058697,-0.004306598100811243
1772795397991808300,5.670808349609375,-0.008116358891129494,-0.014385082758963108,-0.004947620909661055
1772795398001800000,5.680800048828125,-0.008274359628558159,-0.02444513328373432,-0.0011529086623340845
1772795398011790300,5.690790283203125,-0.011521552689373493,-0.034622400999069214,-0.0010272074723616242
1772795398021783300,5.700783203125,-0.012254413217306137,-0.038952842354774475,0.0016446633962914348
1772795398031775200,5.710775146484375,-0.010213899426162243,-0.04179789870977402,0.005158171523362398
1772795398041767400,5.720767333984375,-0.005285944789648056,-0.043628159910440445,0.004864878952503204
1772795398051759400,5.73075927734375,-0.0015812211204320192,-0.046404771506786346,0.007016447372734547
1772795398061752300,5.74075244140625,-0.00046503066550940275,-0.046163853257894516,0.009013413451611996
1772795398071744300,5.750744140625,0.002091603819280863,-0.04005589336156845,0.00975723471492529
1772795398081736400,5.760736328125,0.004249838180840015,-0.03138940781354904,0.0029883594252169132
1772795398091729400,5.7707294921875,0.004503637086600065,-0.019212903454899788,0.0050661577843129635
1772795398101721300,5.780721435546875,0.007444039918482304,-0.004790259525179863,0.001619577407836914
1772795398111713300,5.79071337890625,0.0072762612253427505,0.008930081501603127,-0.0045261993072927
1772795398121706200,5.800706298828125,0.008627671748399734,0.02494112402200699,-0.005776521284133196
1772795398131698400,5.810698486328125,0.0015865403693169355,0.037916041910648346,-0.007899593561887741
1772795398141690400,5.8206904296875,-0.001494293101131916,0.04524291306734085,-0.007977550849318504
1772795398151682300,5.830682373046875,-0.005526585504412651,0.051568448543548584,-0.00831044651567936
1772795398161675300,5.84067529296875,-0.008552851155400276,0.05409810319542885,-0.005888515617698431
1772795398171667500,5.85066748046875,-0.008834613487124443,0.04693366959691048,-0.004493551794439554
1772795398181659100,5.8606591796875,-0.008452791720628738,0.03293213993310928,-0.006397205404937267
1772795398191652400,5.87065234375,-0.007530805189162493,0.01677660644054413,-0.0026789000257849693
1772795398201644300,5.880644287109375,-0.003936630208045244,-0.0026738555170595646,-0.0020581381395459175
1772795398211636200,5.89063623046875,0.0006863509770482779,-0.023103496059775352,0.002543271519243717
1772795398221628200,5.900628173828125,0.003475294215604663,-0.03824996575713158,0.008027629926800728
1772795398231621400,5.910621337890625,0.009501229040324688,-0.04851112514734268,0.013650894165039062
1772795398241613300,5.92061328125,0.010937725193798542,-0.05258050188422203,0.012302633374929428
1772795398251605200,5.930605224609375,0.012137479148805141,-0.04657640680670738,0.00864797830581665
1772795398261598500,5.940598388671875,0.011227436363697052,-0.039081864058971405,0.0035694085527211428
1772795398271590100,5.950590087890625,0.008784518577158451,-0.021933505311608315,0.0012977321166545153
1772795398281582300,5.960582275390625,0.008813096210360527,-0.00038934266194701195,-0.0018617329187691212
1772795398291575300,5.9705751953125,0.003523259423673153,0.02011939510703087,-0.00566099863499403
1772795398301567200,5.980567138671875,0.0028255456127226353,0.04222079738974571,-0.002204377204179764
1772795398311559200,5.99055908203125,0.001413271063938737,0.05725035071372986,-0.002694132272154093
1772795398321551400,6.00055126953125,0.00024814484640955925,0.06322438269853592,-0.0021084200125187635
1772795398331544300,6.01054443359375,-0.002713290276005864,0.07096512615680695,-0.005859482102096081
1772795398341536300,6.020536376953125,-0.0015378869138658047,0.06837351620197296,-0.0070935385301709175
1772795398351528200,6.030528076171875,-0.0020960853435099125,0.060938503593206406,-0.00861846562474966
1772795398361521200,6.040521240234375,0.0026121921837329865,0.046024225652217865,-0.007339589297771454
1772795398371513300,6.050513427734375,0.005389602854847908,0.029722487553954124,-0.002279050415381789
1772795398381505300,6.06050537109375,0.004623103886842728,0.011405402794480324,0.001624689670279622
1772795398391498200,6.070498291015625,0.008350996300578117,-0.009434896521270275,0.004081988241523504
1772795398401490200,6.080490234375,0.009458031505346298,-0.02281021699309349,0.003513482166454196
1772795398411482400,6.090482421875,0.010892676189541817,-0.0372549369931221,0.005594476126134396
1772795398421474300,6.100474365234375,0.01085589174181223,-0.044568076729774475,0.003336010966449976
1772795398431467300,6.11046728515625,0.007471812888979912,-0.04548712819814682,-0.0008134605595842004
1772795398441459200,6.120459228515625,0.00263392087072134,-0.0371580608189106,-0.0013404162600636482
1772795398451451400,6.130451416015625,-0.0034024002961814404,-0.02188217081129551,0.0006417744443751872
1772795398461444400,6.1404443359375,-0.005606097634881735,0.0008720690384507179,0.0012595702428370714
1772795398471436300,6.150436279296875,-0.012547360733151436,0.018349861726164818,0.0005477073136717081
1772795398481428500,6.160428466796875,-0.013252465054392815,0.036455392837524414,-0.000544405251275748
1772795398491420200,6.170420166015625,-0.013499340042471886,0.048368245363235474,-0.003962572198361158
1772795398501413400,6.180413330078125,-0.008551662787795067,0.0492858849465847,-0.009025155566632748
1772795398511405300,6.1904052734375,-0.003336660796776414,0.03988679125905037,-0.009142867289483547
1772795398521397200,6.200397216796875,0.003774928394705057,0.025219080969691277,-0.007869025692343712
1772795398531390200,6.21039013671875,0.008479401469230652,0.008547160774469376,-0.002599694998934865
1772795398541382400,6.22038232421875,0.009350324049592018,-0.010006622411310673,0.0023614512756466866
1772795398551374000,6.2303740234375,0.007331382017582655,-0.024955477565526962,0.0047468445263803005
1772795398561367300,6.2403671875,0.009854084812104702,-0.036131490021944046,0.009529218077659607
1772795398571359500,6.250359375,0.00451604463160038,-0.04064581170678139,0.004883333574980497
1772795398581351200,6.26035107421875,-0.0014671972021460533,-0.03322652354836464,0.002138256561011076
1772795398591343400,6.27034326171875,-0.00024294201284646988,-0.018653705716133118,0.002379538957029581
1772795398601336300,6.28033642578125,-0.0008402890525758266,-0.0014941608533263206,0.0007068076520226896
1772795398611328300,6.290328369140625,-0.0037505915388464928,0.015305325388908386,-0.0016596773639321327
1772795398621320200,6.3003203125,-0.008201567456126213,0.02718452736735344,-0.0037351828068494797
1772795398631313400,6.3103134765625,-0.004901111125946045,0.03670160099864006,-0.006078232079744339
1772795398641305000,6.32030517578125,-0.0036675757728517056,0.03794383630156517,-0.007164456881582737
1772795398651297300,6.33029736328125,-0.005192768294364214,0.03140204772353172,-0.006143135018646717
1772795398661289200,6.340289306640625,-0.0012996160658076406,0.018013954162597656,-0.006322396919131279
1772795398671282200,6.3502822265625,0.0004956207703799009,0.0035410048440098763,-0.0023854458704590797
1772795398681274000,6.360274169921875,0.002071721013635397,-0.013691117987036705,0.00020759543986059725
1772795398691266300,6.370266357421875,0.0006812845822423697,-0.0269579216837883,0.00381271680817008
1772795398701259300,6.38025927734375,-0.0024939277209341526,-0.040102530270814896,0.002806067932397127
1772795398711251200,6.390251220703125,-0.003095801919698715,-0.04663872346282005,0.005525688175112009
1772795398721243400,6.400243408203125,-0.004048032220453024,-0.04775237292051315,0.006149880588054657
1772795398731236000,6.410236083984375,-0.0014051110483705997,-0.04310568794608116,0.004760243464261293
1772795398741228300,6.420228271484375,-0.0022023115307092667,-0.03470083698630333,0.005136333871632814
1772795398751220200,6.43022021484375,-0.00288567878305912,-0.018799103796482086,0.0038934366311877966
1772795398761212400,6.44021240234375,0.0031372583471238613,-0.002250945195555687,-0.00013347173808142543
1772795398771205000,6.450205078125,0.0046786959283053875,0.014326699078083038,-0.004470163024961948
1772795398781197300,6.460197265625,0.008813370019197464,0.02718479558825493,-0.0077387127093970776
1772795398791189200,6.470189208984375,0.0084873978048563,0.039245717227458954,-0.007759752217680216
1772795398801182200,6.48018212890625,0.00553511269390583,0.04468947649002075,-0.007707056123763323
1772795398811174400,6.49017431640625,0.0016895083244889975,0.04733426123857498,-0.006912102922797203
1772795398821166300,6.500166259765625,-0.0023282449692487717,0.041509609669446945,-0.0046964846551418304
1772795398831158300,6.510158203125,-0.006182371638715267,0.032550469040870667,-0.00037896778667345643
1772795398841151200,6.520151123046875,-0.004319517873227596,0.022325726225972176,-0.0019411994144320488
1772795398851143400,6.530143310546875,-0.0031716953963041306,0.010727660730481148,-0.0016069728881120682
1772795398861135400,6.54013525390625,-0.0035788111854344606,-0.002523438073694706,-0.0016723757144063711
1772795398871128300,6.55012841796875,0.0003898313734680414,-0.016499707475304604,0.00009915890404954553
1772795398881120300,6.560120361328125,0.0015468935016542673,-0.02487107925117016,-0.0006173420697450638
1772795398891112400,6.570112548828125,0.0015554155688732862,-0.0322062224149704,0.0026911029126495123
1772795398901105400,6.58010546875,-0.0001801392063498497,-0.03536200523376465,0.0035481294617056847
1772795398911097300,6.590097412109375,-0.0014187755296006799,-0.03592099994421005,0.0015345134306699038
1772795398921089300,6.60008935546875,0.0008018161170184612,-0.028383033350110054,0.0015691391890868545
1772795398931081200,6.610081298828125,-0.0008876933716237545,-0.02474089339375496,0.0019901851192116737
1772795398941074400,6.620074462890625,-0.0010950315045192838,-0.021159354597330093,-0.0006231420557014644
1772795398951066400,6.63006640625,-0.0023195529356598854,-0.014127010479569435,0.0007534459000453353
1772795398961058300,6.640058349609375,-0.0020188128110021353,-0.010428490117192268,0.0031233339104801416
1772795398971051300,6.65005126953125,-0.00022304337471723557,-0.0022206283174455166,0.004017623141407967
1772795398981043500,6.66004345703125,0.000703736674040556,0.004866043571382761,0.004147851839661598
1772795398991035100,6.67003515625,0.003505116095766425,0.009314853698015213,0.0028823178727179766
1772795399001027300,6.68002734375,0.0019664098508656025,0.019481930881738663,-0.003178028855472803
1772795399011020500,6.6900205078125,0.003099850844591856,0.029966529458761215,-0.005690987687557936
1772795399021012200,6.70001220703125,0.0046116868034005165,0.03997083380818367,-0.008582836017012596
1772795399031004400,6.71000439453125,0.003439096501097083,0.04977739229798317,-0.010972224175930023
1772795399040997600,6.71999755859375,0.002986775478348136,0.05672523006796837,-0.011913065798580647
1772795399050989300,6.7299892578125,-0.0011174220126122236,0.05625917389988899,-0.008343896828591824
1772795399060981500,6.7399814453125,0.0008696923032402992,0.050138313323259354,-0.0042635537683963776
1772795399070974500,6.749974365234375,-0.00012499839067459106,0.037514131516218185,0.0018316229106858373
1772795399080966400,6.75996630859375,0.0025485141668468714,0.022118834778666496,0.005044090561568737
1772795399090958300,6.769958251953125,0.0032989929895848036,0.0028836214914917946,0.004485359415411949
1772795399100950500,6.779950439453125,0.003850834909826517,-0.012223864905536175,0.0014734277501702309
1772795399110943200,6.789943115234375,0.004626613575965166,-0.020429596304893494,-0.0006618947954848409
1772795399120935400,6.799935302734375,0.006578982807695866,-0.02754286304116249,-0.0024759548250585794
1772795399130927400,6.80992724609375,0.011095704510807991,-0.024727635085582733,-0.0035894226748496294
1772795399140920300,6.81992041015625,0.015382589772343636,-0.019226912409067154,-0.005559181794524193
1772795399150912500,6.82991259765625,0.016411367803812027,-0.003813069546595216,-0.000763627584092319
1772795399160904400,6.839904541015625,0.013529629446566105,0.012708574533462524,0.0012677737977355719
1772795399170896400,6.849896484375,0.014274249784648418,0.03350413218140602,-0.00016767007764428854
1772795399180889300,6.859889404296875,0.009781988337635994,0.05741732567548752,-0.0036707138642668724
1772795399190881500,6.869881591796875,0.004474574699997902,0.07780222594738007,-0.008479849435389042
1772795399200873500,6.87987353515625,0.0012779892422258854,0.09384407848119736,-0.014178665354847908
1772795399210866400,6.889866455078125,-0.0020863821264356375,0.10129959881305695,-0.02284272573888302
1772795399220858400,6.8998583984375,-0.0015384266152977943,0.0983084887266159,-0.02039744332432747
1772795399230850600,6.9098505859375,0.0019846693612635136,0.08239849656820297,-0.014898547902703285
1772795399240843300,6.91984326171875,0.008469369262456894,0.05676744505763054,-0.009968466125428677
1772795399250835500,6.92983544921875,0.027475284412503242,0.06695163995027542,0.05718660354614258
1772795399260827400,6.939827392578125,0.02547280676662922,0.05576566606760025,0.09198585897684097
1772795399270819300,6.9498193359375,0.009408620186150074,-0.0020608813501894474,0.021464018151164055
1772795399280812500,6.9598125,-0.0038258018903434277,-0.048386089503765106,-0.04648800194263458
1772795399290804500,6.969804443359375,-0.01263633742928505,-0.06510727852582932,-0.08275838941335678
1772795399300796400,6.97979638671875,-0.013807794079184532,-0.05143069103360176,-0.07630827277898788
1772795399310789400,6.989789306640625,-0.010716928169131279,-0.019671160727739334,-0.031889673322439194
1772795399320781600,6.999781494140625,-0.005736319348216057,0.00029366230592131615,0.015151234343647957
1772795399330773200,7.009773193359375,-0.0026361336931586266,0.005115847568958998,0.041549019515514374
