time,seconds_elapsed,z,y,x
1772721351696607500,0.095607421875,0,0,0
1772721351715204900,0.114204833984375,-0.019356727600097656,-0.03477358818054199,0.0017224550247192383
1772721351733802200,0.13280224609375,-0.2539024353027344,0.02139633148908615,-0.01861441135406494
1772721351752400000,0.15139990234375,-0.3990650177001953,0.10489346086978912,-0.0649004578590393
1772721351770997200,0.169997314453125,-0.30195045471191406,0.19575059413909912,-0.0849752426147461
1772721351789594600,0.1885947265625,0.09116744995117188,-0.011987164616584778,0.011732995510101318
1772721351808192300,0.207192138671875,0.18564128875732422,-0.03136473149061203,0.1167420744895935
1772721351826789600,0.22578955078125,-0.11299991607666016,0.06697887927293777,0.1661706566810608
1772721351845387000,0.244386962890625,0.04887104034423828,-0.033516719937324524,0.08408379554748535
1772721351863984600,0.262984619140625,0.0958108901977539,0.02217692695558071,0.010405659675598145
1772721351882582000,0.28158203125,-0.2823667526245117,0.17446684837341309,-0.10872656106948853
1772721351901179400,0.300179443359375,-0.18897056579589844,0.06503717601299286,-0.02722722291946411
1772721351919777000,0.318777099609375,0.14902400970458984,-0.14113038778305054,0.008833885192871094
1772721351938374400,0.33737451171875,0.13529396057128906,-0.055825941264629364,0.06815177202224731
1772721351956972000,0.355971923828125,-0.04371356964111328,-0.002754680812358856,0.0467454195022583
1772721351975569400,0.3745693359375,-0.2712869644165039,0.052632082253694534,0.016463041305541992
1772721351994166800,0.393166748046875,-0.03597259521484375,-0.023714911192655563,0.03657054901123047
1772721352012764400,0.411764404296875,0.12295150756835938,-0.11734947562217712,0.048238158226013184
1772721352031361800,0.43036181640625,-0.16519737243652344,-0.07128313928842545,0.03484833240509033
1772721352049959400,0.44895947265625,-0.14378070831298828,-0.1230301633477211,0.09318697452545166
1772721352068556800,0.467556884765625,0.22863101959228516,-0.13666436076164246,0.1669931411743164
1772721352087154400,0.486154541015625,0.27503108978271484,-0.034044504165649414,0.05189967155456543
1772721352105751800,0.504751708984375,-0.23017120361328125,0.050359826534986496,-0.08467459678649902
1772721352124349200,0.52334912109375,-0.3213310241699219,0.09729912877082825,-0.07327818870544434
1772721352142946800,0.54194677734375,-0.040770530700683594,0.03096657246351242,-0.06051194667816162
1772721352161544200,0.560544189453125,0.006360054016113281,0.1041109561920166,-0.00971829891204834
1772721352180141800,0.579141845703125,-0.08269214630126953,-0.09681646525859833,0.03581035137176514
1772721352198739200,0.5977392578125,0.28767871856689453,0.08181779086589813,0.04230368137359619
1772721352217336800,0.6163369140625,0.16325759887695312,0.16645070910453796,0.037648558616638184
1772721352235934200,0.634934326171875,-0.1287546157836914,0.18334488570690155,-0.21749067306518555
1772721352254531800,0.65353173828125,-0.1480274200439453,0.020283376798033714,-0.24962520599365234
1772721352273129200,0.672129150390625,-0.09699821472167969,-0.03088940866291523,-0.15450263023376465
1772721352291726800,0.690726806640625,-0.10463809967041016,-0.10950814932584763,-0.06947100162506104
1772721352310324200,0.70932421875,0.0102691650390625,-0.10948412120342255,0.11426699161529541
1772721352328921600,0.727921630859375,0.036708831787109375,-0.14098215103149414,0.15783476829528809
1772721352347519200,0.746519287109375,-0.2774496078491211,-0.06564022600650787,0.1300983428955078
1772721352366116600,0.76511669921875,-0.39913272857666016,0.004856809973716736,0.03600144386291504
1772721352384714200,0.78371435546875,0.015855789184570312,-0.021581348031759262,-0.09941267967224121
1772721352403311600,0.8023115234375,0.35221099853515625,-0.0796913206577301,-0.04833412170410156
1772721352421909200,0.8209091796875,0.1665515899658203,0.04779389128088951,-0.01743495464324951
1772721352440506600,0.839506591796875,-0.2854137420654297,0.05324249342083931,0.09894120693206787
1772721352459104300,0.858104248046875,-0.3986978530883789,-0.0011845268309116364,-0.019006848335266113
1772721352477701600,0.87670166015625,0.02822589874267578,-0.057442158460617065,0.037230491638183594
1772721352496299300,0.89529931640625,0.3779010772705078,-0.005158767104148865,0.014108777046203613
1772721352514897000,0.91389697265625,0.3914480209350586,-0.04962294548749924,0.06356406211853027
1772721352533494300,0.932494384765625,-0.01679515838623047,0.08002454042434692,0.028109073638916016
1772721352552092000,0.951091796875,-0.24007225036621094,0.08373035490512848,-0.05146676301956177
1772721352570689300,0.969689208984375,-0.05137443542480469,0.02071044221520424,-0.11712807416915894
1772721352589286700,0.98828662109375,0.17253971099853516,0.004831824451684952,-0.12965720891952515
1772721352607884300,1.00688427734375,0.08748912811279297,0.0024876147508621216,-0.08690905570983887
1772721352626481700,1.025481689453125,-0.06494712829589844,-0.017027780413627625,0.025303900241851807
1772721352645079300,1.044079345703125,-0.15926837921142578,-0.03636903688311577,0.10094916820526123
1772721352663676700,1.0626767578125,-0.0775766372680664,-0.09642672538757324,0.06064558029174805
1772721352682274300,1.0812744140625,0.038992881774902344,-0.048883989453315735,0.06415081024169922
1772721352700871700,1.09987158203125,-0.02219676971435547,-0.03471200540661812,0.06724703311920166
1772721352719469300,1.11846923828125,-0.054412841796875,-0.07385794818401337,0.0261232852935791
1772721352738067000,1.13706689453125,-0.040198326110839844,-0.07044341415166855,-0.02882319688796997
1772721352756664300,1.155664306640625,0.02855205535888672,-0.08743706345558167,-0.057338833808898926
1772721352775262000,1.174261962890625,-0.011263847351074219,-0.002020828425884247,-0.02237069606781006
1772721352793859300,1.192859375,-0.13276195526123047,-0.0027837008237838745,-0.026264309883117676
1772721352812457000,1.21145703125,0.028876304626464844,-0.09503209590911865,0.010562300682067871
1772721352831054300,1.230054443359375,0.16932392120361328,-0.12256894260644913,0.014188289642333984
1772721352849652000,1.24865185546875,-0.06397056579589844,-0.05010315030813217,0.013710081577301025
1772721352868249600,1.26724951171875,-0.18897247314453125,-0.08042847365140915,-0.02101433277130127
1772721352886847000,1.285846923828125,0.03675365447998047,-0.05560077726840973,-0.042849719524383545
1772721352905444600,1.304444580078125,0.2126779556274414,-0.13014671206474304,-0.09432858228683472
1772721352924042000,1.3230419921875,0.0004119873046875,-0.014223679900169373,-0.05287158489227295
1772721352942639600,1.3416396484375,-0.19272136688232422,0.06774772703647614,0.09537041187286377
1772721352961237000,1.360237060546875,-0.11926460266113281,-0.059076033532619476,0.1702468991279602
1772721352979834600,1.378834716796875,0.08529472351074219,-0.16643254458904266,-0.03269803524017334
1772721352998432000,1.397431884765625,0.32573986053466797,-0.07509361207485199,-0.028852760791778564
1772721353017029600,1.416029541015625,0.2675189971923828,-0.01899874210357666,0.05337923765182495
1772721353035627300,1.434627197265625,-0.07951641082763672,0.028241358697414398,0.08669459819793701
1772721353054224600,1.453224609375,-0.3391609191894531,0.02748093754053116,0.12260961532592773
1772721353072822300,1.471822265625,-0.08443260192871094,-0.10229887813329697,0.08643531799316406
1772721353091419600,1.490419677734375,0.26026153564453125,-0.12943145632743835,-0.02489989995956421
1772721353110017300,1.509017333984375,0.20490455627441406,-0.005286946892738342,-0.0649493932723999
1772721353128615000,1.527614990234375,-0.08251476287841797,0.0525679774582386,-0.036766111850738525
1772721353147212300,1.54621240234375,-0.21931743621826172,0.031210310757160187,-0.036753952503204346
1772721353165810000,1.564809814453125,-0.20491695404052734,0.006454914808273315,-0.08645355701446533
1772721353184407300,1.5834072265625,0.11824703216552734,-0.06902196258306503,-0.0373041033744812
1772721353203005000,1.6020048828125,0.17238521575927734,-0.014432437717914581,0.0011088252067565918
1772721353221602300,1.620602294921875,0.043178558349609375,0.0017588809132575989,0.046236515045166016
1772721353240200000,1.639199951171875,-0.10472583770751953,-0.005646474659442902,0.046072959899902344
1772721353258797600,1.657797607421875,-0.17063426971435547,-0.08718274533748627,-0.06154876947402954
1772721353277395000,1.67639501953125,0.05718231201171875,-0.10498892515897751,-0.060893356800079346
1772721353295992600,1.69499267578125,-0.06278228759765625,0.02794373780488968,-0.0785951018333435
1772721353314590200,1.713590087890625,-0.22556209564208984,0.024736348539590836,-0.09911602735519409
1772721353333187600,1.7321875,0.29570579528808594,-0.1508176475763321,-0.027368903160095215
1772721353351785200,1.75078515625,0.10310745239257812,0.007083535194396973,-0.05019783973693848
1772721353370382600,1.769382568359375,-0.046805381774902344,-0.008715711534023285,-0.0741887092590332
1772721353388980200,1.787980224609375,0.12567901611328125,-0.027064986526966095,-0.06702941656112671
1772721353407577900,1.806577880859375,-0.07256507873535156,0.019820895045995712,-0.05999690294265747
1772721353426175200,1.82517529296875,-0.10242366790771484,-0.03105197846889496,0.007791638374328613
1772721353444772900,1.84377294921875,-0.026961326599121094,-0.06704927980899811,-0.009469568729400635
1772721353463370500,1.86237060546875,-0.08555412292480469,-0.12880760431289673,0.03605377674102783
1772721353481967900,1.8809677734375,-0.03872394561767578,-0.06301909685134888,0.03288555145263672
1772721353500565500,1.8995654296875,0.058241844177246094,-0.008827749639749527,0.07657444477081299
1772721353519163100,1.9181630859375,-0.05129718780517578,0.03169552981853485,0.037326931953430176
1772721353537760500,1.936760498046875,-0.15262508392333984,-0.019357867538928986,-0.048168957233428955
1772721353556358100,1.955358154296875,0.03483295440673828,-0.10891766846179962,-0.04052382707595825
1772721353574955500,1.97395556640625,0.08814620971679688,-0.03761174529790878,0.003874540328979492
1772721353593553200,1.99255322265625,0.060975074768066406,-0.03298366069793701,0.024737179279327393
1772721353612150800,2.01115087890625,0.11014556884765625,-0.047098558396101,0.05999058485031128
1772721353630748400,2.02974853515625,0.0909576416015625,-0.037259407341480255,0.08091557025909424
1772721353649345800,2.048345703125,-0.08199119567871094,-0.02507062628865242,0.08743244409561157
1772721353667943400,2.066943359375,-0.2834749221801758,0.016427790746092796,-0.02799314260482788
1772721353686541000,2.085541015625,-0.05227375030517578,-0.02767801098525524,-0.043693602085113525
1772721353705138400,2.104138427734375,0.29378223419189453,-0.0778978168964386,-0.049313247203826904
1772721353723736000,2.122736083984375,0.1398019790649414,-0.05599074065685272,-0.04829949140548706
1772721353742333400,2.14133349609375,-0.16430377960205078,0.045313507318496704,-0.027340352535247803
1772721353760931000,2.15993115234375,-0.16784954071044922,0.02302544377744198,-0.014763236045837402
1772721353779528700,2.17852880859375,0.0817117691040039,-0.062341075390577316,-0.04850667715072632
1772721353798126300,2.197126220703125,0.1447134017944336,-0.07449667155742645,0.03332239389419556
1772721353816723700,2.2157236328125,-0.10970592498779297,-0.020890533924102783,-0.0016385912895202637
1772721353835321300,2.2343212890625,-0.13949203491210938,-0.04643484205007553,-0.06872862577438354
1772721353853919000,2.2529189453125,0.023565292358398438,-0.0008523012511432171,-0.045881032943725586
1772721353872516400,2.271516357421875,0.05077362060546875,-0.03723135590553284,-0.04411441087722778
1772721353891114000,2.290114013671875,0.04789257049560547,-0.05278947949409485,-0.06158536672592163
1772721353909711600,2.308711669921875,0.01983356475830078,0.027028420940041542,-0.06757920980453491
1772721353928309000,2.32730908203125,0.0685567855834961,0.05539306253194809,-0.056833863258361816
1772721353946906600,2.34590673828125,0.03305625915527344,0.03796473518013954,-0.016038954257965088
1772721353965504300,2.364504150390625,0.07190704345703125,-0.06283502280712128,0.02716827392578125
1772721353984102000,2.383101806640625,0.1599254608154297,-0.11794601380825043,0.03769117593765259
1772721354002699300,2.40169921875,-0.064361572265625,-0.04010024294257164,0.12420654296875
1772721354021297000,2.420296875,-0.2702798843383789,0.03072025440633297,0.09609675407409668
1772721354039894300,2.438894287109375,-0.2411479949951172,0.022966889664530754,0.1717173457145691
1772721354058492000,2.457491943359375,0.03841686248779297,-0.06348015367984772,-0.00829082727432251
1772721354077089500,2.476089599609375,0.1839742660522461,0.027535978704690933,0.028545379638671875
1772721354095687200,2.494687255859375,0.0488739013671875,0.09106524288654327,0.14076411724090576
1772721354114284800,2.513284912109375,-0.2641792297363281,0.0768241435289383,0.09865456819534302
1772721354132882200,2.531882080078125,-0.20760536193847656,0.08265416324138641,0.019255995750427246
1772721354151479800,2.550479736328125,0.07063579559326172,-0.003680948168039322,-0.07753342390060425
1772721354170077200,2.5690771484375,0.1137237548828125,0.036703430116176605,-0.044585585594177246
1772721354188674800,2.5876748046875,-0.04560279846191406,0.11940804123878479,0.015415430068969727
1772721354207272400,2.6062724609375,-0.12644004821777344,0.10648902505636215,0.04341530799865723
1772721354225870000,2.6248701171875,0.06439495086669922,0.04127546399831772,-0.0260770320892334
1772721354244467700,2.6434677734375,0.2118511199951172,0.010362230241298676,0.019914984703063965
1772721354263065000,2.662065185546875,0.037261962890625,0.06861434131860733,0.041341543197631836
1772721354281662700,2.680662841796875,-0.1372833251953125,0.012383900582790375,0.052206456661224365
1772721354300260000,2.699260009765625,-0.1115875244140625,0.0007799193263053894,0.06295931339263916
1772721354318857700,2.717857666015625,0.00013256072998046875,0.008534803986549377,-0.07496494054794312
1772721354337455400,2.736455322265625,0.07825756072998047,0.06930047273635864,-0.10406225919723511
1772721354356053000,2.755052978515625,-0.034567832946777344,0.07468895614147186,-0.07573598623275757
1772721354374650600,2.773650634765625,-0.035388946533203125,-0.009736396372318268,-0.05828183889389038
1772721354393248300,2.792248291015625,0.11165809631347656,0.03294292837381363,-0.04657965898513794
1772721354411845600,2.810845703125,0.039577484130859375,0.007265731692314148,0.030292153358459473
1772721354430443300,2.829443359375,-0.1275348663330078,0.010925143957138062,0.07261955738067627
1772721354449040600,2.84804052734375,-0.029328346252441406,-0.010582856833934784,0.03452175855636597
1772721354467638300,2.86663818359375,0.15507125854492188,-0.06431124359369278,0.04820960760116577
1772721354486236000,2.88523583984375,0.11869430541992188,-0.03486674651503563,-0.00426560640335083
1772721354504833500,2.90383349609375,-0.04654693603515625,0.03355108201503754,0.04058641195297241
1772721354523431200,2.92243115234375,-0.11017227172851562,0.07239505648612976,0.03494441509246826
1772721354542028500,2.941028564453125,0.0322418212890625,0.008918561041355133,0.031401634216308594
1772721354560626200,2.959626220703125,0.08440589904785156,-0.05308091640472412,0.020475327968597412
1772721354579223800,2.978223876953125,-0.0011243820190429688,-0.06251940131187439,0.0028177499771118164
1772721354597821400,2.996821533203125,-0.051400184631347656,-0.07142676413059235,0.024958252906799316
1772721354616418800,3.015418701171875,-0.11800956726074219,-0.0345681756734848,-0.027479052543640137
1772721354635016400,3.034016357421875,-0.08858585357666016,-0.049711745232343674,-0.020480751991271973
1772721354653614000,3.052614013671875,0.017400741577148438,-0.05307311564683914,-0.031080305576324463
1772721354672211500,3.07121142578125,0.1692523956298828,-0.05943655967712402,-0.044929683208465576
1772721354690809000,3.08980908203125,0.15449142456054688,-0.020218729972839355,-0.05447244644165039
1772721354709406700,3.10840673828125,-0.05353832244873047,0.052465975284576416,-0.03230619430541992
1772721354728004400,3.12700439453125,-0.14107227325439453,0.02215709537267685,-0.034139811992645264
1772721354746602000,3.14560205078125,-0.050391197204589844,-0.029954470694065094,-0.11689615249633789
1772721354765199400,3.164199462890625,0.1609325408935547,-0.07288512587547302,-0.029306888580322266
1772721354783797000,3.182796875,0.16031932830810547,-0.07083047181367874,0.03064703941345215
1772721354802394600,3.20139453125,-0.12490367889404297,-0.019536428153514862,0.053192198276519775
1772721354820992300,3.2199921875,-0.10115623474121094,-0.06184958666563034,0.010301530361175537
1772721354839590000,3.23858984375,0.0759439468383789,-0.055485259741544724,-0.07849633693695068
1772721354858187300,3.257187255859375,0.009318351745605469,-0.0012394487857818604,-0.03397446870803833
1772721354876785000,3.275784912109375,-0.09776973724365234,0.0009392723441123962,-0.08037370443344116
1772721354895382500,3.294382568359375,-0.04277229309082031,-0.031102821230888367,-0.028529763221740723
1772721354913980000,3.31297998046875,0.1279745101928711,-0.0651320219039917,-0.009931743144989014
1772721354932577500,3.33157763671875,0.010352134704589844,-0.0655767098069191,0.0009490847587585449
1772721354951175200,3.350175048828125,-0.09268665313720703,-0.06973586976528168,0.022905409336090088
1772721354969772800,3.368772705078125,0.0006532669067382812,-0.05727412924170494,0.018113791942596436
1772721354988370400,3.387370361328125,0.11283588409423828,-0.07465343177318573,-0.012495160102844238
1772721355006967800,3.4059677734375,0.04768943786621094,-0.07523121684789658,-0.03889244794845581
1772721355025565400,3.4245654296875,-0.13564682006835938,-0.04646699130535126,-0.05202728509902954
1772721355044163000,3.4431630859375,-0.15463542938232422,-0.04223938286304474,-0.02090322971343994
1772721355062760700,3.4617607421875,0.005593299865722656,-0.0610104463994503,-0.01556771993637085
1772721355081358300,3.4803583984375,0.19414138793945312,-0.09334279596805573,-0.011267006397247314
1772721355099955700,3.498955810546875,0.10428333282470703,-0.0502094104886055,0.06485456228256226
1772721355118553300,3.51755322265625,-0.1417407989501953,-0.047605838626623154,0.10500705242156982
1772721355137151000,3.53615087890625,-0.1979827880859375,-0.028846697881817818,0.013650834560394287
1772721355155748600,3.55474853515625,0.16794586181640625,-0.1242518275976181,-0.06765353679656982
1772721355174346200,3.57334619140625,0.22664737701416016,-0.09767336398363113,0.014580249786376953
1772721355192943900,3.59194384765625,0.0028438568115234375,-0.0013227760791778564,-0.014245688915252686
1772721355211541200,3.610541259765625,-0.25169849395751953,0.015527293086051941,-0.06082797050476074
1772721355230139000,3.629138916015625,-0.025594711303710938,-0.06779664754867554,-0.07200795412063599
1772721355248736500,3.647736572265625,0.16681861877441406,-0.07064484804868698,0.05863410234451294
1772721355267334100,3.666334228515625,0.14216899871826172,-0.07722923159599304,0.07292169332504272
1772721355285931800,3.684931884765625,-0.18538188934326172,0.034901078790426254,-0.04142165184020996
1772721355304529200,3.703529052734375,-0.07235908508300781,-0.001533467322587967,-0.0834382176399231
1772721355323126800,3.722126708984375,-0.09386062622070312,0.06259608268737793,-0.07398736476898193
1772721355341724400,3.740724365234375,0.028223037719726562,-0.019619012251496315,0.037920475006103516
1772721355360322000,3.759322021484375,0.11109733581542969,-0.037655070424079895,0.04489403963088989
1772721355378919700,3.777919677734375,-0.06770992279052734,0.012511350214481354,0.05540060997009277
1772721355397517000,3.79651708984375,0.08665847778320312,-0.07909131795167923,0.0989922285079956
1772721355416114700,3.81511474609375,-0.1840038299560547,0.04237896576523781,-0.02664172649383545
1772721355434712300,3.83371240234375,-0.123260498046875,0.05603931099176407,-0.029888033866882324
1772721355453310000,3.85231005859375,0.1397867202758789,-0.07827083766460419,-0.01622939109802246
1772721355471907600,3.870907470703125,0.1190948486328125,-0.004467494785785675,-0.0745355486869812
1772721355490505200,3.889505126953125,0.03782463073730469,0.015069466084241867,-0.051045894622802734
1772721355509102600,3.9081025390625,-0.013833045959472656,0.03147732466459274,-0.05188548564910889
1772721355527700200,3.9267001953125,-0.058302879333496094,0.015228163450956345,0.008434593677520752
1772721355546297900,3.9452978515625,-0.005135536193847656,-0.03955303877592087,0.03207743167877197
1772721355564895500,3.9638955078125,0.14601993560791016,-0.04895374923944473,0.1001518964767456
1772721355583493000,3.9824931640625,0.14299297332763672,-0.017270922660827637,0.05226689577102661
1772721355602090800,4.0010908203125,-0.04871654510498047,0.034904513508081436,-0.00027292966842651367
1772721355620688100,4.019688232421875,-0.17115306854248047,0.014056909829378128,-0.011285662651062012
1772721355639285800,4.03828564453125,-0.15087223052978516,0.07040940225124359,-0.019903719425201416
1772721355657883400,4.05688330078125,0.02132892608642578,-0.0327259860932827,-0.024602830410003662
1772721355676481000,4.07548095703125,0.018120765686035156,0.0457112155854702,-0.0059975385665893555
1772721355695078700,4.09407861328125,-0.06258583068847656,0.01246461272239685,-0.07064121961593628
1772721355713676000,4.112676025390625,-0.13372516632080078,-0.004946734756231308,-0.005112111568450928
1772721355732273700,4.131273681640625,-0.10371780395507812,-0.0105210542678833,0.025374531745910645
1772721355750871300,4.149871337890625,-0.009855270385742188,-0.005268726497888565,-0.01989281177520752
1772721355769469000,4.168468994140625,0.1372089385986328,-0.03629070892930031,-0.04075288772583008
1772721355788066600,4.187066650390625,0.1737689971923828,-0.05024479329586029,-0.021081209182739258
1772721355806664200,4.205664306640625,0.026395797729492188,0.002780187875032425,0.05263245105743408
1772721355825261600,4.224261474609375,-0.09964179992675781,0.04223182797431946,0.07308971881866455
1772721355843859200,4.242859130859375,0.039872169494628906,-0.018513992428779602,0.08270198106765747
1772721355862456800,4.261456787109375,0.019455909729003906,0.0433688685297966,0.061968326568603516
1772721355881054500,4.280054443359375,0.1589183807373047,-0.0677848756313324,0.028547286987304688
1772721355899652000,4.298652099609375,0.21288490295410156,-0.04419904947280884,-0.027262866497039795
1772721355918249500,4.31724951171875,-0.2184457778930664,0.05851931497454643,-0.014429628849029541
1772721355936847000,4.33584716796875,-0.007584571838378906,-0.08176227658987045,-0.05338919162750244
1772721355955444700,4.35444482421875,0.05100536346435547,0.004652917385101318,-0.014338016510009766
1772721355974042400,4.37304248046875,-0.09536933898925781,-0.008874364197254181,0.005979418754577637
1772721355992640000,4.391639892578125,-0.06339263916015625,-0.021828677505254745,-0.01796358823776245
1772721356011237600,4.410237548828125,0.11303043365478516,-0.05793193727731705,0.008487462997436523
1772721356029835000,4.4288349609375,0.2811918258666992,-0.13969001173973083,-0.012560248374938965
1772721356048432600,4.4474326171875,-0.13337326049804688,-0.021066628396511078,0.06377989053726196
1772721356067030300,4.4660302734375,-0.20890426635742188,0.011126041412353516,0.07394230365753174
1772721356085628000,4.4846279296875,-0.2634601593017578,0.05665774643421173,0.007859647274017334
1772721356104225500,4.5032255859375,-0.13897132873535156,0.0634203851222992,-0.06634891033172607
1772721356122823200,4.5218232421875,0.3052482604980469,-0.04893753305077553,-0.09281426668167114
1772721356141420500,4.540420654296875,0.29871463775634766,-0.0576530359685421,0.0019285082817077637
1772721356160018200,4.55901806640625,-0.15135955810546875,0.029309257864952087,0.01057499647140503
1772721356178615800,4.57761572265625,-0.25197601318359375,0.01279538869857788,0.010938465595245361
1772721356197213400,4.59621337890625,-0.06009483337402344,-0.03549468517303467,0.022299349308013916
1772721356215811000,4.61481103515625,0.07398128509521484,-0.11619335412979126,0.0288657546043396
1772721356234408700,4.63340869140625,0.04290962219238281,-0.07280029356479645,0.005519211292266846
1772721356253006300,4.65200634765625,-0.14354610443115234,-0.01736760139465332,-0.08353614807128906
1772721356271604000,4.67060400390625,-0.05346107482910156,-0.053657807409763336,-0.09838676452636719
1772721356290201300,4.689201416015625,0.055335044860839844,-0.04020953178405762,-0.027370572090148926
1772721356308799000,4.707799072265625,0.0580596923828125,-0.03460577875375748,0.01086491346359253
1772721356327396600,4.726396728515625,-0.0103607177734375,-0.010244607925415039,0.01195836067199707
1772721356345994200,4.744994140625,-0.025320053100585938,-0.03045782446861267,0.010356247425079346
1772721356364591900,4.763591796875,0.07117462158203125,-0.056303489953279495,-0.04048478603363037
1772721356383189500,4.782189453125,0.10942554473876953,-0.05325433611869812,-0.04587942361831665
1772721356401787000,4.800786865234375,-0.08807373046875,-0.020340878516435623,0.009382307529449463
1772721356420384500,4.819384521484375,-0.08244895935058594,-0.030893675982952118,0.012549638748168945
1772721356438982100,4.837982177734375,0.006552696228027344,-0.06681840866804123,0.020438015460968018
1772721356457579800,4.856579833984375,0.055222511291503906,-0.07192321866750717,-0.03355896472930908
1772721356476177400,4.875177490234375,-0.01587677001953125,-0.02946576103568077,0.011032342910766602
1772721356494774800,4.89377490234375,-0.07971858978271484,-0.03146687150001526,0.03911161422729492
1772721356513372400,4.912372314453125,0.004366874694824219,0.0011367015540599823,0.030800163745880127
1772721356531970000,4.930969970703125,0.055993080139160156,-0.02166389301419258,0.056001245975494385
1772721356550567700,4.949567626953125,0.0220947265625,-0.020291734486818314,0.019241511821746826
1772721356569165300,4.968165283203125,0.0189666748046875,-0.01042386144399643,0.024309754371643066
1772721356587763000,4.986762939453125,0.06466102600097656,-0.02255462110042572,0.005447745323181152
1772721356606360600,5.005360595703125,0.03313732147216797,-0.0036200806498527527,-0.004449367523193359
1772721356624958200,5.023958251953125,-0.07064533233642578,-0.021249491721391678,-0.00004935264587402344
1772721356643555800,5.042555908203125,-0.03190422058105469,-0.03933040052652359,-0.05150192975997925
1772721356662153200,5.0611533203125,0.08477210998535156,-0.05255989730358124,-0.0066699981689453125
1772721356680750800,5.079750732421875,-0.02551555633544922,-0.0828101709485054,0.012399613857269287
1772721356699348500,5.098348388671875,-0.034897804260253906,-0.0701284110546112,0.03979361057281494
1772721356717946000,5.116946044921875,0.014829635620117188,-0.07206293940544128,0.006707131862640381
1772721356736543700,5.135543701171875,0.08873462677001953,-0.11909734457731247,-0.02461951971054077
1772721356755141400,5.154141357421875,-0.033745765686035156,-0.05145058408379555,0.03573298454284668
1772721356773738800,5.17273876953125,-0.1407184600830078,-0.012062624096870422,0.04372704029083252
1772721356792336400,5.19133642578125,0.004184722900390625,0.005325363948941231,0.035660386085510254
1772721356810934000,5.20993408203125,0.11361503601074219,-0.01894046552479267,-0.002841174602508545
1772721356829531600,5.22853173828125,-0.03502178192138672,0.008678192272782326,0.024225592613220215
1772721356848129300,5.24712939453125,-0.14906024932861328,0.0047544874250888824,0.04595446586608887
1772721356866727000,5.265726806640625,-0.04529094696044922,-0.06765724718570709,-0.01871621608734131
1772721356885324300,5.28432421875,0.046599388122558594,-0.010468373075127602,-0.065548837184906
1772721356903922000,5.302921875,0.07045936584472656,-0.000040236860513687134,-0.032235026359558105
1772721356922519600,5.32151953125,0.0009918212890625,-0.049621403217315674,0.009928584098815918
1772721356941117200,5.3401171875,-0.09234142303466797,0.04073329642415047,-0.02530491352081299
1772721356959714800,5.35871484375,-0.11093902587890625,0.030119873583316803,-0.02065330743789673
1772721356978312400,5.3773125,-0.059062957763671875,-0.02899196557700634,-0.059190988540649414
1772721356996910000,5.39591015625,0.0692586898803711,-0.0684652328491211,-0.04405558109283447
1772721357015507700,5.4145078125,0.0664224624633789,-0.023864883929491043,0.04945248365402222
1772721357034105000,5.43310498046875,0.06574630737304688,0.014776935800909996,0.04032987356185913
1772721357052702700,5.45170263671875,-0.060517311096191406,0.004851657897233963,0.03978234529495239
1772721357071300400,5.47030029296875,-0.018675804138183594,-0.007224098779261112,-0.035129666328430176
1772721357089898000,5.48889794921875,0.259979248046875,-0.07264148443937302,-0.046304523944854736
1772721357108495600,5.50749560546875,0.15968036651611328,-0.0158371664583683,-0.03867441415786743
1772721357127093200,5.52609326171875,-0.17293643951416016,0.03751558065414429,-0.02519857883453369
1772721357145690600,5.544690673828125,-0.12330913543701172,0.007727954536676407,-0.04727870225906372
1772721357164288300,5.563288330078125,-0.006741523742675781,-0.024389605969190598,-0.047221243381500244
1772721357182886000,5.581885986328125,0.26681041717529297,-0.15252763032913208,0.015729784965515137
1772721357201483500,5.6004833984375,0.031685829162597656,-0.04469214752316475,0.07095301151275635
1772721357220081200,5.6190810546875,-0.20510292053222656,-0.003419359214603901,0.004008233547210693
1772721357238678800,5.6376787109375,-0.12562942504882812,0.010225873440504074,-0.010069727897644043
1772721357257276400,5.6562763671875,0.035180091857910156,-0.02760433405637741,-0.04591268301010132
1772721357275874000,5.6748740234375,0.12332344055175781,-0.012633752077817917,0.017937064170837402
1772721357294471700,5.6934716796875,0.061412811279296875,0.00626073032617569,0.038581907749176025
1772721357313069000,5.712069091796875,0.0025844573974609375,0.009356530383229256,0.04897451400756836
1772721357331666700,5.730666748046875,-0.0833883285522461,0.07611596584320068,0.018152236938476562
1772721357350264300,5.749264404296875,-0.14461612701416016,0.08460050076246262,0.01132887601852417
1772721357368862000,5.767862060546875,-0.11709403991699219,0.06026323139667511,0.09234887361526489
1772721357387459600,5.78645947265625,0.030145645141601562,-0.015589436516165733,0.0611453652381897
1772721357406057200,5.80505712890625,0.024089813232421875,-0.015921277925372124,0.04903537034988403
1772721357424654600,5.823654541015625,-0.07623291015625,0.03183368220925331,-0.03984266519546509
1772721357443252200,5.842252197265625,-0.08305644989013672,0.07910864055156708,-0.04940950870513916
1772721357461849900,5.860849853515625,0.011294364929199219,0.034423232078552246,-0.07784414291381836
1772721357480447500,5.879447509765625,0.05239391326904297,0.0307161808013916,-0.028431177139282227
1772721357499045000,5.898045166015625,0.13563251495361328,-0.016109783202409744,-0.0006011724472045898
1772721357517642800,5.916642822265625,0.09761714935302734,-0.04721374437212944,0.04141366481781006
1772721357536240400,5.935240478515625,-0.05520153045654297,0.015967316925525665,0.029268741607666016
1772721357554837800,5.953837646484375,-0.07207584381103516,0.001908518373966217,0.04308807849884033
1772721357573435400,5.972435302734375,-0.01556396484375,0.0155300572514534,0.042987048625946045
1772721357592033000,5.991032958984375,0.09345722198486328,-0.05240738391876221,0.0423317551612854
1772721357610630700,6.009630615234375,0.1285257339477539,-0.08322973549365997,-0.016159355640411377
1772721357629228300,6.028228271484375,-0.02737140655517578,-0.017423847690224648,-0.03974759578704834
1772721357647826000,6.046825927734375,-0.02217578887939453,-0.022708795964717865,-0.0958448052406311
1772721357666423600,6.065423583984375,-0.04357433319091797,-0.029979266226291656,0.034971654415130615
1772721357685021000,6.08402099609375,-0.14102745056152344,-0.07003866881132126,0.05594933032989502
1772721357703618600,6.10261865234375,-0.04367637634277344,-0.11793298274278641,0.001126706600189209
1772721357722216200,6.12121630859375,0.09581279754638672,-0.1334642469882965,0.019974112510681152
1772721357740813800,6.139813720703125,-0.06899070739746094,-0.021992536261677742,0.06424492597579956
1772721357759411500,6.158411376953125,-0.078094482421875,0.01608438603579998,-0.01867002248764038
1772721357778009000,6.177009033203125,-0.0012998580932617188,0.0019996855407953262,-0.029077112674713135
1772721357796606500,6.1956064453125,0.0967855453491211,-0.07221077382564545,-0.05845320224761963
1772721357815204000,6.2142041015625,0.0741128921508789,-0.07031378149986267,0.02934056520462036
1772721357833801700,6.2328017578125,-0.06616020202636719,0.01920686848461628,0.11312800645828247
1772721357852399400,6.2513994140625,-0.05822563171386719,0.02302504889667034,0.11503690481185913
1772721357870997000,6.2699970703125,0.021165847778320312,-0.01562207005918026,0.044414520263671875
1772721357889594600,6.2885947265625,0.2261638641357422,-0.1513366997241974,-0.07393616437911987
1772721357908192300,6.307192138671875,0.21860218048095703,-0.04394175857305527,-0.023359477519989014
1772721357926790000,6.325789794921875,0.058279991149902344,0.009781107306480408,0.010317027568817139
1772721357945387500,6.344387451171875,-0.16614532470703125,0.023961789906024933,-0.009468555450439453
1772721357963985000,6.36298486328125,-0.10196971893310547,0.004970166832208633,0.006383955478668213
1772721357982582500,6.38158251953125,0.17577457427978516,-0.061325930058956146,-0.02704787254333496
1772721358001180200,6.40018017578125,0.0855112075805664,0.0017598457634449005,0.0032193660736083984
1772721358019777800,6.41877783203125,0.024466514587402344,-0.025575170293450356,-0.03104555606842041
1772721358038375400,6.43737548828125,-0.14975833892822266,0.05180133134126663,-0.005909264087677002
1772721358056972800,6.455972900390625,-0.24340343475341797,0.0473858118057251,-0.014338493347167969
1772721358075570400,6.4745703125,0.06468391418457031,-0.03790389001369476,-0.07971280813217163
1772721358094168000,6.49316796875,0.22004318237304688,-0.042582545429468155,-0.12119072675704956
1772721358112765700,6.511765625,-0.03853321075439453,0.059061042964458466,-0.09085005521774292
1772721358131363300,6.53036328125,-0.29721736907958984,0.017787158489227295,-0.06918931007385254
1772721358149961000,6.5489609375,-0.036919593811035156,-0.09836240112781525,-0.12175625562667847
1772721358168558300,6.567558349609375,0.21923542022705078,-0.13252192735671997,0.049488842487335205
1772721358187156000,6.586156005859375,-0.0625905990600586,-0.10185851156711578,0.09161478281021118
1772721358205753600,6.604753662109375,-0.22809696197509766,-0.059899456799030304,0.037223756313323975
1772721358224351200,6.623351318359375,-0.02638530731201172,-0.036390963941812515,-0.05826222896575928
1772721358242948900,6.641948974609375,0.1515026092529297,-0.03991411253809929,-0.14767128229141235
1772721358261546500,6.66054638671875,0.14840316772460938,-0.022902917116880417,-0.09656965732574463
1772721358280144000,6.679143798828125,-0.043868064880371094,-0.012326285243034363,-0.08443349599838257
1772721358298741500,6.697741455078125,-0.0871591567993164,0.008197493851184845,-0.011721909046173096
1772721358317339100,6.716339111328125,-0.03173828125,-0.026289641857147217,0.004131197929382324
1772721358335936800,6.734936767578125,-0.08741569519042969,-0.013510826975107193,0.03056478500366211
1772721358354534400,6.753534423828125,0.02395153045654297,-0.03109215572476387,-0.0037773847579956055
1772721358373132000,6.772132080078125,0.16387367248535156,-0.08669351041316986,-0.04906362295150757
1772721358391729700,6.790729736328125,0.04276275634765625,0.00597623735666275,-0.0571020245552063
1772721358410327300,6.809327392578125,-0.07880973815917969,0.030261248350143433,-0.010801434516906738
1772721358428924700,6.827924560546875,-0.1531820297241211,-0.04300612211227417,-0.014190316200256348
1772721358447522300,6.846522216796875,0.005558967590332031,-0.05047917366027832,-0.006631791591644287
1772721358466120000,6.865119873046875,0.06385135650634766,-0.0354338213801384,-0.02991253137588501
1772721358484717600,6.883717529296875,0.01004791259765625,-0.05720511078834534,-0.011276006698608398
1772721358503315200,6.902315185546875,-0.10537242889404297,-0.0050390660762786865,0.008905410766601562
1772721358521912800,6.920912841796875,-0.030126571655273438,-0.0026322677731513977,0.01725715398788452
1772721358540510200,6.93951025390625,0.09829235076904297,-0.0001564621925354004,0.002971053123474121
1772721358559107800,6.95810791015625,0.1343069076538086,-0.06496407091617584,-0.013630151748657227
1772721358577705500,6.97670556640625,0.04654693603515625,-0.04203265905380249,-0.009145617485046387
1772721358596303000,6.99530322265625,-0.06912708282470703,-0.014060668647289276,-0.01579076051712036
1772721358614900700,7.013900634765625,-0.0624847412109375,-0.016446344554424286,-0.023174047470092773
1772721358633498000,7.032498046875,-0.06988048553466797,-0.047287385910749435,-0.028899788856506348
1772721358652095700,7.051095703125,0.047878265380859375,-0.09876586496829987,0.029863417148590088
1772721358670693400,7.069693359375,0.08195209503173828,-0.09491045773029327,0.07146042585372925
1772721358689291000,7.088291015625,0.00034999847412109375,-0.03152098134160042,-0.0015894770622253418
1772721358707888600,7.106888671875,-0.019212722778320312,-0.014155840501189232,-0.06143367290496826
1772721358726486300,7.125486328125,-0.0023260116577148438,0.021438144147396088,0.001654207706451416
1772721358745083600,7.144083740234375,0.0140838623046875,0.0033998675644397736,0.03475654125213623
1772721358763681300,7.162681396484375,0.058859825134277344,-0.02413151226937771,0.024788320064544678
1772721358782279000,7.18127880859375,0.05633068084716797,0.017597895115613937,0.07112634181976318
1772721358800876500,7.19987646484375,-0.05420112609863281,-0.007420513778924942,0.11823230981826782
1772721358819474200,7.21847412109375,-0.11189556121826172,-0.012574154883623123,0.07852333784103394
1772721358838071600,7.237071533203125,0.01757049560546875,-0.020939068868756294,-0.009136378765106201
1772721358856669200,7.255669189453125,0.058365821838378906,0.020220521837472916,-0.05132150650024414
1772721358875266800,7.274266845703125,0.019908905029296875,0.0030120350420475006,-0.028380095958709717
1772721358893864400,7.292864501953125,0.018103599548339844,-0.028395116329193115,-0.008696258068084717
1772721358912462000,7.311462158203125,0.10988712310791016,-0.03768828511238098,0.04243743419647217
1772721358931059700,7.330059814453125,0.03017902374267578,-0.05460993945598602,0.06651747226715088
1772721358949657000,7.348656982421875,-0.1081686019897461,-0.03161327540874481,0.02159970998764038
1772721358968254700,7.367254638671875,-0.03918170928955078,-0.020659619942307472,0.03777575492858887
1772721358986852400,7.385852294921875,0.014357566833496094,-0.029552048072218895,0.014381229877471924
1772721359005450000,7.404449951171875,0.08156776428222656,-0.05851035565137863,-0.004880368709564209
1772721359024047600,7.423047607421875,0.051484107971191406,-0.012208592146635056,-0.030003249645233154
1772721359042645200,7.441645263671875,-0.05980873107910156,0.06171608343720436,-0.018050193786621094
1772721359061242600,7.46024267578125,-0.032016754150390625,0.035025499761104584,-0.041176438331604004
1772721359079840300,7.47884033203125,-0.0031766891479492188,-0.02573476731777191,-0.07111167907714844
1772721359098438000,7.49743798828125,0.0041675567626953125,-0.01513553038239479,-0.031652867794036865
1772721359117035500,7.516035400390625,0.025190353393554688,-0.04795919358730316,-0.025304973125457764
1772721359135633200,7.534633056640625,-0.018845558166503906,-0.02812439203262329,0.04324275255203247
1772721359154230800,7.553230712890625,-0.0392303466796875,-0.056917063891887665,0.10616254806518555
1772721359172828200,7.571828125,-0.036660194396972656,-0.011727847158908844,0.04093790054321289
1772721359191425800,7.59042578125,0.11997032165527344,-0.021427243947982788,-0.026790320873260498
1772721359210023400,7.6090234375,0.08201026916503906,0.05800633877515793,-0.034172236919403076
1772721359228621000,7.62762109375,-0.0896615982055664,0.04047585278749466,0.01340550184249878
1772721359247218700,7.64621875,-0.06042003631591797,-0.006014116108417511,-0.015299737453460693
1772721359265816000,7.664816162109375,0.046402931213378906,0.012973815202713013,-0.029570579528808594
1772721359284413700,7.68341357421875,-0.08889961242675781,0.08360003679990768,-0.01915055513381958
1772721359303011300,7.70201123046875,-0.14660358428955078,0.0691225454211235,-0.02135568857192993
1772721359321609000,7.72060888671875,0.11073493957519531,0.030072234570980072,-0.13326340913772583
1772721359340206600,7.73920654296875,0.17928314208984375,0.03532476723194122,-0.061078011989593506
1772721359358804200,7.75780419921875,0.00041103363037109375,-0.0252729132771492,0.056822359561920166
1772721359377401600,7.776401611328125,-0.14348983764648438,-0.016536638140678406,0.06652379035949707
1772721359395999200,7.794999267578125,-0.18642139434814453,-0.032632239162921906,-0.012557566165924072
1772721359414596900,7.813596923828125,-0.020862579345703125,-0.009602777659893036,-0.09911900758743286
1772721359433194500,7.832194580078125,0.19101810455322266,-0.07162170857191086,-0.11051225662231445
1772721359451792000,7.8507919921875,0.07375431060791016,-0.051237285137176514,-0.10315728187561035
1772721359470389500,7.869389404296875,0.08296680450439453,-0.07654792070388794,-0.08841556310653687
1772721359488987100,7.887987060546875,0.07591629028320312,-0.050119269639253616,0.04001975059509277
1772721359507584800,7.906584716796875,0.06258392333984375,-0.10619894415140152,0.1626114845275879
1772721359526182400,7.925182373046875,-0.10891056060791016,-0.05205453932285309,0.14307236671447754
1772721359544779800,7.94377978515625,-0.3275423049926758,-0.04040469229221344,0.023395657539367676
1772721359563377400,7.96237744140625,-0.20430755615234375,-0.07037009298801422,-0.03584182262420654
1772721359581975000,7.98097509765625,0.016737937927246094,-0.00813208520412445,-0.002447843551635742
1772721359600572700,7.99957275390625,0.07743644714355469,-0.005656667053699493,0.03749209642410278
1772721359619170300,8.01817041015625,-0.053177833557128906,0.12119779735803604,0.03364408016204834
1772721359637768000,8.036767822265626,-0.07447242736816406,0.06802597641944885,-0.011165320873260498
1772721359656365300,8.055365234375,0.05809974670410156,0.029575906693935394,-0.01951777935028076
1772721359674963000,8.073962890625,0.039687156677246094,0.01793155074119568,0.030682921409606934
1772721359693560600,8.092560546875,0.07794380187988281,0.004959776997566223,-0.05177336931228638
1772721359712158200,8.111158203125,0.07431983947753906,0.07240436226129532,-0.0382077693939209
1772721359730755800,8.129755859375,0.14024066925048828,0.060028284788131714,0.06827312707901001
1772721359749353200,8.148353271484375,0.10499858856201172,-0.08889304101467133,0.0736507773399353
1772721359767950800,8.166950927734375,-0.014081001281738281,-0.12931902706623077,0.08241593837738037
1772721359786548200,8.18554833984375,-0.07744693756103516,-0.06580132246017456,0.08438068628311157
1772721359805145900,8.204145751953124,-0.07113361358642578,-0.038792386651039124,0.045982956886291504
1772721359823743500,8.222743408203126,-0.03238677978515625,-0.04300259053707123,-0.05401045083999634
1772721359842341000,8.241341064453126,-0.11027908325195312,-0.02750515192747116,-0.14682692289352417
1772721359860938800,8.259938720703126,-0.17659378051757812,-0.005801700055599213,-0.18790239095687866
1772721359879536000,8.2785361328125,-0.0776681900024414,-0.048698410391807556,-0.20087283849716187
1772721359898133800,8.2971337890625,0.02789783477783203,-0.04947371780872345,-0.11953550577163696
1772721359916731400,8.3157314453125,-0.01602458953857422,-0.045449599623680115,-0.13783645629882812
1772721359935328800,8.334328857421875,-0.1035451889038086,0.014508746564388275,-0.07248449325561523
1772721359953926400,8.352926513671875,0.0019731521606445312,-0.033216044306755066,0.02298557758331299
1772721359972524000,8.37152392578125,0.12397289276123047,-0.10356412082910538,0.1294984221458435
1772721359991121700,8.39012158203125,0.006766319274902344,-0.07820485532283783,0.17284643650054932
1772721360009719000,8.408718994140624,-0.27297115325927734,-0.08884848654270172,0.175828218460083
1772721360028316700,8.427316650390624,-0.0955963134765625,-0.10072387754917145,0.07788586616516113
1772721360046914000,8.4459140625,0.22479820251464844,-0.12374529987573624,0.06709051132202148
1772721360065511700,8.46451171875,0.1276988983154297,-0.11826979368925095,0.04403036832809448
1772721360084109300,8.483109375,-0.03407478332519531,-0.045240793377161026,0.1584094762802124
1772721360102706700,8.501706787109375,-0.10803031921386719,-0.01354837417602539,0.1718934178352356
1772721360121304300,8.52030419921875,0.08978462219238281,-0.04486817866563797,0.08206796646118164
1772721360139902000,8.53890185546875,0.32529258728027344,-0.053469955921173096,0.02715766429901123
1772721360158499300,8.557499267578125,0.07806968688964844,0.050185203552246094,0.0609247088432312
1772721360177097000,8.576096923828125,-0.2817974090576172,0.06472102552652359,0.00811314582824707
1772721360195694600,8.594694580078125,-0.08927726745605469,-0.029302770271897316,-0.12077474594116211
1772721360214292000,8.6132919921875,0.1413135528564453,-0.022751256823539734,-0.06812214851379395
1772721360232889600,8.6318896484375,0.16558361053466797,-0.020214315503835678,0.015091776847839355
1772721360251487000,8.650487060546874,0.006505012512207031,-0.009104005992412567,-0.0042539238929748535
1772721360270084600,8.669084716796876,-0.14245128631591797,-0.01874297857284546,-0.053454816341400146
1772721360288682000,8.687681884765626,-0.24107933044433594,0.035653822124004364,-0.04525059461593628
1772721360307279600,8.706279541015626,-0.17808818817138672,0.0158734992146492,-0.08996015787124634
1772721360325877000,8.724876953125,0.017026901245117188,-0.042178139090538025,-0.15601378679275513
1772721360344474600,8.743474609375,0.1899280548095703,-0.030085489153862,-0.09705179929733276
1772721360363072300,8.762072265625,0.14371299743652344,-0.012664273381233215,-0.03206348419189453
1772721360381669600,8.780669677734375,-0.09010791778564453,0.011590301990509033,-0.0015406012535095215
1772721360400267300,8.799267333984375,-0.17617130279541016,0.016688473522663116,-0.019602179527282715
1772721360418864600,8.81786474609375,-0.12086772918701172,0.04898376762866974,-0.0077345967292785645
1772721360437462300,8.836462158203124,0.1368083953857422,-0.04697901010513306,-0.008578300476074219
1772721360456059600,8.8550595703125,0.09881591796875,-0.09052852541208267,0.007671654224395752
1772721360474657300,8.8736572265625,-0.02145862579345703,-0.008574895560741425,-0.04979473352432251
1772721360493254700,8.892254638671876,-0.018370628356933594,0.026436761021614075,-0.04575115442276001
1772721360511852300,8.910852294921876,-0.026781082153320312,0.01566348224878311,-0.03203970193862915
1772721360530449700,8.92944970703125,-0.1458597183227539,-0.004788920283317566,0.031895995140075684
1772721360549047300,8.94804736328125,0.0024127960205078125,-0.17758022248744965,0.10302817821502686
1772721360567644700,8.966644775390625,0.13562965393066406,-0.13252127170562744,-0.02347850799560547
1772721360586242300,8.9852421875,-0.22859764099121094,0.05220859497785568,0.011512219905853271
1772721360604839700,9.003839599609375,-0.21297836303710938,0.03702922165393829,-0.03160452842712402
1772721360623437300,9.022437255859375,0.09405708312988281,-0.009206414222717285,0.00766146183013916
1772721360642034700,9.04103466796875,0.024637222290039062,-0.038428500294685364,0.0020133256912231445
1772721360660632000,9.059632080078124,0.041632652282714844,-0.0785323828458786,0.025625944137573242
1772721360679229700,9.078229736328124,0.12906932830810547,-0.04498245567083359,-0.02394425868988037
1772721360697827000,9.0968271484375,-0.06488323211669922,0.043222252279520035,-0.1279926598072052
1772721360716424700,9.1154248046875,-0.1346445083618164,0.05616207793354988,-0.07582730054855347
1772721360735022000,9.13402197265625,0.11501502990722656,-0.025575948879122734,-0.025056898593902588
1772721360753619500,9.152619384765625,0.13153553009033203,-0.09955882281064987,0.01205533742904663
1772721360772217000,9.171217041015625,-0.04832649230957031,-0.023213636130094528,0.009284377098083496
1772721360790814500,9.189814453125,-0.21695423126220703,-0.0017208456993103027,0.134568989276886
1772721360809411800,9.208411865234375,-0.007954597473144531,-0.020277395844459534,-0.001102745532989502
1772721360828009500,9.227009521484375,0.08850669860839844,-0.01249624416232109,-0.03399538993835449
1772721360846606800,9.24560693359375,0.007195472717285156,0.005119744688272476,-0.05659055709838867
1772721360865204200,9.264204345703124,0.03889656066894531,-0.059200599789619446,-0.050830960273742676
1772721360883801900,9.2828017578125,0.10629558563232422,-0.05147431045770645,-0.0032619833946228027
1772721360902399200,9.301399169921876,-0.0920257568359375,0.023556970059871674,0.019233524799346924
1772721360920996600,9.31999658203125,-0.011293411254882812,0.027053862810134888,0.0057828426361083984
1772721360939594000,9.338593994140625,0.07159709930419922,0.004099585115909576,0.04959571361541748
1772721360958191600,9.357191650390625,0.019277572631835938,-0.06112067401409149,-0.008006155490875244
1772721360976789000,9.3757890625,-0.06546497344970703,-0.049166012555360794,0.0002319812774658203
1772721360995386400,9.394386474609375,-0.19040489196777344,0.00009317323565483093,0.03843533992767334
1772721361013983700,9.412983642578125,-0.10847759246826172,-0.0017437450587749481,0.01294243335723877
1772721361032581400,9.431581298828124,0.06855201721191406,-0.03023400530219078,0.01129370927810669
1772721361051178800,9.4501787109375,0.17087650299072266,-0.06050048768520355,-0.02349013090133667
1772721361069776100,9.468776123046876,0.15784168243408203,-0.04548226296901703,0.038743793964385986
1772721361088373500,9.48737353515625,-0.06999778747558594,-0.005278356373310089,0.051896870136260986
1772721361106971100,9.50597119140625,-0.14466190338134766,-0.03641292080283165,0.04842251539230347
1772721361125568500,9.524568603515625,-0.10079097747802734,-0.01966734603047371,0.0011102557182312012
1772721361144166000,9.543165771484375,0.08336544036865234,-0.13048653304576874,-0.005324959754943848
1772721361162763300,9.56176318359375,0.16660785675048828,-0.1281394362449646,0.004325270652770996
1772721361181360600,9.580360595703125,0.08504581451416016,-0.06339138746261597,0.01266556978225708
1772721361199958000,9.5989580078125,-0.17226219177246094,0.0455283522605896,0.028329551219940186
1772721361218555600,9.6175556640625,-0.19466209411621094,0.021088827401399612,0.021652281284332275
1772721361237153000,9.636153076171874,0.16498947143554688,-0.05606424808502197,0.023447394371032715
1772721361255750400,9.65475048828125,0.08193111419677734,0.0005037505179643631,-0.018841445446014404
1772721361274347800,9.67334765625,-0.13210678100585938,0.020188119262456894,-0.03744691610336304
1772721361292945200,9.691945068359376,-0.1367807388305664,0.014634108170866966,-0.04253196716308594
1772721361311542500,9.71054248046875,0.021266937255859375,0.006142236292362213,-0.07427889108657837
1772721361330140000,9.729139892578125,0.023834228515625,0.0671931579709053,0.063945472240448
1772721361348737300,9.7477373046875,-0.043677330017089844,0.011720504611730576,0.039871156215667725
1772721361367335000,9.7663349609375,-0.0027923583984375,-0.07220519334077835,-0.010607123374938965
1772721361385932300,9.784932373046875,0.188262939453125,-0.05714771896600723,0.024058640003204346
1772721361404529700,9.80352978515625,0.037960052490234375,0.02110547199845314,0.04771566390991211
1772721361423126800,9.822126708984374,-0.17035484313964844,0.05588925629854202,0.007472813129425049
1772721361441724200,9.84072412109375,-0.0159454345703125,0.0017230920493602753,-0.041993021965026855
1772721361460321800,9.85932177734375,0.18584060668945312,-0.040947798639535904,-0.0989614725112915
1772721361478919200,9.877919189453126,0.1071462631225586,-0.02743300423026085,-0.007705211639404297
1772721361497516500,9.8965166015625,-0.22592639923095703,0.03815755620598793,-0.024557292461395264
1772721361516114000,9.915114013671875,-0.11686325073242188,-0.014567665755748749,-0.02692878246307373
1772721361534711000,9.9337109375,0.12775230407714844,-0.049703653901815414,0.013499438762664795
1772721361553308700,9.95230859375,0.0076446533203125,-0.015889964997768402,-0.0018770098686218262
1772721361571906000,9.970906005859375,-0.19389057159423828,-0.028416581451892853,-0.026784300804138184
1772721361590503400,9.98950341796875,0.010044097900390625,-0.09796222299337387,-0.05860036611557007
1772721361609100500,10.0081005859375,0.1538238525390625,-0.03329279273748398,-0.02254784107208252
1772721361627698000,10.026697998046876,-0.052491188049316406,0.017066605389118195,0.0772814154624939
1772721361646295600,10.045295654296876,-0.1917276382446289,0.004640758037567139,0.05235081911087036
1772721361664892700,10.063892578125,0.061211585998535156,-0.09622018039226532,-0.11701464653015137
1772721361683490000,10.082489990234375,0.19909381866455078,-0.012372899800539017,-0.07900428771972656
1772721361702087400,10.10108740234375,-0.14049720764160156,0.02578979730606079,-0.024440526962280273
1772721361720684800,10.119684814453125,-0.21733951568603516,-0.005318775773048401,0.01548469066619873
1772721361739282200,10.1382822265625,0.05605792999267578,-0.06262128055095673,0.05665135383605957
1772721361757879600,10.156879638671874,0.2549591064453125,-0.07768033444881439,0.06833916902542114
1772721361776476700,10.1754765625,-0.08189105987548828,0.0883910059928894,0.03789019584655762
1772721361795074000,10.194073974609376,-0.17620182037353516,0.04947603493928909,-0.024373531341552734
1772721361813671400,10.21267138671875,0.10738468170166016,-0.024668291211128235,-0.06252443790435791
1772721361832268800,10.231268798828125,0.1696624755859375,-0.036707524210214615,-0.08421593904495239
1772721361850866200,10.2498662109375,0.12401580810546875,-0.03580286726355553,-0.030617952346801758
1772721361869463600,10.268463623046875,-0.04659271240234375,-0.06281612068414688,0.06860464811325073
1772721361888061000,10.28706103515625,-0.15763282775878906,-0.044794559478759766,0.04746979475021362
1772721361906658000,10.305657958984375,-0.13971233367919922,0.007245980203151703,0.055983901023864746
1772721361925255400,10.32425537109375,-0.055792808532714844,0.030807755887508392,0.022153139114379883
1772721361943852800,10.342852783203124,0.08592987060546875,-0.05942656844854355,-0.07197365164756775
1772721361962450200,10.3614501953125,0.18479537963867188,-0.10171184688806534,-0.06806343793869019
1772721361981047300,10.38004736328125,-0.0106353759765625,-0.006396017968654633,0.012264609336853027
1772721361999644700,10.398644775390625,-0.0877542495727539,0.018099375069141388,0.028909385204315186
1772721362018242000,10.417241943359375,0.008356094360351562,-0.014152765274047852,-0.0008576512336730957
1772721362036839400,10.43583935546875,-0.0004987716674804688,-0.018079940229654312,-0.014745116233825684
1772721362055436800,10.454436767578125,-0.10978984832763672,-0.007093697786331177,-0.016537129878997803
1772721362074034000,10.473033935546875,-0.011377334594726562,-0.07328767329454422,-0.051410138607025146
1772721362092631300,10.49163134765625,0.1730508804321289,-0.1015286073088646,-0.017262965440750122
1772721362111228700,10.510228759765624,0.03803062438964844,-0.03299745172262192,0.10077029466629028
1772721362129825800,10.52882568359375,-0.21433734893798828,-0.008180610835552216,0.10015815496444702
1772721362148423200,10.547423095703126,-0.011932373046875,-0.025534894317388535,0.02613210678100586
1772721362167020500,10.5660205078125,0.1857147216796875,-0.06509698927402496,-0.00825566053390503
1772721362185617700,10.58461767578125,-0.027151107788085938,-0.013568885624408722,-0.04155483841896057
1772721362204215000,10.603215087890625,-0.12369728088378906,0.02783305197954178,-0.03764393925666809
1772721362222812400,10.6218125,0.021958351135253906,0.009654849767684937,-0.05086606740951538
1772721362241409500,10.640409423828125,0.08880615234375,0.03325624763965607,0.0002942085266113281
1772721362260007000,10.6590068359375,0.06239795684814453,0.004345104098320007,0.009038805961608887
1772721362278604300,10.677604248046874,-0.18668460845947266,-0.045502595603466034,-0.02627292275428772
1772721362297201400,10.696201416015626,-0.009723663330078125,-0.024344827979803085,-0.008320927619934082
1772721362315798500,10.714798583984376,0.07055950164794922,-0.0007366389036178589,0.003480762243270874
1772721362334396000,10.73339599609375,0.04839611053466797,0.07037710398435593,0.05186647176742554
1772721362352993300,10.7519931640625,0.03204822540283203,0.028657279908657074,0.016939014196395874
1772721362371590700,10.770590576171875,0.005542755126953125,0.000257052481174469,0.0757414698600769
1772721362390187800,10.789187744140625,0.0323333740234375,-0.030429892241954803,-0.018961817026138306
1772721362408785000,10.807784912109375,-0.02552318572998047,0.00923970341682434,-0.014632999897003174
1772721362427382300,10.82638232421875,-0.027871131896972656,0.03673628717660904,0.004462301731109619
1772721362445979600,10.844979736328124,0.029245376586914062,-0.0169670507311821,-0.0033794045448303223
1772721362464576800,10.86357666015625,-0.03370189666748047,0.03500024229288101,-0.04343050718307495
1772721362483174100,10.882174072265625,-0.08179187774658203,0.046916715800762177,-0.051451534032821655
1772721362501771300,10.900771240234375,0.08860206604003906,0.02956346422433853,-0.07486480474472046
1772721362520368600,10.91936865234375,0.11198616027832031,-0.0012090280652046204,-0.016293823719024658
1772721362538965800,10.9379658203125,-0.1361217498779297,0.03406456857919693,0.016811490058898926
1772721362557563100,10.956563232421875,-0.07755374908447266,0.00890485942363739,0.0205114483833313
1772721362576160300,10.97516015625,0.08189964294433594,-0.07909951359033585,-0.016497135162353516
1772721362594757600,10.993757568359374,0.0025720596313476562,-0.03980984538793564,0.027039051055908203
1772721362613354800,11.012354736328126,-0.11286258697509766,-0.026525773108005524,0.05868732929229736
1772721362631952000,11.030951904296876,0.037018775939941406,-0.05777832493185997,0.017915397882461548
1772721362650549200,11.04954931640625,0.15391063690185547,-0.04146500676870346,0.004639744758605957
1772721362669146400,11.068146484375,-0.07479572296142578,0.04797569662332535,0.02661287784576416
1772721362687743700,11.08674365234375,-0.10323143005371094,0.012500986456871033,-0.012940526008605957
1772721362706340900,11.1053408203125,0.01781177520751953,-0.006269223988056183,0.046522289514541626
1772721362724938200,11.123938232421875,-0.09191131591796875,-0.01378796249628067,0.10003209114074707
1772721362743535400,11.142535400390624,0.11508369445800781,-0.0950903445482254,-0.13600677251815796
1772721362762132700,11.1611328125,0.16877269744873047,-0.006548285484313965,-0.028043419122695923
1772721362780729900,11.179729736328126,-0.012393951416015625,0.10822732746601105,0.0783042311668396
1772721362799327000,11.198326904296875,-0.3066701889038086,0.03769983351230621,0.05300816893577576
1772721362817924400,11.21692431640625,0.06449222564697266,-0.09831996262073517,-0.0239408016204834
