time,seconds_elapsed,z,y,x
1772721171317996000,0.01999609375,0,0,0
1772721171336593000,0.038593017578125,-0.020008087158203125,0.028920352458953857,-0.25672900676727295
1772721171355189800,0.057189697265625,0.7153301239013672,-0.016937702894210815,-0.16157841682434082
1772721171373786600,0.07578662109375,1.4258298873901367,-0.08010819554328918,0.02528822422027588
1772721171392383200,0.09438330078125,1.6166753768920898,0.05347569286823273,0.33378350734710693
1772721171410980000,0.11297998046875,1.1312570571899414,0.21935343742370605,0.601110577583313
1772721171429577000,0.131576904296875,0.23204898834228516,0.4068138599395752,0.43509191274642944
1772721171448173600,0.150173583984375,-0.491180419921875,0.45532166957855225,0.0500941276550293
1772721171466770400,0.1687705078125,-0.7737350463867188,0.3893784284591675,-0.4920703172683716
1772721171485367000,0.187366943359375,-0.3235187530517578,0.5488802790641785,-0.999663233757019
1772721171503964000,0.2059638671875,0.30973339080810547,0.5318812131881714,-0.8797037601470947
1772721171522560800,0.224560791015625,0.4929227828979492,0.7569349408149719,-0.4727529287338257
1772721171541157400,0.243157470703125,0.37102699279785156,0.31176114082336426,-0.03374528884887695
1772721171559754200,0.261754150390625,0.691136360168457,-0.5881263613700867,-0.37123405933380127
1772721171578351000,0.28035107421875,0.9369106292724609,-1.0326800346374512,-0.2405608892440796
1772721171596947700,0.29894775390625,1.0186576843261719,-1.2874836921691895,0.1073462963104248
1772721171615544600,0.317544677734375,0.44336986541748047,-0.8423455357551575,0.6980476975440979
1772721171634141200,0.33614111328125,-0.34049034118652344,-0.648279070854187,1.2389891147613525
1772721171652738000,0.354738037109375,-1.1448497772216797,-0.6034119129180908,1.3969961404800415
1772721171671334700,0.373334716796875,-1.69879150390625,-0.11309319734573364,1.0996367931365967
1772721171689931500,0.391931640625,-1.4376716613769531,-0.05282050371170044,1.0197858810424805
1772721171708528400,0.4105283203125,-0.6642627716064453,-0.3099943995475769,1.0806487798690796
1772721171727125000,0.429125,-0.11976051330566406,-0.47362297773361206,1.0350264310836792
1772721171745721900,0.447721923828125,0.28496646881103516,-0.5482702255249023,0.49832531809806824
1772721171764318700,0.466318603515625,0.5477075576782227,-1.1748404502868652,-0.5268901586532593
1772721171782915300,0.484915283203125,0.6258926391601562,-1.270995855331421,-1.2065646648406982
1772721171801512200,0.50351220703125,0.3314380645751953,-1.2846925258636475,-1.1292026042938232
1772721171820108800,0.52210888671875,0.021053314208984375,-1.2289338111877441,-1.0653780698776245
1772721171838705700,0.54070556640625,-0.4769144058227539,-1.360501766204834,-0.702251136302948
1772721171857302300,0.55930224609375,-0.7066421508789062,-0.854973554611206,0.4988938570022583
1772721171875899100,0.577899169921875,-0.24704456329345703,-0.5560142993927002,2.3713700771331787
1772721171894496000,0.59649609375,0.4079265594482422,-0.3544483482837677,3.910457134246826
1772721171913092600,0.615092529296875,0.39765167236328125,-0.2994620203971863,3.9624671936035156
1772721171931689500,0.633689453125,0.10545921325683594,0.13465535640716553,2.7804996967315674
1772721171950286000,0.6522861328125,-0.04413890838623047,0.6016323566436768,1.4403603076934814
1772721171968883000,0.670883056640625,-0.3592987060546875,1.005369782447815,0.3381490707397461
1772721171987479600,0.6894794921875,-0.4444923400878906,1.4862831830978394,-0.5205289721488953
1772721172006076400,0.708076416015625,-0.18581485748291016,1.8048259019851685,-0.6426746845245361
1772721172024673000,0.726673095703125,0.47467613220214844,1.5786676406860352,-0.2852461636066437
1772721172043270000,0.745269775390625,0.964076042175293,1.2910778522491455,-0.03182145953178406
1772721172061866800,0.76386669921875,1.006368637084961,1.073779582977295,-0.6393938064575195
1772721172080463400,0.78246337890625,0.603999137878418,1.4499274492263794,0.2636844217777252
1772721172099060000,0.80106005859375,-0.3170318603515625,1.3001036643981934,0.21612195670604706
1772721172117656800,0.81965673828125,0.07113075256347656,1.179103136062622,-0.1884714514017105
1772721172136253700,0.838253662109375,0.4876413345336914,0.9933253526687622,-0.4048479497432709
1772721172154850300,0.856850341796875,0.8653545379638672,0.8585642576217651,-0.22496116161346436
1772721172173447200,0.875447265625,0.5160579681396484,0.834923267364502,0.2877185344696045
1772721172192043800,0.894043701171875,-0.5807571411132812,0.6171162128448486,0.9966525435447693
1772721172210640600,0.912640625,-1.5317554473876953,0.44595110416412354,0.9993858933448792
1772721172229237200,0.9312373046875,-1.9737043380737305,0.1019517183303833,0.6226488351821899
1772721172247834000,0.949834228515625,-1.9198613166809082,-0.08545041084289551,-0.10252590477466583
1772721172266430700,0.9684306640625,-1.3348159790039062,0.05533874034881592,-0.4578283131122589
1772721172285027600,0.987027587890625,-0.3147554397583008,0.4298593997955322,-0.6981503367424011
1772721172303624200,1.005624267578125,0.3966684341430664,0.98476243019104,-0.4992297291755676
1772721172322221000,1.024220947265625,0.8040170669555664,1.2469631433486938,-0.17290709912776947
1772721172340817700,1.042817626953125,0.31728363037109375,1.2474027872085571,-0.29286259412765503
1772721172359414500,1.06141455078125,-0.13239192962646484,1.2607349157333374,-0.5553487539291382
1772721172378011100,1.08001123046875,-0.13506221771240234,1.4698926210403442,-0.719631016254425
1772721172396608000,1.09860791015625,0.01660633087158203,1.5209689140319824,-0.6216596364974976
1772721172415204600,1.11720458984375,-0.08606910705566406,1.4298499822616577,-0.6814507246017456
1772721172433801200,1.13580126953125,-0.1726522445678711,1.2238199710845947,-0.6637978553771973
1772721172452398000,1.154398193359375,-0.6031923294067383,1.1383600234985352,-0.46801310777664185
1772721172470994700,1.17299462890625,-1.1743288040161133,1.1110955476760864,-0.051064252853393555
1772721172489591600,1.191591552734375,-1.4537954330444336,1.023077368736267,0.23724761605262756
1772721172508188400,1.2101884765625,-1.1941471099853516,0.8853617310523987,0.4994446635246277
1772721172526785000,1.228784912109375,-0.5674648284912109,0.8829388618469238,0.784331202507019
1772721172545381600,1.247381591796875,-0.05274391174316406,1.0275616645812988,1.130454659461975
1772721172563978500,1.265978515625,0.24985218048095703,1.0675251483917236,1.5357164144515991
1772721172582575000,1.2845751953125,0.08919715881347656,1.1285312175750732,1.5651935338974
1772721172601172000,1.303171875,-0.24108600616455078,1.0406522750854492,1.1072204113006592
1772721172619768600,1.3217685546875,-0.3229074478149414,1.1581556797027588,0.47844770550727844
1772721172638365200,1.340365234375,0.0806121826171875,1.5266575813293457,0.43275389075279236
1772721172656962000,1.358962158203125,0.6354923248291016,1.9245442152023315,0.8459116220474243
1772721172675558700,1.37755859375,1.1791801452636719,2.095653533935547,1.1380418539047241
1772721172694155500,1.396155517578125,1.6384143829345703,2.146559715270996,0.5713627338409424
1772721172712752000,1.414752197265625,1.8750495910644531,2.139101505279541,0.023318931460380554
1772721172731349000,1.433348876953125,1.448455810546875,2.009387493133545,-0.01074063777923584
1772721172749945600,1.451945556640625,0.7370462417602539,1.872389316558838,0.08064497262239456
1772721172768542200,1.470542236328125,0.49355316162109375,1.4881062507629395,-0.1530131697654724
1772721172787139000,1.48913916015625,0.39963436126708984,0.9153441190719604,-0.912601113319397
1772721172805735700,1.507735595703125,0.08226394653320312,0.3618313670158386,-1.1920335292816162
1772721172824332500,1.52633251953125,0.16683292388916016,-0.282633900642395,-0.9414700865745544
1772721172842929200,1.54492919921875,0.9110908508300781,-0.7992305159568787,-0.6186949014663696
1772721172861526000,1.563526123046875,1.2712345123291016,-1.013068437576294,-0.16343355178833008
1772721172880122600,1.58212255859375,0.5474529266357422,-1.0499956607818604,0.15121135115623474
1772721172898719200,1.60071923828125,-0.7888250350952148,-1.263836145401001,0.22226020693778992
1772721172917316000,1.619316162109375,-1.3297748565673828,-1.4319736957550049,0.18395434319972992
1772721172935912700,1.63791259765625,-1.7531471252441406,-1.3544535636901855,0.22821572422981262
1772721172954509300,1.65650927734375,-1.899148941040039,-0.8735979795455933,0.049519266933202744
1772721172973106200,1.675106201171875,-1.1911211013793945,-0.3008385896682739,0.03860488533973694
1772721172991702800,1.693702880859375,-0.09494972229003906,-0.060906410217285156,0.011688776314258575
1772721173010299600,1.712299560546875,0.7711906433105469,-0.2791810631752014,-0.5118553638458252
1772721173028896300,1.730896240234375,0.9300317764282227,-0.8939300775527954,-1.1976946592330933
1772721173047492900,1.749492919921875,0.41121864318847656,-1.235735535621643,-2.059985399246216
1772721173066089500,1.76808935546875,-0.4853391647338867,-1.3100870847702026,-2.029571056365967
1772721173084686300,1.786686279296875,-1.3819217681884766,-0.6804040670394897,-1.50617253780365
1772721173103283000,1.805282958984375,-1.5162639617919922,-0.09414148330688477,-1.2390202283859253
1772721173121879600,1.823879638671875,-0.7615318298339844,0.09645771980285645,-1.4770222902297974
1772721173140476400,1.842476318359375,-0.36180591583251953,-0.01825857162475586,-2.036818027496338
1772721173159073000,1.861072998046875,-0.12258529663085938,-0.10894501209259033,-2.4296882152557373
1772721173177670000,1.879669921875,0.13736534118652344,0.061701059341430664,-2.3195977210998535
1772721173196266500,1.8982666015625,0.05359458923339844,0.30161356925964355,-1.8878934383392334
1772721173214863000,1.916863037109375,-0.2371692657470703,0.18228280544281006,-2.0370960235595703
1772721173233460000,1.9354599609375,-0.07616615295410156,-0.23358184099197388,-2.3424911499023438
1772721173252056600,1.954056640625,0.17683887481689453,-0.610238790512085,-2.4128451347351074
1772721173270653200,1.972653076171875,0.28520870208740234,-0.6585915088653564,-1.9173039197921753
1772721173289250000,1.99125,0.23476886749267578,-0.5935680866241455,-0.7913950085639954
1772721173307846700,2.0098466796875,-0.09220123291015625,-0.6584977507591248,0.07129627466201782
1772721173326443300,2.028443359375,-0.22768115997314453,-0.8483667373657227,0.2949441075325012
1772721173345040000,2.047039794921875,-0.28161144256591797,-0.8307909965515137,0.28037258982658386
1772721173363636700,2.06563671875,-0.40432071685791016,-0.5016727447509766,0.32873037457466125
1772721173382233300,2.0842333984375,-0.2757577896118164,-0.2812684178352356,0.5273782014846802
1772721173400830000,2.102829833984375,-0.091339111328125,-0.07347393035888672,0.7809293866157532
1772721173419426800,2.1214267578125,-0.1762237548828125,0.12394934892654419,0.9719643592834473
1772721173438023400,2.1400234375,-0.21307849884033203,0.31445038318634033,0.9125144481658936
1772721173456620000,2.1586201171875,-0.2715721130371094,0.5514721870422363,0.9118435978889465
1772721173475217000,2.177216796875,-0.5895509719848633,0.7451827526092529,0.916300356388092
1772721173493813500,2.1958134765625,-0.5923175811767578,0.8543226718902588,0.8023908138275146
1772721173512410000,2.21441015625,-0.08750343322753906,0.9240573048591614,0.39770540595054626
1772721173531006700,2.2330068359375,0.6168956756591797,1.050103783607483,0.04468776285648346
1772721173549603600,2.251603515625,0.5861968994140625,1.1903586387634277,-0.006776005029678345
1772721173568200200,2.2702001953125,0.19440841674804688,1.3217116594314575,-0.10655736923217773
1772721173586796800,2.288796875,0.04110145568847656,1.4109477996826172,-0.2984849810600281
1772721173605393400,2.307393310546875,0.2517557144165039,1.3941397666931152,-0.6126065254211426
1772721173623990300,2.325990234375,0.5461244583129883,1.2834258079528809,-0.7950531840324402
1772721173642587000,2.3445869140625,0.5836915969848633,1.1579347848892212,-0.7120105028152466
1772721173661183500,2.36318359375,0.1766815185546875,1.152024507522583,-0.4049983620643616
1772721173679780400,2.3817802734375,-0.21808147430419922,1.2103805541992188,-0.11228393018245697
1772721173698377000,2.400376953125,-0.6650028228759766,1.1754956245422363,-0.005355462431907654
1772721173716973600,2.4189736328125,-0.7802219390869141,1.0792497396469116,0.028483331203460693
1772721173735570200,2.437570068359375,-0.7009057998657227,0.9754933714866638,0.008388742804527283
1772721173754167000,2.4561669921875,-0.17488765716552734,0.8094775676727295,-0.13920336961746216
1772721173772763600,2.474763671875,0.7401084899902344,0.5301212668418884,-0.5953346490859985
1772721173791360300,2.4933603515625,0.9670953750610352,0.1727691888809204,-0.8105692267417908
1772721173809956900,2.511956787109375,0.5271739959716797,-0.11565542221069336,-0.6063608527183533
1772721173828553700,2.5305537109375,0.021923065185546875,-0.20487159490585327,-0.08708299696445465
1772721173847150300,2.549150390625,-0.09848976135253906,-0.07446867227554321,0.17352138459682465
1772721173865747000,2.567746826171875,0.1837329864501953,-0.16688215732574463,-0.008139483630657196
1772721173884343600,2.586343505859375,0.35904979705810547,-0.10688155889511108,-0.3565523028373718
1772721173902940200,2.604940185546875,0.766932487487793,0.09823876619338989,-0.6834747791290283
1772721173921537000,2.623537109375,1.7801713943481445,0.24096620082855225,-1.0049989223480225
1772721173940133600,2.642133544921875,2.593017578125,0.14731580018997192,-0.8589967489242554
1772721173958730200,2.660730224609375,2.459300994873047,-0.23285973072052002,-0.5628243088722229
1772721173977326800,2.679326904296875,1.1584405899047852,-0.6971430778503418,-0.16630107164382935
1772721173995923700,2.697923828125,-0.2993125915527344,-1.2105817794799805,-0.21724337339401245
1772721174014520300,2.716520263671875,-1.3960895538330078,-1.6210055351257324,-0.6711120009422302
1772721174033117000,2.735116943359375,-1.8276300430297852,-1.9211504459381104,-1.101703405380249
1772721174051713500,2.753713623046875,-1.1832799911499023,-1.9957292079925537,-0.9966009855270386
1772721174070310100,2.77231005859375,-0.4802560806274414,-1.9618114233016968,-0.46438366174697876
1772721174088906800,2.79090673828125,-0.2969179153442383,-1.7854005098342896,0.6378947496414185
1772721174107503600,2.809503662109375,-0.40885448455810547,-1.47758150100708,2.123302936553955
1772721174126100200,2.828100341796875,0.04845619201660156,-1.0840604305267334,3.2545082569122314
1772721174144696800,2.84669677734375,0.9649753570556641,-0.7902225852012634,3.704214572906494
1772721174163293400,2.86529345703125,1.949173927307129,-0.60675048828125,2.7709920406341553
1772721174181890300,2.883890380859375,2.281404495239258,-0.9102757573127747,0.9588915705680847
1772721174200487000,2.90248681640625,1.693253517150879,-1.0112228393554688,-0.9094659686088562
1772721174219083500,2.92108349609375,1.1810855865478516,-0.9095085859298706,-1.6816189289093018
1772721174237680000,2.93968017578125,0.7163009643554688,-0.38755273818969727,-1.1381405591964722
1772721174256276700,2.95827685546875,-0.03793811798095703,0.011313557624816895,-0.17474457621574402
1772721174274873300,2.976873291015625,-0.7485666275024414,0.19729363918304443,0.5038896799087524
1772721174293470000,2.995469970703125,-1.237013816833496,0.2196568250656128,0.9556177854537964
1772721174312066800,3.01406689453125,-1.532766342163086,0.2963225841522217,1.1026012897491455
1772721174330663400,3.032663330078125,-1.5957889556884766,0.4046456813812256,1.006161093711853
1772721174349260000,3.051260009765625,-1.1915292739868164,0.4934653043746948,0.8963510990142822
1772721174367856600,3.069856689453125,-0.5100135803222656,0.5446106195449829,0.6419727206230164
1772721174386453200,3.088453369140625,-0.594212532043457,0.6412642002105713,0.35791531205177307
1772721174405049900,3.1070498046875,-1.3324012756347656,0.8845417499542236,0.4157503843307495
1772721174423646500,3.125646484375,-1.5740880966186523,1.2234188318252563,0.8767775297164917
1772721174442243000,3.1442431640625,-1.1880254745483398,1.5150550603866577,1.508501410484314
1772721174460840000,3.16283984375,-0.8976259231567383,1.7989908456802368,1.7822036743164062
1772721174479436500,3.1814365234375,-0.7179718017578125,1.940248966217041,1.5062071084976196
1772721174498033200,3.200033203125,-0.4410066604614258,1.8793383836746216,0.9920400977134705
1772721174516629800,3.218629638671875,-0.16991329193115234,1.6367851495742798,0.21035289764404297
1772721174535226400,3.237226318359375,-0.048493385314941406,1.4410258531570435,-0.33382338285446167
1772721174553823000,3.255822998046875,0.4671201705932617,1.186913013458252,0.04015582799911499
1772721174572419600,3.274419677734375,1.1863279342651367,0.548995852470398,1.6145482063293457
1772721174591016400,3.293016357421875,1.9166364669799805,-0.8086142539978027,1.8910373449325562
1772721174609613000,3.311613037109375,2.9400205612182617,-1.2640211582183838,-1.0106836557388306
1772721174628209700,3.330209716796875,3.867918014526367,-1.779079794883728,-2.2618515491485596
1772721174646806300,3.34880615234375,3.3945236206054688,-1.7979429960250854,-1.9168457984924316
1772721174665403000,3.36740283203125,1.660299301147461,-2.0036933422088623,-1.593317985534668
1772721174683999500,3.38599951171875,1.1663494110107422,-1.6783087253570557,0.2237488031387329
1772721174702596000,3.40459619140625,0.5967292785644531,-1.1427408456802368,2.0033066272735596
1772721174721192700,3.423192626953125,-0.3389768600463867,-0.8628250360488892,2.033998489379883
1772721174739789300,3.441789306640625,-1.1094989776611328,-0.8426495790481567,1.2234313488006592
1772721174758386000,3.460385986328125,-1.5494670867919922,-0.8650931715965271,0.12572550773620605
1772721174776982800,3.478982666015625,-1.5777959823608398,-1.1432079076766968,-1.0528961420059204
1772721174795579100,3.4975791015625,-1.718216896057129,-1.6941124200820923,-2.252208709716797
1772721174814176000,3.516176025390625,-1.8075008392333984,-1.8813841342926025,-2.9981608390808105
1772721174832772600,3.534772705078125,-1.128946304321289,-1.8310288190841675,-3.1872549057006836
1772721174851369200,3.553369140625,-0.770472526550293,-1.5856754779815674,-3.0134100914001465
1772721174869965800,3.5719658203125,-0.9558191299438477,-1.1371325254440308,-2.3857498168945312
1772721174888562400,3.5905625,-1.4848451614379883,-0.679694652557373,-0.9726657271385193
1772721174907159000,3.609158935546875,-1.8653106689453125,-0.8260889053344727,0.1392228603363037
1772721174925755600,3.627755615234375,-1.3263216018676758,-1.0328524112701416,0.7808248996734619
1772721174944352300,3.646352294921875,-0.31835079193115234,-0.8085953593254089,1.0646591186523438
1772721174962948900,3.664948974609375,0.6937198638916016,-0.3399094343185425,0.6129651069641113
1772721174981545500,3.68354541015625,1.752401351928711,0.08863973617553711,0.21132713556289673
1772721175000142000,3.70214208984375,2.6503067016601562,0.05079245567321777,0.017177581787109375
1772721175018738700,3.72073876953125,2.323932647705078,-0.22333800792694092,-0.5323963761329651
1772721175037335300,3.739335205078125,1.0303955078125,-0.6440556645393372,-0.8924729228019714
1772721175055932200,3.75793212890625,-0.49167537689208984,-1.0863584280014038,-0.9491217136383057
1772721175074528500,3.776528564453125,-1.5607185363769531,-1.3427385091781616,-0.9026891589164734
1772721175093125400,3.79512548828125,-2.157717704772949,-1.2617772817611694,-0.8554089665412903
1772721175111721700,3.8137216796875,-2.009066104888916,-1.1366835832595825,-1.1188814640045166
1772721175130318600,3.832318603515625,-0.8732280731201172,-1.0725003480911255,-1.2691863775253296
1772721175148915200,3.850915283203125,0.677642822265625,-1.2067373991012573,-1.4133684635162354
1772721175167511800,3.86951171875,1.4016046524047852,-1.177891492843628,-1.0986862182617188
1772721175186108400,3.8881083984375,1.39154052734375,-0.9838930368423462,-0.13879922032356262
1772721175204705000,3.906705078125,1.0271291732788086,-0.9428609609603882,0.8230012655258179
1772721175223301600,3.925301513671875,0.4945545196533203,-1.0147418975830078,1.0821685791015625
1772721175241898200,3.943898193359375,0.1352367401123047,-0.9322259426116943,1.0869084596633911
1772721175260494800,3.962494873046875,0.35724735260009766,-0.6352635622024536,0.7527608871459961
1772721175279091500,3.981091552734375,0.6079139709472656,-0.3827217221260071,0.3121058940887451
1772721175297688000,3.99968798828125,0.19952678680419922,-0.2597987651824951,-0.10265445709228516
1772721175316284700,4.01828466796875,-0.2626667022705078,-0.17176777124404907,-0.37710314989089966
1772721175334881300,4.03688134765625,-0.5066652297973633,-0.18847382068634033,-0.934482991695404
1772721175353478000,4.055477783203125,-0.8294382095336914,-0.052413344383239746,-1.3684439659118652
1772721175372074500,4.074074462890625,-0.5301351547241211,0.10055571794509888,-1.0551261901855469
1772721175390671000,4.092671142578125,0.6346578598022461,0.4024937152862549,-0.4936743378639221
1772721175409267700,4.111267822265625,0.6288871765136719,0.45058345794677734,-0.6340644955635071
1772721175427864300,4.1298642578125,0.29410839080810547,0.3916279077529907,-0.8359687924385071
1772721175446461000,4.1484609375,-0.0921030044555664,0.3756447434425354,-0.7037156224250793
1772721175465057500,4.1670576171875,-0.06829452514648438,0.5359541177749634,-0.5048726201057434
1772721175483654100,4.185654052734375,0.2496175765991211,0.629381537437439,-0.44730836153030396
1772721175502250800,4.204250732421875,0.7727088928222656,0.7009962201118469,-0.5261803865432739
1772721175520847400,4.222847412109375,1.2626733779907227,0.7547744512557983,-0.6019291877746582
1772721175539444000,4.24144384765625,0.9906177520751953,0.6497323513031006,-0.5482755899429321
1772721175558040600,4.26004052734375,0.24945735931396484,0.5169888734817505,-0.34085288643836975
1772721175576637200,4.27863720703125,-0.6357889175415039,0.3384956121444702,-0.302577406167984
1772721175595233800,4.29723388671875,-1.159956932067871,0.32552570104599,-0.19179603457450867
1772721175613830400,4.315830322265625,-0.9911479949951172,0.01639348268508911,-0.16322638094425201
1772721175632427000,4.334427001953125,-0.6895036697387695,-0.35665470361709595,-0.5997620224952698
1772721175651023600,4.353023681640625,-0.3802947998046875,-0.44341617822647095,-0.7202061414718628
1772721175669620200,4.3716201171875,-0.24022293090820312,-0.27151113748550415,-0.6101531386375427
1772721175688216800,4.390216796875,0.37334442138671875,-0.27085065841674805,-0.23701032996177673
1772721175706813200,4.408813232421875,0.9597015380859375,-0.5183511972427368,0.18823124468326569
1772721175725410000,4.42741015625,0.7660341262817383,-0.6353631615638733,0.2968272864818573
1772721175744006700,4.446006591796875,0.2710542678833008,-0.5153908133506775,-0.002945929765701294
1772721175762603000,4.46460302734375,-0.16811180114746094,-0.08640080690383911,-0.22651919722557068
1772721175781200000,4.483199951171875,0.29273223876953125,-0.00046390295028686523,-0.35224783420562744
1772721175799796200,4.501796142578125,1.1085634231567383,-0.3071656823158264,-0.7839184403419495
1772721175818392800,4.520392822265625,1.4498825073242188,-0.6781436800956726,-1.492621898651123
1772721175836989400,4.538989501953125,1.1230907440185547,-1.113574504852295,-1.9763190746307373
1772721175855586000,4.5575859375,0.20735645294189453,-1.433343529701233,-2.103144645690918
1772721175874182700,4.5761826171875,-0.8690729141235352,-1.3701510429382324,-1.2295610904693604
1772721175892779300,4.594779296875,-1.4913568496704102,-1.194960117340088,-0.244113028049469
1772721175911376000,4.6133759765625,-1.1924734115600586,-0.8296775221824646,0.6530571579933167
1772721175929972500,4.631972412109375,-0.8294925689697266,-0.2936171889305115,1.9864833354949951
1772721175948569000,4.650569091796875,-0.5048732757568359,-0.26777374744415283,2.9005038738250732
1772721175967165700,4.669165771484375,-0.33494091033935547,-0.43919098377227783,2.5714621543884277
1772721175985762300,4.68776220703125,0.03934288024902344,-0.6051127910614014,1.6483871936798096
1772721176004359000,4.70635888671875,0.536259651184082,-0.8436845541000366,0.5260117053985596
1772721176022955300,4.724955322265625,0.6172313690185547,-0.8983203172683716,-0.5292094945907593
1772721176041552000,4.7435517578125,0.5410680770874023,-0.7591062188148499,-0.8182916045188904
1772721176060148700,4.762148681640625,0.3680601119995117,-0.5323591232299805,-0.5165231227874756
1772721176078745000,4.7807451171875,0.0135650634765625,-0.3776896595954895,-0.1912805438041687
1772721176097341700,4.799341796875,-0.3266410827636719,-0.2377033233642578,0.3748927116394043
1772721176115938300,4.817938232421875,-0.4771089553833008,-0.26296114921569824,0.772324800491333
1772721176134535000,4.836534912109375,-0.18079662322998047,-0.23068463802337646,1.0254279375076294
1772721176153131500,4.855131591796875,-0.047781944274902344,-0.3357570171356201,0.7734544277191162
1772721176171728100,4.87372802734375,-0.013332366943359375,-0.3994690179824829,0.012547194957733154
1772721176190324700,4.89232470703125,-0.2799539566040039,-0.43689703941345215,-0.7288736701011658
1772721176208921300,4.91092138671875,-0.36319828033447266,-0.37791907787323,-0.6693161129951477
1772721176227517700,4.929517578125,-0.1266326904296875,-0.09385168552398682,0.11741024255752563
1772721176246114600,4.948114501953125,-0.03025531768798828,0.017145276069641113,1.0743439197540283
1772721176264711000,4.9667109375,0.33023929595947266,0.08014261722564697,1.7424626350402832
1772721176283307500,4.9853076171875,1.0423965454101562,0.010262370109558105,1.5281054973602295
1772721176301904100,5.003904052734375,1.7238731384277344,-0.08634591102600098,0.7304720878601074
1772721176320500700,5.022500732421875,1.7687358856201172,-0.12096798419952393,-0.37031489610671997
1772721176339097300,5.041097412109375,1.662515640258789,-0.17629289627075195,-0.7919031381607056
1772721176357694000,5.05969384765625,1.411874771118164,-0.3722693920135498,-0.7333912253379822
1772721176376290300,5.078290283203125,0.7947378158569336,-0.3934983015060425,-0.6661888360977173
1772721176394887200,5.09688720703125,-0.2913522720336914,-0.3687577247619629,-0.3179706931114197
1772721176413483500,5.1154833984375,-1.2009124755859375,-0.0931011438369751,0.273963987827301
1772721176432080100,5.134080078125,-1.388589859008789,0.09555172920227051,0.7452706098556519
1772721176450676700,5.1526767578125,-1.040090560913086,0.06498348712921143,0.5878363251686096
1772721176469273300,5.1712734375,-0.5225381851196289,0.0464932918548584,0.10729175806045532
1772721176487870000,5.189869873046875,0.12186908721923828,0.07556331157684326,0.014467060565948486
1772721176506466300,5.20846630859375,0.1311492919921875,0.1624751091003418,0.007964015007019043
1772721176525063000,5.22706298828125,-0.1598072052001953,0.38505232334136963,-0.3255614638328552
1772721176543659500,5.245659423828125,-0.3719978332519531,0.7107975482940674,-0.4102743864059448
1772721176562256100,5.264256103515625,-0.16896533966064453,0.8836323022842407,-0.14109402894973755
1772721176580852700,5.282852783203125,0.08595657348632812,0.7627468109130859,0.25317034125328064
1772721176599449300,5.301449462890625,-0.3940277099609375,0.6172574758529663,0.26186326146125793
1772721176618045700,5.320045654296875,-0.6316776275634766,0.5135632753372192,0.043002963066101074
1772721176636642300,5.338642333984375,-0.4699697494506836,0.7077858448028564,-0.18648317456245422
1772721176655239000,5.357239013671875,-0.21353816986083984,0.8813208341598511,-0.2634317874908447
1772721176673835500,5.37583544921875,-0.14226341247558594,0.9406895041465759,-0.36615124344825745
1772721176692432100,5.39443212890625,-0.4495811462402344,0.9422450661659241,-0.1910475641489029
1772721176711028700,5.41302880859375,-1.1370878219604492,1.2584724426269531,0.3734385371208191
1772721176729625000,5.431625,-1.3876152038574219,1.477046012878418,0.979251503944397
1772721176748221700,5.4502216796875,-1.3253355026245117,1.6136224269866943,1.6571884155273438
1772721176766818300,5.468818359375,-1.1313457489013672,1.6381034851074219,2.2831592559814453
1772721176785415000,5.487414794921875,-0.6432638168334961,1.4569950103759766,2.5582659244537354
1772721176804011500,5.506011474609375,-0.29727649688720703,1.4576654434204102,2.3800532817840576
1772721176822608000,5.52460791015625,-0.22395038604736328,1.3594436645507812,2.067713975906372
1772721176841204500,5.54320458984375,-0.36247825622558594,1.4922114610671997,1.4240082502365112
1772721176859801000,5.561801025390625,0.15923309326171875,1.622018575668335,1.6600385904312134
1772721176878397700,5.580397705078125,1.5373058319091797,1.8010332584381104,1.3606330156326294
1772721176896994300,5.598994384765625,2.6555938720703125,1.5976651906967163,0.6724231243133545
1772721176915590700,5.617590576171875,2.65548038482666,1.301227331161499,0.06608536094427109
1772721176934187300,5.636187255859375,2.147043228149414,1.0121703147888184,-0.5669704675674438
1772721176952784000,5.654783935546875,1.3700294494628906,0.7089160680770874,-1.4517087936401367
1772721176971380500,5.67338037109375,1.0432090759277344,0.15052592754364014,-2.126821756362915
1772721176989976800,5.691976806640625,1.2785282135009766,-0.4566611349582672,-2.1369316577911377
1772721177008573400,5.710573486328125,1.7172412872314453,-0.7466419339179993,-1.5481488704681396
1772721177027170000,5.729170166015625,0.9479436874389648,-0.8913303017616272,-0.6577386260032654
1772721177045766700,5.7477666015625,-0.39745044708251953,-0.8844522833824158,0.19541874527931213
1772721177064363000,5.766363037109375,-1.2163352966308594,-0.9463697075843811,1.232098937034607
1772721177082959600,5.784959716796875,-2.234973907470703,-0.8613643050193787,1.7069498300552368
1772721177101556200,5.80355615234375,-2.5865478515625,-0.7423264384269714,1.8565937280654907
1772721177120152800,5.82215283203125,-1.9984145164489746,-0.6764795184135437,0.9722141623497009
1772721177138749400,5.84074951171875,-0.6241588592529297,-0.751214325428009,-0.08648379147052765
1772721177157345800,5.859345703125,0.19505977630615234,-0.9323059320449829,-0.9653211832046509
1772721177175942400,5.8779423828125,0.017165184020996094,-1.1406768560409546,-1.4244329929351807
1772721177203837200,5.905837158203125,-0.6245050430297852,-1.2712229490280151,-1.9835466146469116
1772721177222433800,5.924433837890625,-1.056828498840332,-1.1525020599365234,-2.2027461528778076
1772721177241030400,5.943030517578125,-1.1570463180541992,-0.952423095703125,-2.0656745433807373
1772721177259626800,5.961626708984375,-0.799433708190918,-0.5896940231323242,-2.009321689605713
1772721177278223400,5.980223388671875,-0.13852310180664062,-0.725503146648407,-2.130793809890747
1772721177296820000,5.998820068359375,0.7166538238525391,-0.6080296039581299,-2.2112226486206055
1772721177315416300,6.017416259765625,1.3125696182250977,-0.4187523126602173,-1.7726502418518066
1772721177334013000,6.036012939453125,0.9326467514038086,-0.34247463941574097,-1.1041899919509888
1772721177352609500,6.054609619140625,0.2818117141723633,-0.2799884080886841,-0.600514829158783
1772721177371206000,6.073205810546875,-0.5147628784179688,-0.1685745120048523,-0.46368294954299927
1772721177389802500,6.091802490234375,-0.9177131652832031,-0.23368585109710693,-0.6750131249427795
1772721177408399000,6.110399169921875,-0.7409763336181641,-0.2627267837524414,-1.1970393657684326
1772721177426995700,6.12899560546875,-0.3141946792602539,-0.2585473656654358,-1.3771626949310303
1772721177445592000,6.147592041015625,0.35297107696533203,-0.29551267623901367,-1.0430444478988647
1772721177464188700,6.166188720703125,0.494476318359375,-0.3458857536315918,-0.7662987112998962
1772721177482785300,6.184785400390625,0.19809341430664062,-0.37897616624832153,-0.43048685789108276
1772721177501381600,6.203381591796875,-0.0663614273071289,-0.333701491355896,-0.12345960736274719
1772721177519978200,6.221978271484375,0.010596275329589844,-0.14194846153259277,0.6091169118881226
1772721177538574800,6.240574951171875,-0.28173160552978516,0.1165546178817749,1.0340232849121094
1772721177557171200,6.259171142578125,-0.7096595764160156,0.1526290774345398,0.9469170570373535
1772721177575767800,6.277767822265625,-0.7475194931030273,0.17917394638061523,0.5522507429122925
1772721177594364400,6.296364501953125,-0.2898998260498047,0.08718621730804443,0.06861501932144165
1772721177612961000,6.3149609375,0.4497804641723633,0.1632102131843567,-0.20870262384414673
1772721177631557400,6.333557373046875,0.7321968078613281,0.41804754734039307,-0.008378922939300537
1772721177650154000,6.352154052734375,0.6061429977416992,0.6093212962150574,0.28688666224479675
1772721177668750600,6.37075048828125,-0.02191162109375,0.7519219517707825,0.3249351382255554
1772721177687347000,6.389346923828125,-0.48105716705322266,0.9227293729782104,0.3806418776512146
1772721177705943600,6.407943603515625,-0.4800233840942383,0.8961997032165527,0.3349945545196533
1772721177724540000,6.426539794921875,-0.0851755142211914,0.7540134787559509,0.09834867715835571
1772721177743136500,6.445136474609375,0.03644752502441406,0.6654617190361023,0.002430558204650879
1772721177761732900,6.46373291015625,-0.008398056030273438,0.8123403787612915,-0.06281828880310059
1772721177780329500,6.48232958984375,0.0008192062377929688,0.9141273498535156,0.052359580993652344
1772721177798926000,6.500926025390625,0.3357429504394531,0.9673406481742859,0.10702812671661377
1772721177817522700,6.519522705078125,0.18428802490234375,0.9359656572341919,-0.04169571399688721
1772721177836119000,6.538119140625,0.01059722900390625,0.8941134214401245,-0.24936628341674805
1772721177854715600,6.556715576171875,-0.031012535095214844,0.9678570032119751,-0.40793848037719727
1772721177873312300,6.575312255859375,0.2932910919189453,1.0509337186813354,-0.6391089558601379
1772721177891908600,6.59390869140625,0.6134119033813477,0.9912729263305664,-0.8584364056587219
1772721177910505200,6.612505126953125,0.14004230499267578,1.007662296295166,-1.074480414390564
1772721177929101600,6.6311015625,-0.16705322265625,0.6432293653488159,-1.422785997390747
1772721177947698200,6.6496982421875,0.20499610900878906,0.03284734487533569,-1.790135383605957
1772721177966294800,6.668294677734375,0.33658885955810547,-0.43166792392730713,-1.8550214767456055
1772721177984891100,6.68689111328125,0.011395454406738281,-0.7471274733543396,-1.652097225189209
1772721178003487700,6.70548779296875,-0.5582733154296875,-0.8544172048568726,-0.9208531975746155
1772721178022084000,6.724083984375,-0.6943416595458984,-0.6986036896705627,-0.0028148889541625977
1772721178040680700,6.7426806640625,-0.5012092590332031,-0.22535836696624756,0.3887672424316406
1772721178059277000,6.761277099609375,0.2629098892211914,0.229681134223938,0.5548465251922607
1772721178077873700,6.779873779296875,1.3425521850585938,0.2674103379249573,0.5623824000358582
1772721178096470300,6.79847021484375,2.094182014465332,0.17056763172149658,0.5633105635643005
1772721178115066600,6.817066650390625,1.9051733016967773,-0.2334815263748169,-0.029636383056640625
1772721178133663200,6.835663330078125,0.9486875534057617,-0.7888457775115967,-0.39947354793548584
1772721178152259600,6.854259521484375,-0.2214641571044922,-1.2127618789672852,-0.7594240307807922
1772721178170856200,6.872856201171875,-0.673304557800293,-1.5680124759674072,-0.7684767246246338
1772721178189452800,6.891452880859375,-0.527165412902832,-1.5458626747131348,-0.2501484751701355
1772721178208049200,6.910049072265625,-0.07736778259277344,-1.1637450456619263,0.7572298049926758
1772721178226645800,6.928645751953125,0.23592281341552734,-0.7491651177406311,1.712825059890747
1772721178245242000,6.9472421875,0.45094871520996094,-0.35568904876708984,2.9942166805267334
1772721178263838700,6.965838623046875,0.4382791519165039,0.11140203475952148,3.982375383377075
1772721178282435000,6.98443505859375,0.5239315032958984,0.10223221778869629,3.044379234313965
1772721178301031700,7.00303173828125,0.8456001281738281,-0.17812538146972656,1.0088948011398315
1772721178319628300,7.021628173828125,1.2074432373046875,-0.3791782855987549,-0.24962849915027618
1772721178338224600,7.040224609375,0.6806173324584961,-0.2696850299835205,-0.5731849670410156
1772721178356821000,7.058821044921875,0.011407852172851562,-0.2789955139160156,-0.6163700819015503
1772721178375417600,7.07741748046875,-0.20282840728759766,-0.4101252555847168,-0.7052761912345886
1772721178394014200,7.09601416015625,-0.39212608337402344,-0.630233645439148,-0.8849472403526306
1772721178412610600,7.114610595703125,-0.3571958541870117,-0.7625201940536499,-1.0849968194961548
1772721178431207200,7.133207275390625,-0.16444015502929688,-0.649971604347229,-1.1832996606826782
1772721178449803500,7.151803466796875,-0.0024328231811523438,-0.576423168182373,-0.7613699436187744
1772721178468400000,7.170400146484375,-0.0902261734008789,-0.4564955234527588,-0.268145352602005
1772721178486996500,7.18899658203125,-0.24906349182128906,-0.30309128761291504,0.2629028558731079
1772721178505593000,7.207593017578125,-0.45554351806640625,-0.036579012870788574,0.89452064037323
1772721178524189400,7.226189453125,-0.42919254302978516,0.2735997438430786,1.3821845054626465
1772721178542786000,7.2447861328125,-0.36878299713134766,0.3810596466064453,1.1617357730865479
1772721178561382400,7.26338232421875,-0.6600532531738281,0.3608287572860718,0.6312644481658936
1772721178579979000,7.28197900390625,-0.8943080902099609,0.4581611156463623,0.31966492533683777
1772721178598575600,7.30057568359375,-0.9758358001708984,0.6299228668212891,0.3602184057235718
1772721178617172000,7.319171875,-1.173788070678711,0.7776538133621216,0.42902302742004395
1772721178635768300,7.337768310546875,-1.0747251510620117,0.7981885671615601,0.7311767339706421
1772721178654365000,7.356364990234375,-0.7581243515014648,0.7624770402908325,0.9977190494537354
1772721178672961300,7.374961181640625,-0.953913688659668,0.6552752256393433,0.919903039932251
1772721178691558000,7.393557861328125,-1.1188297271728516,0.5729193687438965,0.692847728729248
1772721178710154200,7.412154296875,-0.9804000854492188,0.3188927173614502,0.5179192423820496
1772721178728750800,7.430750732421875,-0.8199081420898438,0.1892024278640747,0.3915295898914337
1772721178747347200,7.44934716796875,-0.4329805374145508,0.19758498668670654,0.5326576232910156
1772721178765943800,7.46794384765625,0.20008277893066406,0.195625901222229,1.0642181634902954
1772721178784540200,7.4865400390625,0.6504125595092773,0.3167135715484619,1.3015081882476807
1772721178803136800,7.50513671875,0.5676307678222656,0.4597971439361572,1.5858821868896484
1772721178821733000,7.523733154296875,0.5144691467285156,0.7013911008834839,1.63798987865448
1772721178840329700,7.542329833984375,0.7395896911621094,0.857406735420227,1.822458028793335
1772721178858926000,7.560926025390625,0.3968696594238281,1.0307899713516235,1.5711727142333984
1772721178877522700,7.579522705078125,0.7213411331176758,1.1174054145812988,1.606238603591919
1772721178896119000,7.598119140625,1.4191112518310547,1.0058552026748657,1.7036272287368774
1772721178914715400,7.61671533203125,1.4583263397216797,0.7418777942657471,0.8507162928581238
1772721178933312000,7.63531201171875,1.1513423919677734,0.4413098096847534,-0.023747622966766357
1772721178951908400,7.653908447265625,0.7575817108154297,0.29443466663360596,-0.25546103715896606
1772721178970505000,7.6725048828125,0.7075920104980469,0.04026949405670166,-0.4524533152580261
1772721178989101300,7.691101318359375,0.7544498443603516,-0.29737699031829834,-0.7101823091506958
1772721179007697700,7.70969775390625,0.2150430679321289,-0.5968145132064819,-1.0189166069030762
1772721179026294300,7.728294189453125,-0.03679943084716797,-0.8759315609931946,-0.9707264304161072
1772721179044891000,7.746890869140625,0.14132404327392578,-1.1623820066452026,-0.5598968267440796
1772721179063487200,7.7654873046875,-0.32059478759765625,-1.315575361251831,-0.11289370059967041
1772721179082083800,7.784083740234375,-1.1376953125,-1.4276881217956543,0.023277342319488525
1772721179100680200,7.80268017578125,-1.3700227737426758,-1.3764407634735107,0.5368207693099976
1772721179119276500,7.821276611328125,-0.7103385925292969,-1.3714046478271484,0.6009479761123657
1772721179137873200,7.839873046875,-0.5555696487426758,-1.3148541450500488,0.07657778263092041
1772721179156469500,7.858469482421875,-0.6506290435791016,-1.238286018371582,-0.17936444282531738
1772721179175066000,7.877066162109375,-1.005183219909668,-1.2274047136306763,-0.3946528434753418
1772721179193662500,7.895662353515625,-1.380782127380371,-1.5583422183990479,-0.7499310970306396
1772721179212258800,7.9142587890625,-1.1590099334716797,-1.7457149028778076,-1.0182945728302002
1772721179230855200,7.932855224609375,-0.6761760711669922,-1.691253423690796,-1.2055529356002808
1772721179249451800,7.95145166015625,0.1607961654663086,-1.2023375034332275,-1.1265723705291748
1772721179268048100,7.970048095703125,0.7470483779907227,-0.8454346656799316,-1.021667242050171
1772721179286644700,7.988644775390625,0.9920463562011719,-0.7388191223144531,-0.7501113414764404
1772721179305241000,8.007240966796875,0.9687824249267578,-0.9885246753692627,-0.8116614818572998
1772721179323837700,8.025837646484375,0.6141643524169922,-1.3016029596328735,-1.154475212097168
1772721179342434000,8.04443408203125,0.4473762512207031,-1.5571115016937256,-1.4656856060028076
1772721179361030400,8.063030517578126,0.6535367965698242,-1.4698374271392822,-1.5004147291183472
1772721179379627000,8.081626953125,0.8597249984741211,-1.2409558296203613,-1.006093144416809
1772721179398223400,8.100223388671875,0.935638427734375,-0.8427472710609436,-0.2135225236415863
1772721179416819700,8.11881982421875,0.5391979217529297,-0.6810722947120667,0.2233777642250061
1772721179435416300,8.137416259765626,-0.15958404541015625,-0.5564282536506653,0.20103216171264648
1772721179454012700,8.1560126953125,-0.6709222793579102,-0.48985302448272705,-0.0007653087377548218
1772721179472609000,8.174609130859375,-0.6166095733642578,-0.29472583532333374,-0.38409870862960815
1772721179491205600,8.19320556640625,-0.03998279571533203,-0.17218518257141113,-0.8497042655944824
1772721179509802000,8.211802001953124,0.46761322021484375,0.009022533893585205,-0.8992124795913696
1772721179528398600,8.230398681640626,0.38732337951660156,0.2722504734992981,-0.6610028743743896
1772721179546995000,8.248994873046875,0.08135700225830078,0.4349105954170227,-0.4051443338394165
1772721179565591300,8.26759130859375,-0.44472408294677734,0.512362539768219,-0.09513239562511444
1772721179584188000,8.28618798828125,-0.6507177352905273,0.6193158626556396,-0.10940667986869812
1772721179602784300,8.3047841796875,-0.23850631713867188,0.4486237168312073,-0.039105117321014404
1772721179621380600,8.323380615234376,0.5050830841064453,0.22975951433181763,-0.268390417098999
1772721179639977000,8.34197705078125,0.8669719696044922,-0.009122490882873535,-0.34366437792778015
1772721179658573600,8.360573486328125,0.8128538131713867,-0.09669244289398193,-0.26980942487716675
1772721179677170000,8.379169921875,0.36826133728027344,-0.03464317321777344,-0.23193608224391937
1772721179695766500,8.3977666015625,-0.27903270721435547,0.1315774917602539,-0.4460108280181885
1772721179714363000,8.41636279296875,-0.6034221649169922,0.1941542625427246,-0.8154158592224121
1772721179732959200,8.434959228515625,-0.3793163299560547,0.2105455994606018,-1.177968144416809
1772721179751555600,8.4535556640625,0.01803302764892578,0.16199958324432373,-1.4783308506011963
1772721179770152200,8.472152099609374,0.15452194213867188,0.5157124400138855,-1.2806951999664307
1772721179788748500,8.49074853515625,0.3355531692504883,0.7297638058662415,-0.991486132144928
1772721179807345000,8.509344970703125,0.5806856155395508,0.7083920240402222,-0.8764506578445435
1772721179825941500,8.52794140625,0.6969432830810547,0.2117091417312622,-0.9036040306091309
1772721179844537900,8.546537841796875,0.4559907913208008,-0.6624952554702759,-1.502569556236267
1772721179863134200,8.56513427734375,0.2644624710083008,-0.8402948379516602,-1.21873140335083
1772721179881730800,8.583730712890626,0.1278705596923828,-0.609920859336853,-0.18720725178718567
1772721179900327200,8.6023271484375,-0.32402801513671875,-0.34946340322494507,0.5192069411277771
1772721179918923500,8.620923583984375,-0.901092529296875,-0.24567413330078125,0.6898438930511475
1772721179937519900,8.639519775390625,-1.0573043823242188,-0.2951825261116028,0.1823628842830658
1772721179956116500,8.658116455078124,-0.5280380249023438,-0.4518471360206604,-0.35840973258018494
1772721179974712800,8.676712890625,0.004019737243652344,-0.5431153774261475,-0.8489373326301575
1772721179993309200,8.69530908203125,-0.07902717590332031,-0.45632973313331604,-1.0353107452392578
1772721180011905800,8.71390576171875,-0.5099849700927734,-0.20269954204559326,-1.011390209197998
1772721180030502100,8.732502197265624,-0.9465456008911133,0.03900802135467529,-0.7692158222198486
1772721180049098500,8.751098388671876,-1.0234575271606445,0.23856836557388306,-0.47827211022377014
1772721180067694800,8.76969482421875,-0.5630264282226562,0.15129625797271729,-0.308072954416275
1772721180086291200,8.788291259765625,0.4443788528442383,-0.08752405643463135,-0.27803611755371094
1772721180104887800,8.8068876953125,1.1800765991210938,-0.27903544902801514,-0.24219055473804474
1772721180123484200,8.825484130859374,0.8900547027587891,-0.2538936734199524,0.07356227934360504
1772721180142080500,8.84408056640625,0.5081768035888672,-0.140433669090271,0.4330863952636719
1772721180160677000,8.862677001953125,0.7316341400146484,-0.2947203814983368,0.43593722581863403
1772721180179273500,8.8812734375,0.6892490386962891,-0.5946909189224243,0.0832066535949707
1772721180197869800,8.899869873046875,0.8076648712158203,-0.7588896155357361,0.018062680959701538
1772721180216466200,8.918466064453124,0.4578876495361328,-0.6184388995170593,-0.05223393440246582
1772721180235062800,8.937062744140626,0.06743335723876953,-0.3528689742088318,-0.09701268374919891
1772721180253659100,8.9556591796875,-0.2532157897949219,0.13797986507415771,0.2976718544960022
1772721180272255500,8.97425537109375,-0.10954761505126953,0.559996485710144,0.5395615100860596
1772721180290851800,8.992851806640624,-0.01854419708251953,0.6724677681922913,0.9119053483009338
1772721180309448200,9.0114482421875,-0.26881980895996094,0.6948575377464294,1.0219144821166992
1772721180328044800,9.030044921875,-0.25461292266845703,0.6852825880050659,0.8821449279785156
1772721180346641200,9.04864111328125,-0.20851421356201172,0.7118242979049683,0.6199700236320496
1772721180365237500,9.067237548828125,-0.25572872161865234,0.6933075189590454,0.710044264793396
1772721180383833900,9.085833740234374,0.030882835388183594,0.5171138048171997,0.82952481508255
1772721180402430500,9.104430419921876,0.7723350524902344,0.22347688674926758,0.5510968565940857
1772721180421026800,9.12302685546875,1.0246944427490234,0.08957779407501221,0.3707317113876343
1772721180439623200,9.141623046875,0.6223173141479492,0.2234969139099121,0.18932056427001953
1772721180458219800,9.1602197265625,0.15366744995117188,0.34562480449676514,0.26063644886016846
1772721180476816100,9.178816162109374,0.033720970153808594,0.20748472213745117,0.22374004125595093
1772721180495412500,9.19741259765625,0.17308807373046875,-0.16705751419067383,-0.16415011882781982
1772721180514008800,9.2160087890625,-0.05377197265625,-0.3106878995895386,-0.7080227136611938
1772721180532605200,9.234605224609375,-0.2274017333984375,-0.23225665092468262,-0.6253967881202698
1772721180551201500,9.253201416015624,0.11513519287109375,-0.05088448524475098,-0.11154913902282715
1772721180569798000,9.2717978515625,0.007094383239746094,0.042719125747680664,0.19196051359176636
1772721180588394500,9.29039453125,-0.3635225296020508,0.060575008392333984,0.555742084980011
1772721180606990800,9.308990966796875,-0.9451828002929688,0.17281711101531982,0.8062381744384766
1772721180625587200,9.327587158203125,-1.132833480834961,0.141351580619812,0.989732563495636
1772721180644183600,9.34618359375,-0.7837934494018555,0.15242516994476318,0.7131297588348389
1772721180662780200,9.3647802734375,-0.22668838500976562,0.24133598804473877,0.41842639446258545
1772721180681376500,9.38337646484375,0.14314556121826172,0.36314094066619873,0.3020572066307068
1772721180699972900,9.401972900390625,-0.1013345718383789,0.5138109922409058,0.10882651805877686
1772721180718569200,9.4205693359375,-0.4654960632324219,0.6794499158859253,0.10010647773742676
1772721180737165600,9.43916552734375,-0.5975742340087891,0.7411291599273682,0.3947736620903015
1772721180755762200,9.45776220703125,-0.5431690216064453,0.6696243286132812,0.47326743602752686
1772721180774358500,9.476358642578125,-0.2770090103149414,0.5282158851623535,0.43957215547561646
1772721180792955000,9.494954833984375,-0.04185676574707031,0.4264718294143677,0.38249480724334717
1772721180811551200,9.51355126953125,-0.2338123321533203,0.49799418449401855,0.4715929627418518
1772721180830147600,9.532147705078126,-0.6704673767089844,0.6512963771820068,0.5485060214996338
1772721180848744000,9.550743896484375,-0.8772106170654297,0.763097882270813,0.6106346845626831
1772721180867340300,9.56934033203125,-0.6774663925170898,0.8805488348007202,0.5834566950798035
1772721180885937000,9.58793701171875,-0.330535888671875,1.057930588722229,0.5948954820632935
1772721180904533200,9.606533203125,-0.1466693878173828,1.0163754224777222,0.5698221921920776
1772721180923129600,9.625129638671876,-0.14556884765625,0.8442739844322205,0.4607219696044922
1772721180941726000,9.643725830078125,-0.5649490356445312,0.8239903450012207,0.4591996669769287
1772721180960322300,9.662322265625,-0.9938259124755859,0.985727071762085,0.715002715587616
1772721180978918700,9.680918701171874,-0.6194591522216797,1.0766949653625488,0.8904024958610535
1772721180997515300,9.699515380859374,0.19447708129882812,0.9465238451957703,1.077003002166748
1772721181016111600,9.718111572265625,-0.21160221099853516,0.8491936922073364,0.4284793734550476
1772721181034708000,9.7367080078125,-1.2716646194458008,0.8008527755737305,-0.3509952425956726
1772721181053304300,9.75530419921875,-0.5557575225830078,0.15379208326339722,0.511935830116272
1772721181071900700,9.773900634765624,0.8567781448364258,0.5652061104774475,0.8368134498596191
1772721181090497000,9.7924970703125,1.8411340713500977,0.8662146329879761,1.0294842720031738
1772721181109093400,9.81109326171875,2.337592124938965,1.3468289375305176,0.73289555311203
1772721181127690000,9.82968994140625,2.15688419342041,1.0820817947387695,0.7892551422119141
1772721181146286300,9.848286376953125,1.227219581604004,0.36797791719436646,0.24525174498558044
1772721181164882700,9.866882568359374,0.43561363220214844,-0.07416927814483643,-0.375787615776062
1772721181183479000,9.88547900390625,0.3491487503051758,-0.05893301963806152,-0.8860148787498474
1772721181202075400,9.904075439453125,0.44257640838623047,0.049979954957962036,-0.7478834986686707
1772721181220671700,9.922671630859375,0.4985513687133789,0.22514326870441437,-0.49784842133522034
1772721181239268000,9.94126806640625,0.3354024887084961,0.1345711201429367,0.6918504238128662
1772721181257864400,9.959864501953126,1.0746889114379883,0.22600246965885162,1.7978746891021729
1772721181276460800,9.978460693359375,1.547745704650879,-0.05300237238407135,1.1199140548706055
1772721181295057200,9.99705712890625,1.1992168426513672,-0.3511117696762085,0.31668615341186523
1772721181313653500,10.015653564453125,0.5551910400390625,-0.7702068090438843,-0.08917155861854553
1772721181332249900,10.034249755859374,-0.36835575103759766,-1.0890415906906128,-0.5748891234397888
1772721181350846200,10.05284619140625,-1.4954862594604492,-1.2153868675231934,-0.7941937446594238
1772721181369442800,10.07144287109375,-1.9608325958251953,-1.2581675052642822,-1.515252947807312
1772721181388039200,10.0900390625,-2.449984550476074,-1.5925099849700928,-1.2461671829223633
1772721181406635500,10.108635498046874,-1.371781349182129,-1.0634431838989258,-1.02972412109375
1772721181425232000,10.12723193359375,-0.16864776611328125,-0.6531957387924194,-0.6089249849319458
1772721181443828200,10.145828125,-0.06465911865234375,-0.6925767064094543,0.07081425189971924
1772721181462424600,10.164424560546875,0.19290637969970703,-0.7874084115028381,0.33093684911727905
1772721181481021000,10.18302099609375,0.5784158706665039,-1.0314209461212158,0.15683913230895996
1772721181499617300,10.2016171875,1.0863533020019531,-1.1254807710647583,-0.659552812576294
1772721181518213600,10.220213623046876,1.6689367294311523,-1.480885624885559,-1.1409317255020142
1772721181536810000,10.23881005859375,1.5395421981811523,-1.2231323719024658,-1.0160181522369385
1772721181555406300,10.25740625,0.6729555130004883,-0.7973009347915649,-0.8591678738594055
1772721181574002700,10.276002685546874,-0.30220603942871094,-0.5306519269943237,-0.7309935688972473
1772721181592599000,10.29459912109375,-0.6930904388427734,-0.4823678135871887,-0.8869383931159973
1772721181611195400,10.3131953125,-0.4497537612915039,-0.8036711812019348,-1.4491629600524902
1772721181629792000,10.3317919921875,-0.5606803894042969,-1.0196576118469238,-2.255204677581787
1772721181648388400,10.350388427734375,-0.7345199584960938,-0.9498307704925537,-2.6194188594818115
1772721181666984700,10.368984619140624,-0.7616777420043945,-0.9766146540641785,-2.4169445037841797
1772721181685581000,10.3875810546875,-0.7464075088500977,-0.8239402770996094,-2.24276065826416
1772721181704177400,10.406177490234375,-0.8576107025146484,-0.7036323547363281,-1.9174518585205078
1772721181722773800,10.424773681640625,-0.7124223709106445,-0.3848954439163208,-1.5697931051254272
1772721181741370000,10.4433701171875,-0.43436622619628906,-0.2371518611907959,-0.8725626468658447
1772721181759966500,10.461966552734374,-0.028061866760253906,-0.16370737552642822,-0.3788977861404419
1772721181778562800,10.480562744140625,0.555628776550293,-0.32639503479003906,-0.25602787733078003
1772721181797159200,10.4991591796875,1.2033681869506836,-0.2870789170265198,-0.10929685831069946
1772721181815755500,10.517755615234375,1.0581512451171875,0.1834648847579956,0.34526610374450684
1772721181834351900,10.536351806640624,0.1984262466430664,0.21193063259124756,0.9577847123146057
1772721181852948200,10.5549482421875,-0.28753662109375,0.20262253284454346,0.8700056672096252
1772721181871544600,10.573544677734375,-0.6497917175292969,0.29662591218948364,0.9715638756752014
1772721181890141000,10.592140869140625,-0.6167926788330078,0.3289656639099121,0.7341098785400391
1772721181908737300,10.6107373046875,-0.7262115478515625,0.032679855823516846,0.2522183656692505
1772721181927333600,10.629333740234374,-0.8005990982055664,0.02623090147972107,-0.12972840666770935
1772721181945930000,10.647929931640626,-0.42794132232666016,-0.02451181411743164,-0.14220774173736572
1772721181964526300,10.6665263671875,0.06973075866699219,0.00935789942741394,-0.29286617040634155
1772721181983122700,10.685122802734375,0.5132913589477539,-0.03684891015291214,-0.37572455406188965
1772721182001719000,10.703718994140624,0.6589956283569336,0.2707943916320801,-0.3158048689365387
1772721182020315400,10.7223154296875,0.7714452743530273,0.45949840545654297,0.2681683599948883
1772721182038911700,10.740911865234375,0.7887458801269531,0.44513005018234253,0.46968919038772583
1772721182057508000,10.759508056640625,0.665034294128418,0.7061392664909363,0.28869056701660156
1772721182076104400,10.7781044921875,0.6746530532836914,0.694360613822937,0.24782098829746246
1772721182094700800,10.79670068359375,0.5485734939575195,0.5418554544448853,0.2817535102367401
1772721182113297200,10.815297119140626,-0.09273052215576172,0.5933307409286499,-0.0047659361734986305
1772721182131893500,10.8338935546875,-0.581639289855957,0.8272848129272461,-0.46889936923980713
1772721182150489900,10.85248974609375,-0.38320446014404297,0.8039290904998779,-0.7598979473114014
1772721182169086200,10.871086181640624,-0.13480854034423828,0.9038516879081726,-0.8409781455993652
1772721182187682600,10.8896826171875,0.06227302551269531,0.9160647988319397,-0.6430410146713257
1772721182206279000,10.90827880859375,0.1551065444946289,0.6479377150535583,-0.6928905844688416
1772721182224875300,10.926875244140625,0.23276042938232422,0.5426161885261536,-0.5902589559555054
1772721182243471600,10.9454716796875,0.39925098419189453,0.4377654194831848,-0.3462790846824646
1772721182262068000,10.96406787109375,0.1974964141845703,0.484281450510025,-0.13446182012557983
1772721182280664000,10.9826640625,-0.06617450714111328,0.4573814272880554,0.07973498106002808
1772721182299260400,11.001260498046875,0.15975284576416016,0.17244549095630646,0.07179504632949829
1772721182317856800,11.019856689453125,0.23540019989013672,-0.11140695214271545,-0.0993574857711792
1772721182336453000,11.038453125,0.32459545135498047,-0.06847727298736572,-0.18749472498893738
1772721182355049500,11.057049560546876,0.6144886016845703,-0.02328464388847351,-0.42007726430892944
1772721182373645800,11.075645751953125,0.98797607421875,-0.06113395094871521,-0.20049193501472473
1772721182392242200,11.0942421875,1.5850658416748047,-0.45045849680900574,-0.4559343755245209
1772721182410838500,11.112838623046875,1.9111595153808594,-0.60667884349823,-0.5340553522109985
1772721182429435000,11.131434814453126,1.6085329055786133,-0.5918163657188416,-0.4414154589176178
1772721182448031200,11.15003125,1.040757179260254,-0.4167260229587555,-0.10532653331756592
1772721182466627600,11.168627685546875,-0.0766153335571289,-0.32863539457321167,0.4306059181690216
1772721182485224000,11.187223876953125,-0.9957590103149414,-0.4448435604572296,0.557704746723175
1772721182513118200,11.2151181640625,-0.9856719970703125,-0.48869162797927856,0.868980884552002
1772721182531714600,11.233714599609375,-0.6746349334716797,-1.0049408674240112,0.47497859597206116
