time,seconds_elapsed,z,y,x
1772721171327294500,0.02929443359375,-1.295338749885559,0.10346522182226181,-0.13706278800964355
1772721171345891300,0.047891357421875,-1.2632683515548706,0.06467530876398087,-0.3245982825756073
1772721171364488200,0.06648828125,-1.2623521089553833,0.07658717036247253,-0.3087157905101776
1772721171383084800,0.085084716796875,-1.2996147871017456,0.10346522182226181,-0.13125957548618317
1772721171401681700,0.103681640625,-1.3848304748535156,0.12179116904735565,0.12255474925041199
1772721171420278500,0.122278564453125,-1.4871503114700317,0.16852232813835144,0.33085963129997253
1772721171438875100,0.140875244140625,-1.5705333948135376,0.2015090137720108,0.37667450308799744
1772721171457472000,0.159471923828125,-1.6630793809890747,0.09338594973087311,0.21723878383636475
1772721171476068600,0.178068603515625,-1.701869249343872,0.008781181648373604,0.07338013499975204
1772721171494665500,0.19666552734375,-1.7330234050750732,-0.06391172856092453,0.09903645515441895
1772721171513262300,0.215262451171875,-1.7730350494384766,-0.070631243288517,0.2138790339231491
1772721171531859000,0.23385888671875,-1.7721186876296997,-0.06085740402340889,0.31528258323669434
1772721171550455800,0.252455810546875,-1.6160427331924438,-0.1014799103140831,0.45303258299827576
1772721171569052700,0.271052734375,-1.3597849607467651,-0.28809911012649536,0.5785652995109558
1772721171587649300,0.289649169921875,-1.283732295036316,-0.6262127757072449,0.7251728773117065
1772721171606246100,0.30824609375,-1.2806780338287354,-0.6701950430870056,0.8113048076629639
1772721171624843000,0.326843017578125,-1.2907572984695435,-0.9157626628875732,0.7593812942504883
1772721171643439600,0.345439697265625,-1.3949097394943237,-0.9624938368797302,0.6045270562171936
1772721171662036500,0.364036376953125,-1.4859285354614258,-0.9218713045120239,0.3577376902103424
1772721171680633000,0.382633056640625,-1.5638138055801392,-0.7016545534133911,0.05780307948589325
1772721171699230000,0.40122998046875,-1.6310089826583862,-0.41668614745140076,-0.15905392169952393
1772721171717826800,0.419826904296875,-1.7040072679519653,-0.08193223923444748,-0.20334161818027496
1772721171736423400,0.43842333984375,-1.7376048564910889,0.191735178232193,-0.17768529057502747
1772721171755020300,0.457020263671875,-1.6618576049804688,0.3294851779937744,-0.11293362826108932
1772721171773617000,0.475616943359375,-1.4605777263641357,0.34170249104499817,-0.003283398225903511
1772721171792213800,0.4942138671875,-1.2257001399993896,0.28031057119369507,0.12499820441007614
1772721171810810400,0.512810302734375,-0.9957095980644226,0.08147408813238144,0.3067304790019989
1772721171829407200,0.5314072265625,-0.7819069027900696,-0.1729510873556137,0.505872368812561
1772721171848004000,0.550004150390625,-0.6517927050590515,-0.42676541209220886,0.5675697326660156
1772721171866600700,0.5686005859375,-0.667064368724823,-0.5300015807151794,0.616744339466095
1772721171885197600,0.587197509765625,-0.9199623465538025,-0.5959749221801758,0.7031817436218262
1772721171903794200,0.605794189453125,-1.3952151536941528,-0.6365974545478821,0.7682388424873352
1772721171922391000,0.62439111328125,-1.7864739894866943,-0.6466767191886902,0.6802743077278137
1772721171940988000,0.64298779296875,-2.034790515899658,-0.5657371282577515,0.4667770564556122
1772721171959584500,0.66158447265625,-2.2000296115875244,-0.48296496272087097,0.17967060208320618
1772721171978181000,0.68018115234375,-2.252563953399658,-0.28260132670402527,-0.10193806141614914
1772721171996778000,0.698778076171875,-2.1942262649536133,-0.14576761424541473,-0.34781113266944885
1772721172015374800,0.717374755859375,-2.1361942291259766,-0.1014799103140831,-0.4831176698207855
1772721172033971500,0.735971435546875,-2.036928653717041,-0.11858412623405457,-0.4580722153186798
1772721172052568300,0.754568359375,-1.9007058143615723,-0.1986074149608612,-0.2949713170528412
1772721172071165000,0.7731650390625,-1.6670500040054321,-0.1369100660085678,-0.13920080661773682
1772721172089761800,0.79176171875,-1.564424753189087,0.03535379841923714,-0.15722131729125977
1772721172108358400,0.8103583984375,-1.489593744277954,0.05459604039788246,-0.24396412074565887
1772721172126955300,0.828955322265625,-1.4046835899353027,-0.06940951198339462,-0.19540037214756012
1772721172145552000,0.8475517578125,-1.3209950923919678,-0.35010188817977905,-0.04909825697541237
1772721172164148700,0.866148681640625,-1.275791049003601,-0.5037343502044678,0.16928590834140778
1772721172182745600,0.88474560546875,-1.3463460206985474,-0.5077049732208252,0.2749654948711395
1772721172201342200,0.90334228515625,-1.4737112522125244,-0.38583746552467346,0.19769111275672913
1772721172219938800,0.921938720703125,-1.5693116188049316,-0.25786128640174866,0.014126247726380825
1772721172238535700,0.94053564453125,-1.599549412727356,-0.1784488707780838,-0.19265148043632507
1772721172257132300,0.95913232421875,-1.5723659992218018,-0.11339177191257477,-0.34353506565093994
1772721172275729200,0.977729248046875,-1.5494585037231445,-0.08895718306303024,-0.41531169414520264
1772721172294326000,0.996325927734375,-1.5589269399642944,-0.03367391973733902,-0.35330891609191895
1772721172312922600,1.014922607421875,-1.6056580543518066,0.20456334948539734,-0.24640758335590363
1772721172331519200,1.033519287109375,-1.6865977048873901,0.4311941862106323,-0.13187043368816376
1772721172350116000,1.0521162109375,-1.6997312307357788,0.5344303250312805,-0.1141553521156311
1772721172368712700,1.070712646484375,-1.6154319047927856,0.4595993757247925,-0.1498909443616867
1772721172387309600,1.0893095703125,-1.470046043395996,0.3719402849674225,-0.16271910071372986
1772721172405906200,1.10790625,-1.2907572984695435,0.2687041461467743,-0.14592032134532928
1772721172424503000,1.1265029296875,-1.1032217741012573,0.06742420047521591,-0.13370302319526672
1772721172443099600,1.145099609375,-0.8585704565048218,-0.06238456442952156,-0.08788817375898361
1772721172461696500,1.163696533203125,-0.6249146461486816,-0.15462514758110046,-0.11110103130340576
1772721172480293000,1.182293212890625,-0.4520399272441864,-0.194025918841362,-0.2167806327342987
1772721172498890000,1.200889892578125,-0.3381136655807495,-0.20807582139968872,-0.3358992636203766
1772721172517486600,1.219486572265625,-0.27366742491722107,-0.23189954459667206,-0.3966803252696991
1772721172536083200,1.238083251953125,-0.2715294063091278,-0.29878923296928406,-0.36308276653289795
1772721172554680000,1.25668017578125,-0.3341430425643921,-0.23067781329154968,-0.28519749641418457
1772721172573276700,1.275276611328125,-0.4462367296218872,-0.14668390154838562,-0.2320522516965866
1772721172591873500,1.29387353515625,-0.5525271892547607,-0.05322159454226494,-0.26045745611190796
1772721172610470100,1.31247021484375,-0.5787943601608276,-0.019624030217528343,-0.31146466732025146
1772721172629067000,1.33106689453125,-0.5687150955200195,-0.08804088830947876,-0.3154352903366089
1772721172647663600,1.34966357421875,-0.6163625717163086,-0.12316560745239258,-0.27053675055503845
1772721172666260500,1.368260498046875,-0.7113520503044128,-0.1378263682126999,-0.1963166743516922
1772721172684857000,1.386857177734375,-0.8103121519088745,-0.12591449916362762,-0.06375901401042938
1772721172703454000,1.405453857421875,-0.8051197528839111,-0.1738673895597458,0.10789398849010468
1772721172722050600,1.424050537109375,-0.7174606919288635,-0.20105087757110596,0.2853502035140991
1772721172740647200,1.442647216796875,-0.6172788739204407,-0.147905632853508,0.3183369040489197
1772721172759244000,1.461244140625,-0.5305360555648804,0.03932442143559456,0.19616395235061646
1772721172777840600,1.479840576171875,-0.3610210716724396,0.2729802131652832,0.05474875494837761
1772721172796437200,1.498437255859375,-0.10659590363502502,0.32215481996536255,-0.022525638341903687
1772721172815034000,1.5170341796875,0.13652828335762024,0.19906556606292725,-0.06375901401042938
1772721172833630700,1.535630615234375,0.3387245237827301,0.10315979272127151,-0.041157014667987823
1772721172852227600,1.5542275390625,0.5308414697647095,0.0781143307685852,0.1222493126988411
1772721172870824200,1.57282421875,0.6130027770996094,-0.03000873140990734,0.3287216126918793
1772721172889420800,1.5914208984375,0.6194168925285339,-0.1375209391117096,0.42615455389022827
1772721172908017700,1.610017578125,0.6065887212753296,-0.14332415163516998,0.3730092942714691
1772721172926614300,1.6286142578125,0.5348120927810669,-0.2138790339231491,0.2822958827018738
1772721172945211100,1.647211181640625,0.42974337935447693,-0.32475098967552185,0.08345939964056015
1772721172963807700,1.665807861328125,0.35766133666038513,-0.42248934507369995,-0.150196373462677
1772721172982404400,1.684404296875,0.24404047429561615,-0.5171734094619751,-0.2625955045223236
1772721173001001200,1.703001220703125,0.11178825795650482,-0.5272526741027832,-0.16363540291786194
1772721173019597800,1.721597900390625,0.023212861269712448,-0.4765508770942688,0.033368486911058426
1772721173038194400,1.7401943359375,0.02412915788590908,-0.5165625214576721,0.2086866796016693
1772721173056791300,1.758791259765625,0.12125665694475174,-0.5458840131759644,0.3058141767978668
1772721173075388000,1.777387939453125,0.15241076052188873,-0.525420069694519,0.28443390130996704
1772721173093984800,1.79598486328125,0.05864302068948746,-0.4200458824634552,0.13080142438411713
1772721173112581400,1.814581298828125,-0.06322450190782547,-0.2541961073875427,0.03611737862229347
1772721173131178000,1.833177978515625,-0.14660754799842834,-0.13477204740047455,0.0449749194085598
1772721173149774800,1.85177490234375,-0.15241076052188873,0.012751801870763302,0.05230529606342316
1772721173168371500,1.870371337890625,-0.08368847519159317,0.14653119444847107,0.06757691502571106
1772721173186968000,1.888968017578125,-0.010384701192378998,0.2534325122833252,0.10697769373655319
1772721173205565000,1.90756494140625,0.05345066636800766,0.2796997129917145,0.08895718306303024
1772721173224161500,1.92616162109375,0.20189081132411957,0.18990258872509003,0.010766491293907166
1772721173242758100,1.944758056640625,0.34147340059280396,0.08177952468395233,-0.008781181648373604
1772721173261354800,1.963354736328125,0.5439751148223877,-0.04955640435218811,-0.03810269013047218
1772721173279951600,1.98195166015625,0.7357866168022156,-0.08162680268287659,-0.02893971838057041
1772721173298548200,2.00054833984375,0.8323032855987549,-0.03550651669502258,-0.05215258151292801
1772721173317145000,2.01914501953125,0.8313869833946228,0.11568251997232437,-0.15447242558002472
1772721173335741700,2.03774169921875,0.8093958497047424,0.28000515699386597,-0.24518585205078125
1772721173354338300,2.05633837890625,0.7641918659210205,0.3606393039226532,-0.3200167715549469
1772721173372935200,2.07493505859375,0.6582068204879761,0.37804892659187317,-0.3459785282611847
1772721173391531800,2.09353173828125,0.5033525824546814,0.3716348707675934,-0.3044397234916687
1772721173410128400,2.11212841796875,0.31062474846839905,0.40004006028175354,-0.2687041461467743
1772721173428725000,2.13072509765625,0.10842850059270859,0.4217257797718048,-0.2772562503814697
1772721173447321900,2.14932177734375,-0.06841685622930527,0.3294851779937744,-0.25954118371009827
1772721173465918500,2.16791845703125,-0.23396120965480804,0.2329685539007187,-0.2473238706588745
1772721173484515000,2.18651513671875,-0.39370235800743103,0.2164752036333084,-0.3145190179347992
1772721173503112000,2.20511181640625,-0.5299251675605774,0.23907721042633057,-0.3917934000492096
1772721173521708500,2.22370849609375,-0.6136136651039124,0.24518585205078125,-0.3759109079837799
1772721173540305200,2.24230517578125,-0.656679630279541,0.21800236403942108,-0.27084216475486755
1772721173558901800,2.26090185546875,-0.6905826330184937,0.17890702188014984,-0.22869250178337097
1772721173577498600,2.27949853515625,-0.7073814272880554,0.12789981067180634,-0.22350014746189117
1772721173596095200,2.29809521484375,-0.6768381595611572,0.055512335151433945,-0.2067013680934906
1772721173614691800,2.31669189453125,-0.5989528894424438,-0.028176138177514076,-0.1300378441810608
1772721173633288400,2.335288330078125,-0.5115992426872253,-0.14485131204128265,-0.0005345066892914474
1772721173651885300,2.35388525390625,-0.46425724029541016,-0.21540619432926178,0.13019055128097534
1772721173670482000,2.37248193359375,-0.4630354940891266,-0.23617559671401978,0.21143557131290436
1772721173689078500,2.39107861328125,-0.5100721120834351,-0.22762349247932434,0.23800818622112274
1772721173707675400,2.40967529296875,-0.5952877402305603,-0.20807582139968872,0.19646938145160675
1772721173726272000,2.42827197265625,-0.6866120100021362,-0.15187625586986542,0.13507747650146484
1772721173744868600,2.44686865234375,-0.757777750492096,-0.09720385819673538,0.07338013499975204
1772721173763465200,2.46546533203125,-0.7721330523490906,-0.18730641901493073,0.14088068902492523
1772721173782061800,2.484061767578125,-0.7189878225326538,-0.35132360458374023,0.3158934414386749
1772721173800658700,2.50265869140625,-0.6673697829246521,-0.4108829200267792,0.4307360351085663
1772721173819255300,2.52125537109375,-0.6710349321365356,-0.27404922246932983,0.4145480990409851
1772721173837852000,2.539851806640625,-0.7422007322311401,0.04512763395905495,0.2658025324344635
1772721173856448500,2.558448486328125,-0.8368847370147705,0.3612501621246338,0.11583523452281952
1772721173875045400,2.57704541015625,-0.8726203441619873,0.4544070363044739,0.02390008419752121
1772721173893642000,2.59564208984375,-0.8998038172721863,0.7036398649215698,-0.08483384549617767
1772721173912238600,2.614238525390625,-0.8652899861335754,0.7714458703994751,-0.11782054603099823
1772721173930835200,2.632835205078125,-0.7803797721862793,0.7656426429748535,0.025121813639998436
1772721173949432000,2.65143212890625,-0.6252201199531555,0.5307651162147522,0.34063348174095154
1772721173968028700,2.670028564453125,-0.43432486057281494,0.21342088282108307,0.6451495885848999
1772721173986625300,2.688625244140625,-0.23426663875579834,-0.050778135657310486,0.7890082001686096
1772721174005222000,2.707221923828125,0.005803215317428112,-0.3723984360694885,0.8048906922340393
1772721174023818500,2.725818603515625,0.29046618938446045,-0.7190641760826111,0.7331140637397766
1772721174042415400,2.744415283203125,0.5467239618301392,-0.986928403377533,0.6558396816253662
1772721174061012000,2.763011962890625,0.7043271064758301,-1.0907753705978394,0.6625592112541199
1772721174079608600,2.781608642578125,0.7406735420227051,-0.9392809271812439,0.6527853608131409
1772721174098205200,2.800205078125,0.6643154621124268,-0.46891507506370544,0.4814378023147583
1772721174116801800,2.8188017578125,0.4825831651687622,0.048792824149131775,0.17936517298221588
1772721174135398400,2.8373984375,0.17776164412498474,0.49747300148010254,-0.07475458085536957
1772721174153995300,2.855995361328125,-0.1692095398902893,0.6370556354522705,-0.21067199110984802
1772721174172591900,2.874591796875,-0.37262752652168274,0.6010146141052246,-0.19509494304656982
1772721174191188500,2.8931884765625,-0.32162031531333923,0.3701077103614807,-0.11690424382686615
1772721174209785000,2.91178515625,-0.07116574794054031,0.05826122686266899,-0.02496909722685814
1772721174228382000,2.9303818359375,0.19425499439239502,-0.2969566285610199,0.08895718306303024
1772721174246978300,2.948978271484375,0.3347539007663727,-0.5474112033843994,0.18669554591178894
1772721174265575200,2.9675751953125,0.3707949221134186,-0.682412326335907,0.23403756320476532
1772721174284171800,2.986171875,0.34636032581329346,-0.6866883635520935,0.26213735342025757
1772721174302768400,3.004768310546875,0.27397283911705017,-0.5687914490699768,0.22395829856395721
1772721174321365000,3.023364990234375,0.20189081132411957,-0.3274998664855957,0.12499820441007614
1772721174339961600,3.041961669921875,0.13683371245861053,-0.055970486253499985,-0.012446369975805283
1772721174358558200,3.06055810546875,0.05803215503692627,0.15783219039440155,-0.062537282705307
1772721174377155000,3.079155029296875,0.005803215317428112,0.2699258625507355,-0.020693045109510422
1772721174395751700,3.097751708984375,-0.001832594396546483,0.22930335998535156,-0.009392046369612217
1772721174414348300,3.116348388671875,-0.02626718580722809,0.10957387089729309,-0.07353284955024719
1772721174432945000,3.13494482421875,-0.061391908675432205,0.016416991129517555,-0.10651954263448715
1772721174451541500,3.15354150390625,-0.13133592903614044,-0.12163844704627991,-0.07506000995635986
1772721174470138000,3.17213818359375,-0.19669845700263977,-0.266107976436615,-0.02741255611181259
1772721174488735000,3.19073486328125,-0.19853104650974274,-0.4087449014186859,0.04589121788740158
1772721174507331300,3.209331298828125,-0.12156209349632263,-0.4722748398780823,0.12957969307899475
1772721174525928200,3.22792822265625,0.053756099194288254,-0.5800924897193909,0.1689804643392563
1772721174544524800,3.24652490234375,0.3246746361255646,-0.663475513458252,0.1689804643392563
1772721174563121400,3.265121337890625,0.6630937457084656,-0.41638070344924927,0.09781472384929657
1772721174581718000,3.283718017578125,0.7971785664558411,0.687451958656311,-0.27542364597320557
1772721174600314600,3.302314697265625,0.5241219997406006,1.628794550895691,-0.6089558005332947
1772721174618911200,3.3209111328125,0.6261364221572876,1.4992913007736206,-0.6523272395133972
1772721174637507800,3.3395078125,0.6221657991409302,0.9235512018203735,-0.20945025980472565
1772721174656104400,3.3581044921875,0.6075050234794617,0.32123851776123047,0.13538290560245514
1772721174674701300,3.376701416015625,0.630107045173645,-0.16134466230869293,0.23648102581501007
1772721174693297700,3.395297607421875,0.47097674012184143,-0.42187848687171936,0.3027598559856415
1772721174711894500,3.41389453125,0.18387030065059662,-0.8247438073158264,0.3372737169265747
1772721174730491100,3.4324912109375,-0.06597339361906052,-1.1234567165374756,0.31375542283058167
1772721174749087700,3.451087646484375,-0.2406807243824005,-1.2105048894882202,0.25786128640174866
1772721174767684400,3.469684326171875,-0.31490078568458557,-1.1430044174194336,0.18669554591178894
1772721174786281000,3.488281005859375,-0.23762640357017517,-0.9847903847694397,0.11278090626001358
1772721174804877600,3.506877685546875,-0.05345066636800766,-0.6689732670783997,-0.00755945174023509
1772721174823474200,3.52547412109375,0.1646280586719513,-0.4563923478126526,-0.10774127393960953
1772721174842070800,3.54407080078125,0.3491092324256897,-0.2612210512161255,-0.0631481483578682
1772721174860667400,3.56266748046875,0.4535670876502991,-0.028176138177514076,-0.000839939049910754
1772721174879264300,3.58126416015625,0.46028661727905273,0.28244858980178833,-0.009697478264570236
1772721174897860600,3.599860595703125,0.3533852696418762,0.7069995999336243,-0.16424626111984253
1772721174916457500,3.61845751953125,0.2562577724456787,1.2085195779800415,-0.3759109079837799
1772721174935053800,3.6370537109375,0.06719512492418289,1.4378993511199951,-0.4999164640903473
1772721174953650700,3.655650634765625,-0.22479823231697083,1.1721731424331665,-0.47670361399650574
1772721174972247300,3.674247314453125,-0.42363473773002625,0.7036398649215698,-0.3667479455471039
1772721174990844000,3.692843994140625,-0.5684096813201904,0.3395644724369049,-0.10071633011102676
1772721175009440500,3.7114404296875,-0.6539307236671448,0.016416991129517555,0.2190713882446289
1772721175028037000,3.730037109375,-0.6252201199531555,-0.2566395699977875,0.44906195998191833
1772721175046633700,3.7486337890625,-0.5207622051239014,-0.362930029630661,0.4902953505516052
1772721175065230300,3.767230224609375,-0.39186975359916687,-0.15462514758110046,0.33910632133483887
1772721175083827000,3.785826904296875,-0.3087921440601349,0.08605557680130005,0.08437569439411163
1772721175102423600,3.804423583984375,-0.3032943606376648,0.30260714888572693,-0.23968806862831116
1772721175121020200,3.823020263671875,-0.33017241954803467,0.5240456461906433,-0.5011382102966309
1772721175139616800,3.84161669921875,-0.3738492429256439,0.6327795386314392,-0.5542834401130676
1772721175158213400,3.86021337890625,-0.35613417625427246,0.8435279130935669,-0.385990172624588
1772721175176810000,3.87881005859375,-0.3594939112663269,0.9623411297798157,-0.24640758335590363
1772721175195406600,3.897406494140625,-0.462424635887146,0.907974123954773,-0.1446985900402069
1772721175214003200,3.916003173828125,-0.5943714380264282,0.6715694665908813,-0.10041090101003647
1772721175232599800,3.934599853515625,-0.7046325206756592,0.3493382930755615,-0.11110103130340576
1772721175251196400,3.953196533203125,-0.813671886920929,0.10682497918605804,-0.17249293625354767
1772721175269793000,3.97179296875,-0.9095776677131653,-0.05352702736854553,-0.13248129189014435
1772721175288390000,3.990389892578125,-0.9969313144683838,-0.25847217440605164,-0.03962985426187515
1772721175306986200,4.008986328125,-1.0653481483459473,-0.4710530936717987,-0.001450803829357028
1772721175325582800,4.027582763671875,-1.053130865097046,-0.3623191714286804,-0.07383827865123749
1772721175344179500,4.046179443359375,-0.9703587293624878,-0.35590508580207825,-0.13767364621162415
1772721175362776000,4.064776123046875,-0.8518509268760681,-0.2862665057182312,-0.289168119430542
1772721175381372700,4.08337255859375,-0.8491020202636719,-0.10789398849010468,-0.3157407343387604
1772721175399969300,4.10196923828125,-0.9792162179946899,-0.047723811119794846,-0.19295690953731537
1772721175418566000,4.12056591796875,-1.0027345418930054,-0.07765618711709976,-0.13217586278915405
1772721175437162500,4.13916259765625,-1.000596523284912,-0.1421024203300476,-0.10102175921201706
1772721175455759400,4.15775927734375,-1.0241148471832275,-0.22762349247932434,-0.13125957548618317
1772721175474355700,4.176355712890625,-1.0870338678359985,-0.3058141767978668,-0.10499238222837448
1772721175492952300,4.194952392578125,-1.1780527830123901,-0.40263625979423523,-0.05520690605044365
1772721175511549000,4.213548828125,-1.2718204259872437,-0.49548768997192383,0.06788235157728195
1772721175530145500,4.2321455078125,-1.3695588111877441,-0.5122864842414856,0.2566395699977875
1772721175548742100,4.2507421875,-1.515555500984192,-0.560850203037262,0.41179922223091125
1772721175567338800,4.2693388671875,-1.7336342334747314,-0.6063596606254578,0.38186684250831604
1772721175585935400,4.287935302734375,-1.942244529724121,-0.5086212754249573,0.17569997906684875
1772721175604532000,4.306531982421875,-2.078772783279419,-0.2929860055446625,0.00679587060585618
1772721175623128600,4.325128662109375,-2.107483386993408,-0.08651372790336609,-0.06559160351753235
1772721175641725200,4.34372509765625,-2.1001532077789307,0.06650790572166443,-0.09460768103599548
1772721175660321800,4.36232177734375,-2.0940444469451904,0.2583194375038147,-0.1859319657087326
1772721175678918400,4.38091845703125,-2.0696098804473877,0.26595523953437805,-0.27084216475486755
1772721175697515000,4.399514892578125,-2.045480728149414,0.19509494304656982,-0.226859912276268
1772721175716111600,4.418111572265625,-2.003636360168457,0.14103341102600098,-0.11140646785497665
1772721175734708200,4.436708251953125,-1.9358304738998413,-0.043142326176166534,0.03000873140990734
1772721175753304800,4.455304931640625,-1.833205223083496,-0.12133301794528961,0.04802924394607544
1772721175771901400,4.4739013671875,-1.7266093492507935,0.015195261687040329,-0.06498073786497116
1772721175790498000,4.492498046875,-1.626121997833252,0.2632063627243042,-0.0888044685125351
1772721175809094700,4.5110947265625,-1.506087064743042,0.3908770978450775,0.029397867619991302
1772721175827691300,4.529691162109375,-1.3710860013961792,0.2625955045223236,0.2352592945098877
1772721175846288000,4.548287841796875,-1.176220178604126,0.14714205265045166,0.3723984360694885
1772721175864884200,4.56688427734375,-0.9822705388069153,0.004810560029000044,0.4411207437515259
1772721175883481000,4.585481201171875,-0.9315688014030457,-0.08895718306303024,0.37606361508369446
1772721175902077700,4.60407763671875,-0.9865466356277466,-0.18791727721691132,0.3082576394081116
1772721175920674000,4.622674072265625,-1.138346552848816,-0.33910632133483887,0.326583594083786
1772721175939271000,4.64127099609375,-1.416290044784546,-0.4398989975452423,0.3791179656982422
1772721175957867300,4.6598671875,-1.7171409130096436,-0.4701367914676666,0.39102980494499207
1772721175976464000,4.6784638671875,-1.9205588102340698,-0.455781489610672,0.3284161686897278
1772721175995060500,4.697060546875,-1.989281177520752,-0.4246273934841156,0.30886849761009216
1772721176013657000,4.715656982421875,-1.9285000562667847,-0.3543779253959656,0.3220020830631256
1772721176032253700,4.734253662109375,-1.8072434663772583,-0.2746600806713104,0.31406086683273315
1772721176050850300,4.752850341796875,-1.7091996669769287,-0.16714787483215332,0.2801578640937805
1772721176069447000,4.771447021484375,-1.675296664237976,-0.0807105079293251,0.26213735342025757
1772721176088043500,4.79004345703125,-1.6743803024291992,-0.0962875634431839,0.23648102581501007
1772721176106640100,4.80864013671875,-1.7168354988098145,-0.189444437623024,0.21113014221191406
1772721176125236700,4.82723681640625,-1.774256706237793,-0.2713003158569336,0.16714787483215332
1772721176143833000,4.8458330078125,-1.8405355215072632,-0.3522399067878723,0.21571162343025208
1772721176162429700,4.8644296875,-1.8503093719482422,-0.4548651874065399,0.270689457654953
1772721176181026300,4.8830263671875,-1.7910555601119995,-0.4951822757720947,0.28321218490600586
1772721176199623000,4.901622802734375,-1.7171409130096436,-0.5516872406005859,0.2719111740589142
1772721176218219500,4.920219482421875,-1.673769474029541,-0.4902953505516052,0.22884522378444672
1772721176236816100,4.938816162109375,-1.6975932121276855,-0.29359689354896545,0.1735619604587555
1772721176255412700,4.957412841796875,-1.821904182434082,-0.03733910992741585,0.037033677101135254
1772721176274009300,4.97600927734375,-1.996611475944519,0.23021966218948364,-0.10651954263448715
1772721176292605700,4.994605712890625,-2.126114845275879,0.4162279963493347,-0.14256057143211365
1772721176311202600,5.01320263671875,-2.1496331691741943,0.39423686265945435,-0.06986765563488007
1772721176329799000,5.031798828125,-2.061668634414673,0.10529781877994537,0.044669486582279205
1772721176348395500,5.0503955078125,-1.971260666847229,-0.05780307948589325,0.15645773708820343
1772721176366992100,5.0689921875,-1.8374812602996826,-0.189444437623024,0.2664133906364441
1772721176385588700,5.087588623046875,-1.6688826084136963,-0.368122398853302,0.36628979444503784
1772721176404185300,5.106185302734375,-1.524107575416565,-0.44814568758010864,0.3183369040489197
1772721176422782000,5.124781982421875,-1.4453060626983643,-0.4084394574165344,0.17905974388122559
1772721176441378300,5.14337841796875,-1.4049890041351318,-0.3082576394081116,0.0397825688123703
1772721176459975000,5.161974853515625,-1.3588687181472778,-0.23067781329154968,-0.05429060757160187
1772721176478571500,5.180571533203125,-1.3075560331344604,-0.23312127590179443,-0.024663666263222694
1772721176497168100,5.199168212890625,-1.313053846359253,-0.15493057668209076,-0.004810560029000044
1772721176515764700,5.2177646484375,-1.3472622632980347,-0.11308634281158447,-0.04696023091673851
1772721176534361300,5.236361328125,-1.3570361137390137,-0.1219438835978508,-0.1495855152606964
1772721176552958000,5.2549580078125,-1.3506220579147339,-0.20044000446796417,-0.21403174102306366
1772721176571554600,5.273554443359375,-1.3206896781921387,-0.3232238292694092,-0.19570580124855042
1772721176590151000,5.29215087890625,-1.278234601020813,-0.4704422354698181,-0.14897464215755463
1772721176608747500,5.31074755859375,-1.184772253036499,-0.5574904680252075,-0.19906556606292725
1772721176627344100,5.32934423828125,-1.0503820180892944,-0.5300015807151794,-0.2775616943836212
1772721176645940700,5.347940673828125,-0.9089667797088623,-0.44356417655944824,-0.2876409590244293
1772721176664537300,5.366537353515625,-0.7620537877082825,-0.3937787115573883,-0.24915647506713867
1772721176683134000,5.385134033203125,-0.5998691916465759,-0.39072439074516296,-0.14836378395557404
1772721176701730300,5.403730224609375,-0.44898560643196106,-0.3427715003490448,-0.104076087474823
1772721176720327000,5.422326904296875,-0.3402516841888428,-0.21326816082000732,-0.16943861544132233
1772721176738923500,5.440923583984375,-0.2706131041049957,-0.1534034162759781,-0.23999349772930145
1772721176757520100,5.45952001953125,-0.2868010103702545,-0.1268308013677597,-0.27603453397750854
1772721176776116700,5.47811669921875,-0.3643808364868164,-0.09017891436815262,-0.26962044835090637
1772721176794713000,5.496713134765625,-0.41447174549102783,-0.11950042098760605,-0.22319471836090088
1772721176813309700,5.515309814453125,-0.42882707715034485,-0.16928590834140778,-0.15172353386878967
1772721176831906300,5.53390625,-0.42791077494621277,-0.2951240539550781,-0.12179116904735565
1772721176850502700,5.552502685546875,-0.3695732057094574,-0.353767067193985,-0.21525347232818604
1772721176869099300,5.571099365234375,-0.40317076444625854,-0.08132137358188629,-0.3395644724369049
1772721176887696000,5.58969580078125,-0.42332929372787476,0.10835213959217072,-0.3157407343387604
1772721176906292500,5.60829248046875,-0.36285367608070374,0.1960112303495407,-0.21403174102306366
1772721176924889000,5.62688916015625,-0.3072649836540222,0.3713294267654419,-0.11873684078454971
1772721176943485700,5.645485595703125,-0.23029601573944092,0.3960694372653961,-0.11782054603099823
1772721176962082000,5.66408203125,-0.07544180005788803,0.4131736755371094,-0.16882775723934174
1772721176980678700,5.6826787109375,0.17531819641590118,0.3774380683898926,-0.11507165431976318
1772721176999275300,5.701275146484375,0.37843072414398193,0.18684826791286469,0.18272492289543152
1772721177017871600,5.71987158203125,0.47555822134017944,0.10713040828704834,0.5602393746376038
1772721177036468200,5.73846826171875,0.49663305282592773,-0.06788235157728195,0.7541889548301697
1772721177055064800,5.75706494140625,0.4679224193096161,-0.17569997906684875,0.7822887301445007
1772721177073661400,5.775661376953125,0.3863719701766968,-0.3158934414386749,0.6790525317192078
1772721177092258000,5.794258056640625,0.2461785078048706,-0.47441285848617554,0.3849211633205414
1772721177110854700,5.812854736328125,0.020769402384757996,-0.45394888520240784,0.059635672718286514
1772721177129451000,5.831450927734375,-0.1536324918270111,-0.38033968210220337,-0.12270746380090714
1772721177148047600,5.850047607421875,-0.2507599890232086,-0.2920697331428528,-0.08666644245386124
1772721177166644200,5.868644287109375,-0.29077163338661194,-0.17631085216999054,0.027870705351233482
1772721177185240600,5.887240478515625,-0.31581708788871765,0.05673406645655632,0.03825540840625763
1772721177203837200,5.905837158203125,-0.277332603931427,0.2008981555700302,0.015958841890096664
1772721177222433800,5.924433837890625,-0.19120067358016968,0.18929173052310944,-0.019471315667033195
1772721177241030400,5.943030517578125,-0.14691297709941864,0.1404225379228592,-0.11201732605695724
1772721177259626800,5.961626708984375,-0.17715078592300415,0.01030834298580885,-0.22350014746189117
1772721177278223400,5.980223388671875,-0.19303326308727264,-0.04589121788740158,-0.2680932879447937
1772721177296820000,5.998820068359375,-0.14691297709941864,-0.09384410083293915,-0.2063959389925003
1772721177315416300,6.017416259765625,-0.13927717506885529,-0.11919499188661575,-0.03168861195445061
1772721177334013000,6.036012939453125,-0.18661919236183167,-0.13599377870559692,0.0907897800207138
1772721177352609500,6.054609619140625,-0.27427828311920166,-0.14912736415863037,0.14362958073616028
1772721177371206000,6.073205810546875,-0.34636032581329346,-0.14026983082294464,0.10331250727176666
1772721177389802500,6.091802490234375,-0.3857611119747162,-0.08559742569923401,0.008017600513994694
1772721177408399000,6.110399169921875,-0.35796675086021423,-0.01565340906381607,-0.06345357745885849
1772721177426995700,6.12899560546875,-0.28527384996414185,0.01824958436191082,-0.08177952468395233
1772721177445592000,6.147592041015625,-0.2562577724456787,0.10285435616970062,-0.012446369975805283
1772721177464188700,6.166188720703125,-0.2571740746498108,0.2381609082221985,0.03825540840625763
1772721177482785300,6.184785400390625,-0.29565855860710144,0.3090212345123291,0.011377356946468353
1772721177501381600,6.203381591796875,-0.3393353819847107,0.3517817556858063,-0.057039499282836914
1772721177519978200,6.221978271484375,-0.44318240880966187,0.41378453373908997,-0.05734493210911751
1772721177538574800,6.240574951171875,-0.6130027770996094,0.47639816999435425,-0.08208495378494263
1772721177557171200,6.259171142578125,-0.7825177907943726,0.4889208972454071,-0.1703549176454544
1772721177575767800,6.277767822265625,-0.8964440822601318,0.4467712342739105,-0.2742019295692444
1772721177594364400,6.296364501953125,-0.9239329695701599,0.4006509482860565,-0.339869886636734
1772721177612961000,6.3149609375,-0.879339873790741,0.3597230017185211,-0.2928332984447479
1772721177631557400,6.333557373046875,-0.8487966060638428,0.2644280791282654,-0.19417864084243774
1772721177650154000,6.352154052734375,-0.8662062287330627,0.2070067971944809,-0.09827287495136261
1772721177668750600,6.37075048828125,-0.9031635522842407,0.19356778264045715,-0.083306685090065
1772721177687347000,6.389346923828125,-0.9666935205459595,0.20273074507713318,-0.1398116797208786
1772721177705943600,6.407943603515625,-1.0314451456069946,0.21922409534454346,-0.18226677179336548
1772721177724540000,6.426539794921875,-1.0641264915466309,0.23999349772930145,-0.1550832986831665
1772721177743136500,6.445136474609375,-1.0809252262115479,0.21830779314041138,-0.10957387089729309
1772721177761732900,6.46373291015625,-1.0879502296447754,0.1703549176454544,-0.056428633630275726
1772721177780329500,6.48232958984375,-1.125823736190796,0.09002619981765747,-0.021609341725707054
1772721177798926000,6.500926025390625,-1.183550477027893,0.03840812295675278,0.06421715766191483
1772721177817522700,6.519522705078125,-1.2315033674240112,-0.027870705351233482,0.13599377870559692
1772721177836119000,6.538119140625,-1.2788454294204712,-0.13538290560245514,0.15431971848011017
1772721177854715600,6.556715576171875,-1.324660301208496,-0.2395353466272354,0.14637847244739532
1772721177873312300,6.575312255859375,-1.3671153783798218,-0.3482692837715149,0.20105087757110596
1772721177891908600,6.59390869140625,-1.377805471420288,-0.35621052980422974,0.3494910001754761
1772721177910505200,6.612505126953125,-1.3655881881713867,-0.42676541209220886,0.40202537178993225
1772721177929101600,6.6311015625,-1.2693769931793213,-0.5657371282577515,0.409661203622818
1772721177947698200,6.6496982421875,-1.0607666969299316,-0.6042216420173645,0.4518108665943146
1772721177966294800,6.668294677734375,-0.8158099055290222,-0.5581013560295105,0.49396052956581116
1772721177984891100,6.68689111328125,-0.5870410799980164,-0.38736462593078613,0.4466184973716736
1772721178003487700,6.70548779296875,-0.4373791813850403,-0.12713623046875,0.28993168473243713
1772721178022084000,6.724083984375,-0.42913252115249634,0.11110103130340576,0.1118646115064621
1772721178040680700,6.7426806640625,-0.5158752799034119,0.2641226649284363,-0.041157014667987823
1772721178059277000,6.761277099609375,-0.6233875155448914,0.31635159254074097,-0.1291215419769287
1772721178077873700,6.779873779296875,-0.6750055551528931,0.23999349772930145,-0.028634287416934967
1772721178096470300,6.79847021484375,-0.6927206516265869,0.22350014746189117,0.18028147518634796
1772721178115066600,6.817066650390625,-0.5974257588386536,0.053374309092760086,0.41210466623306274
1772721178133663200,6.835663330078125,-0.4001164436340332,-0.15859577059745789,0.5779544115066528
1772721178152259600,6.854259521484375,-0.14660754799842834,-0.3329976499080658,0.5965858101844788
1772721178170856200,6.872856201171875,0.11026109009981155,-0.5073995590209961,0.5599339008331299
1772721178189452800,6.891452880859375,0.28557929396629333,-0.6054433584213257,0.5101484656333923
1772721178208049200,6.910049072265625,0.28924447298049927,-0.6558396816253662,0.4756345748901367
1772721178226645800,6.928645751953125,0.1496618688106537,-0.7138718366622925,0.46402814984321594
1772721178245242000,6.9472421875,-0.16249002516269684,-0.6472876071929932,0.45242172479629517
1772721178263838700,6.965838623046875,-0.5800161361694336,-0.30489787459373474,0.31009024381637573
1772721178282435000,6.98443505859375,-0.9312633275985718,0.03657552972435951,0.11003202199935913
1772721178301031700,7.00303173828125,-1.0158681869506836,0.083306685090065,0.025121813639998436
1772721178319628300,7.021628173828125,-0.8778126835823059,-0.01626427471637726,0.12835796177387238
1772721178338224600,7.040224609375,-0.6652317643165588,-0.12347104400396347,0.20135630667209625
1772721178356821000,7.058821044921875,-0.4477638900279999,-0.17447824776172638,0.18639011681079865
1772721178375417600,7.07741748046875,-0.2574795186519623,-0.229150652885437,0.1891390085220337
1772721178394014200,7.09601416015625,-0.08338304609060287,-0.28290674090385437,0.1784488707780838
1772721178412610600,7.114610595703125,0.0513126403093338,-0.36659523844718933,0.1931096315383911
1772721178431207200,7.133207275390625,0.15271618962287903,-0.4457022249698639,0.23678645491600037
1772721178449803500,7.151803466796875,0.18081597983837128,-0.4545597434043884,0.28993168473243713
1772721178468400000,7.170400146484375,0.16126830875873566,-0.35071274638175964,0.2954294681549072
1772721178486996500,7.18899658203125,0.12125665694475174,-0.1986074149608612,0.2456440031528473
1772721178505593000,7.207593017578125,0.05742128938436508,-0.09384410083293915,0.15034909546375275
1772721178524189400,7.226189453125,-0.043982263654470444,-0.06268999725580215,0.08223766833543777
1772721178542786000,7.2447861328125,-0.1279761642217636,-0.05994110554456711,0.046196650713682175
1772721178561382400,7.26338232421875,-0.15271618962287903,-0.09476039558649063,0.01626427471637726
1772721178579979000,7.28197900390625,-0.1432477980852127,-0.16409355401992798,-0.013973532244563103
1772721178598575600,7.30057568359375,-0.14294235408306122,-0.17050762474536896,-0.050930850207805634
1772721178617172000,7.319171875,-0.14721840620040894,-0.12591449916362762,-0.12179116904735565
1772721178635768300,7.337768310546875,-0.16340632736682892,-0.09750928729772568,-0.1608865112066269
1772721178654365000,7.356364990234375,-0.20463970303535461,-0.04894553869962692,-0.13889537751674652
1772721178672961300,7.374961181640625,-0.23273947834968567,0.04696023091673851,-0.15233440697193146
1772721178691558000,7.393557861328125,-0.21716243028640747,0.11537708342075348,-0.21800236403942108
1772721178710154200,7.412154296875,-0.1948658674955368,0.1089630052447319,-0.2629009187221527
1772721178728750800,7.430750732421875,-0.1444695144891739,0.09338594973087311,-0.2940550446510315
1772721178747347200,7.44934716796875,-0.06719512492418289,-0.003741546766832471,-0.28733551502227783
1772721178765943800,7.46794384765625,-0.059864748269319534,-0.08743002265691757,-0.2225838601589203
1772721178784540200,7.4865400390625,-0.047952886670827866,-0.1372154951095581,-0.13584105670452118
1772721178803136800,7.50513671875,-0.0870482325553894,-0.19585852324962616,-0.05520690605044365
1772721178821733000,7.523733154296875,-0.1328630894422531,-0.32505643367767334,-0.01000291109085083
1772721178840329700,7.542329833984375,-0.2419024556875229,-0.36659523844718933,0.05810851231217384
1772721178858926000,7.560926025390625,-0.30634868144989014,-0.4136318266391754,0.0657443255186081
1772721178877522700,7.579522705078125,-0.3246746361255646,-0.38644832372665405,0.052916161715984344
1772721178896119000,7.598119140625,-0.3915643095970154,-0.14607304334640503,0.09873101860284805
1772721178914715400,7.61671533203125,-0.39370235800743103,0.0732274129986763,0.1320231556892395
1772721178933312000,7.63531201171875,-0.31062474846839905,0.19509494304656982,0.12316560745239258
1772721178951908400,7.653908447265625,-0.235793799161911,0.24701844155788422,0.04711294546723366
1772721178970505000,7.6725048828125,-0.17104214429855347,0.2537379562854767,-0.028328854590654373
1772721178989101300,7.691101318359375,-0.1029307171702385,0.16668972373008728,-0.030772313475608826
1772721179007697700,7.70969775390625,0.007024944759905338,-0.026343543082475662,-0.03993528336286545
1772721179026294300,7.728294189453125,0.13194678723812103,-0.2612210512161255,-0.04848739132285118
1772721179044891000,7.746890869140625,0.2309068888425827,-0.49854201078414917,0.024510949850082397
1772721179063487200,7.7654873046875,0.24434591829776764,-0.5724566578865051,0.08559742569923401
1772721179082083800,7.784083740234375,0.2556469142436981,-0.6359865665435791,0.016569707542657852
1772721179100680200,7.80268017578125,0.1692095398902893,-0.6475930213928223,-0.06406444311141968
1772721179119276500,7.821276611328125,-0.005803215317428112,-0.6301833987236023,-0.01763872057199478
1772721179137873200,7.839873046875,-0.20219624042510986,-0.5364156365394592,0.03611737862229347
1772721179156469500,7.858469482421875,-0.3894262909889221,-0.2709949016571045,-0.014584396965801716
1772721179175066000,7.877066162109375,-0.5406153202056885,0.06498073786497116,-0.13217586278915405
1772721179193662500,7.895662353515625,-0.6148353815078735,0.3591121435165405,-0.3145190179347992
1772721179212258800,7.9142587890625,-0.6264418363571167,0.5661953091621399,-0.46540260314941406
1772721179230855200,7.932855224609375,-0.6071996092796326,0.6822596192359924,-0.5454258918762207
1772721179249451800,7.95145166015625,-0.6252201199531555,0.6614902019500732,-0.5167152285575867
1772721179268048100,7.970048095703125,-0.6743947267532349,0.6211731433868408,-0.4226420819759369
1772721179286644700,7.988644775390625,-0.7089085578918457,0.5817723274230957,-0.3197113573551178
1772721179305241000,8.007240966796875,-0.6969966888427734,0.4528798758983612,-0.22472187876701355
1772721179323837700,8.025837646484375,-0.6148353815078735,0.2531270980834961,-0.19570580124855042
1772721179342434000,8.04443408203125,-0.47983428835868835,0.08758273720741272,-0.23021966218948364
1772721179361030400,8.063030517578126,-0.3692677617073059,-0.0016035200096666813,-0.24671301245689392
1772721179379627000,8.081626953125,-0.3659079968929291,-0.07673988491296768,-0.2115882933139801
1772721179398223400,8.100223388671875,-0.4972439408302307,-0.11247547715902328,-0.10774127393960953
1772721179416819700,8.11881982421875,-0.6985238790512085,-0.06207913160324097,-0.04940368980169296
1772721179435416300,8.137416259765626,-0.8830050230026245,0.023136503994464874,-0.08055779337882996
1772721179454012700,8.1560126953125,-1.0241148471832275,0.14133884012699127,-0.18379394710063934
1772721179472609000,8.174609130859375,-1.1184934377670288,0.21922409534454346,-0.28641921281814575
1772721179491205600,8.19320556640625,-1.166751742362976,0.31665703654289246,-0.30291256308555603
1772721179509802000,8.211802001953124,-1.2079850435256958,0.3313177824020386,-0.19356778264045715
1772721179528398600,8.230398681640626,-1.2596031427383423,0.3099375069141388,-0.09063705801963806
1772721179546995000,8.248994873046875,-1.311832070350647,0.2528216540813446,-0.0319940410554409
1772721179565591300,8.26759130859375,-1.3637555837631226,0.17463096976280212,-0.04390590637922287
1772721179584188000,8.28618798828125,-1.3826924562454224,0.07964149862527847,-0.12331832945346832
1772721179602784300,8.3047841796875,-1.388495683670044,-0.02756527252495289,-0.19234605133533478
1772721179621380600,8.323380615234376,-1.3585633039474487,-0.06268999725580215,-0.1602756530046463
1772721179639977000,8.34197705078125,-1.334434151649475,-0.08712458610534668,-0.04024071618914604
1772721179658573600,8.360573486328125,-1.3564252853393555,-0.10422880202531815,0.11064288020133972
1772721179677170000,8.379169921875,-1.444389820098877,-0.1677587330341339,0.2193768173456192
1772721179695766500,8.3977666015625,-1.571755051612854,-0.25358524918556213,0.203799769282341
1772721179714363000,8.41636279296875,-1.7143919467926025,-0.21265730261802673,0.07887791097164154
1772721179732959200,8.434959228515625,-1.8423681259155273,-0.14576761424541473,-0.03168861195445061
1772721179751555600,8.4535556640625,-1.9162827730178833,-0.08345939964056015,-0.08452841639518738
1772721179770152200,8.472152099609374,-1.9999712705612183,-0.24197880923748016,-0.06039925664663315
1772721179788748500,8.49074853515625,-2.0720534324645996,-0.36201372742652893,-0.028634287416934967
1772721179807345000,8.509344970703125,-2.1083998680114746,-0.3165042996406555,0.00954476185142994
1772721179825941500,8.52794140625,-2.050673007965088,-0.26824599504470825,0.08651372790336609
1772721179844537900,8.546537841796875,-1.8228205442428589,-0.2755763828754425,0.13446660339832306
1772721179863134200,8.56513427734375,-1.6346741914749146,-0.38033968210220337,0.15554144978523254
1772721179881730800,8.583730712890626,-1.5974113941192627,-0.43226319551467896,0.1677587330341339
1772721179900327200,8.6023271484375,-1.674991250038147,-0.42798712849617004,0.10422880202531815
1772721179918923500,8.620923583984375,-1.8206825256347656,-0.3943895697593689,-0.025579962879419327
1772721179937519900,8.639519775390625,-1.9605704545974731,-0.3574322462081909,-0.17371466755867004
1772721179956116500,8.658116455078124,-2.0824379920959473,-0.33544111251831055,-0.20517420768737793
1772721179974712800,8.676712890625,-2.143218994140625,-0.31528258323669434,-0.11843141168355942
1772721179993309200,8.69530908203125,-2.143218994140625,-0.27282747626304626,-0.008170315995812416
1772721180011905800,8.71390576171875,-2.1050400733947754,-0.28473934531211853,0.04528035223484039
1772721180030502100,8.732502197265624,-2.0436480045318604,-0.31039565801620483,0.03733910992741585
1772721180049098500,8.751098388671876,-1.950491189956665,-0.3113119602203369,0.012904518283903599
1772721180067694800,8.76969482421875,-1.8420627117156982,-0.2551124095916748,-0.05917752534151077
1772721180086291200,8.788291259765625,-1.6869031190872192,-0.10209077596664429,-0.0683404952287674
1772721180104887800,8.8068876953125,-1.5051708221435547,0.01977674663066864,0.05780307948589325
1772721180123484200,8.825484130859374,-1.3655881881713867,0.16394083201885223,0.12530364096164703
1772721180142080500,8.84408056640625,-1.3286309242248535,0.3157407343387604,0.059024810791015625
1772721180160677000,8.862677001953125,-1.3753620386123657,0.4134790897369385,0.00923932995647192
1772721180179273500,8.8812734375,-1.3833032846450806,0.39820748567581177,-0.03932442143559456
1772721180197869800,8.899869873046875,-1.3002257347106934,0.27511823177337646,0.01718057133257389
1772721180216466200,8.918466064453124,-1.1853830814361572,0.04848739132285118,0.08315397053956985
1772721180235062800,8.937062744140626,-1.0919208526611328,-0.24106250703334808,0.13874267041683197
1772721180253659100,8.9556591796875,-1.08978271484375,-0.5700132250785828,0.1521816849708557
1772721180272255500,8.97425537109375,-1.1627811193466187,-0.803363561630249,0.17967060208320618
1772721180290851800,8.992851806640624,-1.278540015220642,-0.8989638686180115,0.22395829856395721
1772721180309448200,9.0114482421875,-1.3991857767105103,-0.8815542459487915,0.20044000446796417
1772721180328044800,9.030044921875,-1.4938697814941406,-0.7670170664787292,0.15187625586986542
1772721180346641200,9.04864111328125,-1.5320488214492798,-0.6561451554298401,0.09842558950185776
1772721180365237500,9.067237548828125,-1.5558725595474243,-0.5471057891845703,0.028787001967430115
1772721180383833900,9.085833740234374,-1.57297682762146,-0.3946950137615204,-0.04787652567028999
1772721180402430500,9.104430419921876,-1.5607595443725586,-0.19158247113227844,-0.007254019379615784
1772721180421026800,9.12302685546875,-1.526856541633606,-0.07704532146453857,0.08773545175790787
1772721180439623200,9.141623046875,-1.4672971963882446,-0.041615162044763565,0.13080142438411713
1772721180458219800,9.1602197265625,-1.416900873184204,-0.027259841561317444,0.09384410083293915
1772721180476816100,9.178816162109374,-1.3469568490982056,0.003894262947142124,0.026343543082475662
1772721180495412500,9.19741259765625,-1.184772253036499,0.04787652567028999,0.03214675933122635
1772721180514008800,9.2160087890625,-0.9660826325416565,0.027107125148177147,0.03917170315980911
1772721180532605200,9.234605224609375,-0.7553343176841736,-0.06482802331447601,0.02848157100379467
1772721180551201500,9.253201416015624,-0.6337721943855286,-0.16165009140968323,0.07368556410074234
1772721180569798000,9.2717978515625,-0.5965094566345215,-0.2199876755475998,0.11400263756513596
1772721180588394500,9.29039453125,-0.6331613659858704,-0.27282747626304626,0.12591449916362762
1772721180606990800,9.308990966796875,-0.7104357481002808,-0.28412848711013794,0.051389001309871674
1772721180625587200,9.327587158203125,-0.815199077129364,-0.20288346707820892,-0.07628174126148224
1772721180644183600,9.34618359375,-0.8988875150680542,-0.08315397053956985,-0.1660788655281067
1772721180662780200,9.3647802734375,-0.9447023868560791,0.013973532244563103,-0.18471023440361023
1772721180681376500,9.38337646484375,-0.9523382186889648,0.04482220485806465,-0.1346193253993988
1772721180699972900,9.401972900390625,-0.9361502528190613,0.0035888305865228176,-0.10163262486457825
1772721180718569200,9.4205693359375,-0.9071341753005981,-0.04405862092971802,-0.11537708342075348
1772721180737165600,9.43916552734375,-0.898276686668396,-0.1265253722667694,-0.14378230273723602
1772721180755762200,9.45776220703125,-0.8888082504272461,-0.18211406469345093,-0.17768529057502747
1772721180774358500,9.476358642578125,-0.8484911918640137,-0.19249875843524933,-0.19478951394557953
1772721180792955000,9.494954833984375,-0.776714563369751,-0.16103923320770264,-0.1657734364271164
1772721180811551200,9.51355126953125,-0.7290670871734619,-0.07246383279561996,-0.16271910071372986
1772721180830147600,9.532147705078126,-0.7284562587738037,0.04787652567028999,-0.23907721042633057
1772721180848744000,9.550743896484375,-0.7345649003982544,0.16455170512199402,-0.3545306324958801
1772721180867340300,9.56934033203125,-0.7202095985412598,0.22624903917312622,-0.42600181698799133
1772721180885937000,9.58793701171875,-0.6902772188186646,0.20547963678836823,-0.41989317536354065
1772721180904533200,9.606533203125,-0.6472112536430359,0.09705114364624023,-0.3658316433429718
1772721180923129600,9.625129638671876,-0.5849030017852783,-0.005574141163378954,-0.2787834107875824
1772721180941726000,9.643725830078125,-0.45478883385658264,-0.0862082913517952,-0.2519053518772125
1772721180960322300,9.662322265625,-0.3249800503253937,-0.16531528532505035,-0.32765260338783264
1772721180978918700,9.680918701171874,-0.20250166952610016,-0.22120940685272217,-0.4324159026145935
1772721180997515300,9.699515380859374,-0.16065743565559387,-0.1573740392923355,-0.4131736755371094
1772721181016111600,9.718111572265625,-0.08307760953903198,-0.04130972921848297,-0.45013099908828735
1772721181034708000,9.7367080078125,0.06902772188186646,0.09094249457120895,-0.6391936540603638
1772721181053304300,9.75530419921875,0.08888082206249237,-0.04802924394607544,-0.8123738169670105
1772721181071900700,9.773900634765624,-0.007941242307424545,0.25495967268943787,-0.677067220211029
1772721181090497000,9.7924970703125,-0.16035200655460358,0.3569740951061249,-0.4733438491821289
1772721181109093400,9.81109326171875,-0.2419024556875229,0.37835437059402466,-0.283975750207901
1772721181127690000,9.82968994140625,-0.3393353819847107,0.437302827835083,-0.17157664895057678
1772721181146286300,9.848286376953125,-0.3802633285522461,0.432110458612442,-0.15111267566680908
1772721181164882700,9.866882568359374,-0.32681265473365784,0.27572908997535706,-0.2115882933139801
1772721181183479000,9.88547900390625,-0.2162461280822754,0.16180281341075897,-0.2641226649284363
1772721181202075400,9.904075439453125,-0.09346231073141098,-0.03214675933122635,-0.28519749641418457
1772721181220671700,9.922671630859375,0.013744457624852657,-0.13324488699436188,-0.24579671025276184
1772721181239268000,9.94126806640625,0.001832594396546483,-0.09689842909574509,-0.1611919403076172
1772721181257864400,9.959864501953126,-0.1594357043504715,-0.11339177191257477,0.016875140368938446
1772721181276460800,9.978460693359375,-0.26450446248054504,-0.21113014221191406,0.2856556475162506
1772721181295057200,9.99705712890625,-0.24312418699264526,-0.30886849761009216,0.46769335865974426
1772721181313653500,10.015653564453125,-0.18661919236183167,-0.3067304790019989,0.5816196203231812
1772721181332249900,10.034249755859374,-0.1337793916463852,-0.36690065264701843,0.5742892622947693
1772721181350846200,10.05284619140625,-0.06627883017063141,-0.3791179656982422,0.3418551981449127
1772721181369442800,10.07144287109375,0.09957095980644226,-0.22884522378444672,0.12041672319173813
1772721181388039200,10.0900390625,0.09987638890743256,-0.22670719027519226,-0.21097742021083832
1772721181406635500,10.108635498046874,0.05589412897825241,-0.3369682729244232,-0.46204283833503723
1772721181425232000,10.12723193359375,0.03023780696094036,-0.2447277009487152,-0.3817141354084015
1772721181443828200,10.145828125,-0.09529490768909454,-0.030925029888749123,-0.28611379861831665
1772721181462424600,10.164424560546875,-0.21471896767616272,0.15294526517391205,-0.16332997381687164
1772721181481021000,10.18302099609375,-0.3335321843624115,0.19417864084243774,-0.04329504072666168
1772721181499617300,10.2016171875,-0.3698786199092865,-0.013515383005142212,0.050778135657310486
1772721181518213600,10.220213623046876,-0.33750277757644653,-0.1534034162759781,0.2813795804977417
1772721181536810000,10.23881005859375,-0.33200499415397644,-0.19188790023326874,0.5367210507392883
1772721181555406300,10.25740625,-0.3738492429256439,-0.168675035238266,0.6735547780990601
1772721181574002700,10.276002685546874,-0.471587598323822,-0.1421024203300476,0.6451495885848999
1772721181592599000,10.29459912109375,-0.5876519083976746,-0.1378263682126999,0.5135082006454468
1772721181611195400,10.3131953125,-0.6484329700469971,-0.04741837829351425,0.4392881393432617
1772721181629792000,10.3317919921875,-0.5500837564468384,-0.037949975579977036,0.31986406445503235
1772721181648388400,10.350388427734375,-0.36651885509490967,-0.04436405375599861,0.19616395235061646
1772721181666984700,10.368984619140624,-0.20250166952610016,-0.024205517023801804,0.10758855938911438
1772721181685581000,10.3875810546875,-0.03940077871084213,-0.05169443041086197,0.05719221383333206
1772721181704177400,10.406177490234375,0.06841685622930527,0.022220205515623093,-0.06131555140018463
1772721181722773800,10.424773681640625,0.1649334877729416,0.026190826669335365,-0.21952952444553375
1772721181741370000,10.4433701171875,0.2000582218170166,0.06406444311141968,-0.3105483949184418
1772721181759966500,10.461966552734374,0.16279546916484833,0.04696023091673851,-0.3560578227043152
1772721181778562800,10.480562744140625,0.16126830875873566,0.042684175074100494,-0.3545306324958801
1772721181797159200,10.4991591796875,0.18203771114349365,0.1291215419769287,-0.23021966218948364
1772721181815755500,10.517755615234375,0.14630211889743805,0.2222784161567688,-0.09155336022377014
1772721181834351900,10.536351806640624,-0.008552107028663158,0.16791145503520966,-0.09582941234111786
1772721181852948200,10.5549482421875,-0.16187916696071625,0.1556941568851471,-0.13156500458717346
1772721181871544600,10.573544677734375,-0.32100942730903625,0.14622575044631958,-0.21586434543132782
1772721181890141000,10.592140869140625,-0.48075059056282043,0.19998185336589813,-0.2677878439426422
1772721181908737300,10.6107373046875,-0.5885682106018066,0.20609050989151,-0.3264308571815491
1772721181927333600,10.629333740234374,-0.6334667801856995,0.2176969349384308,-0.42569640278816223
1772721181945930000,10.647929931640626,-0.6835576891899109,0.2674824297428131,-0.4956403970718384
1772721181964526300,10.6665263671875,-0.711962878704071,0.29680392146110535,-0.5350412130355835
1772721181983122700,10.685122802734375,-0.7192932963371277,0.32795801758766174,-0.4779253304004669
1772721182001719000,10.703718994140624,-0.7122683525085449,0.3762163519859314,-0.3649153411388397
1772721182020315400,10.7223154296875,-0.7877101302146912,0.42966702580451965,-0.2213621288537979
1772721182038911700,10.740911865234375,-0.8973603844642639,0.40462157130241394,-0.07108938694000244
1772721182057508000,10.759508056640625,-0.9523382186889648,0.25068363547325134,0.015042545273900032
1772721182076104400,10.7781044921875,-0.9489784240722656,0.15386156737804413,0.09353867173194885
1772721182094700800,10.79670068359375,-0.9111047983169556,0.19417864084243774,0.21693335473537445
1772721182113297200,10.815297119140626,-0.8646790981292725,0.17768529057502747,0.2300669401884079
1772721182131893500,10.8338935546875,-0.7932079434394836,0.0319940410554409,0.08559742569923401
1772721182150489900,10.85248974609375,-0.7061597108840942,-0.05658135190606117,-0.01611155830323696
1772721182169086200,10.871086181640624,-0.6258309483528137,-0.1527925580739975,-0.0628427118062973
1772721182187682600,10.8896826171875,-0.6148353815078735,-0.2502254843711853,-0.0836121141910553
1772721182206279000,10.90827880859375,-0.6209440231323242,-0.37087127566337585,-0.06711876392364502
1772721182224875300,10.926875244140625,-0.6487383842468262,-0.4713585376739502,-0.016416991129517555
1772721182243471600,10.9454716796875,-0.6884446144104004,-0.4768563210964203,0.09323323518037796
1772721182262068000,10.96406787109375,-0.759304940700531,-0.4704422354698181,0.15920662879943848
1772721182280664000,10.9826640625,-0.8738420605659485,-0.5507709383964539,0.12041672319173813
1772721182299260400,11.001260498046875,-1.0030399560928345,-0.5196168422698975,0.06421715766191483
1772721182317856800,11.019856689453125,-1.0494656562805176,-0.2960403561592102,0.009850194677710533
1772721182336453000,11.038453125,-1.0045671463012695,-0.050778135657310486,-0.07689260691404343
1772721182355049500,11.057049560546876,-0.9196569323539734,0.1401171088218689,-0.17340923845767975
1772721182373645800,11.075645751953125,-0.9135482907295227,0.3203222155570984,-0.23449571430683136
1772721182392242200,11.0942421875,-0.8549052476882935,0.5124391913414001,-0.1816559135913849
1772721182410838500,11.112838623046875,-0.7507528066635132,0.640415370464325,0.026038112118840218
1772721182429435000,11.131434814453126,-0.6621774435043335,0.6147590279579163,0.2502254843711853
1772721182448031200,11.15003125,-0.5528326034545898,0.6538543701171875,0.5000692009925842
1772721182466627600,11.168627685546875,-0.47983428835868835,0.5836049318313599,0.5913934707641602
1772721182485224000,11.187223876953125,-0.4404335021972656,0.3197113573551178,0.4759400188922882
1772721182503820300,11.2058203125,-0.3992001414299011,0.13553562760353088,0.16989676654338837
1772721182522416600,11.224416748046876,-0.34636032581329346,0.03657552972435951,0.10483966767787933
1772721182541012700,11.2430126953125,-0.23793183267116547,-0.05169443041086197,0.09384410083293915
