time,seconds_elapsed,z,y,x
1772796369861533400,0.075533447265625,0.12048866616487502,-0.05340666908212006,0.05080001198137179
1772796369871525600,0.085525634765625,0.0809276401489973,-0.056620333898998794,0.05012828673226759
1772796369881518600,0.0955185546875,0.08267536059916018,-0.05266286497749388,0.048284595094341784
1772796369891510500,0.105510498046875,0.08381342471837996,-0.042101467746309934,0.030699582836683836
1772796369901503500,0.11550341796875,0.05696048910617828,-0.05020034732148051,0.04238026642138138
1772796369911495400,0.125495361328125,0.048040685069561,-0.037401144568249584,0.05668558115493506
1772796369921487600,0.135487548828125,-0.0005611410140991211,-0.05596789787225425,0.019982520119752732
1772796369931480300,0.145480224609375,-0.035143209573626516,-0.07537614350169897,-0.012140821042889728
1772796369941472500,0.155472412109375,-0.05750584802925587,-0.0675784753628075,-0.04092982101789675
1772796369951465700,0.1654658203125,-0.07377893743813037,-0.0637101460294798,-0.036647193528944626
1772796369961457400,0.17545751953125,-0.07346271109580993,-0.05627331055961549,-0.020495383279025555
1772796369971450600,0.18545068359375,-0.08049918560385703,-0.045835758903808886,-0.0138597355236765
1772796369981442600,0.195442626953125,-0.07664426374137401,-0.0680125193985179,-0.009420976758096366
1772796369991434500,0.2054345703125,-0.044801849278807634,-0.07773428746778517,-0.0024281404623761773
1772796370001427500,0.215427490234375,-0.031654198414087294,-0.08107037308793515,-0.01024858668865636
1772796370011419600,0.225419677734375,-0.021036358287930487,-0.09760426885746419,-0.03164191432124935
1772796370021412600,0.23541259765625,-0.005014028769731521,-0.1391675746064633,-0.0662585884032771
1772796370031404500,0.245404541015625,-0.001558335357904434,-0.14049389130678028,-0.10485244988743216
1772796370041396700,0.255396728515625,0.001449029764533043,-0.1418705864874646,-0.10773452639607713
1772796370051389400,0.265389404296875,0.011788052949309348,-0.13824885232634843,-0.09288571590296923
1772796370061381600,0.275381591796875,0.015102876585721969,-0.14228271095231174,-0.08417981947851366
1772796370071374300,0.285374267578125,0.009561024549603461,-0.1389994514979422,-0.1102179133101832
1772796370081366500,0.295366455078125,0.035709611284732816,-0.1301401820095256,-0.1046926288163755
1772796370091358500,0.3053583984375,0.054338323909044264,-0.09450791027732193,-0.06922259844117798
1772796370101351400,0.315351318359375,0.039278117421269416,-0.08227266154978424,-0.033530102688027544
1772796370111343600,0.325343505859375,0.05505494774580001,-0.07544760130271315,-0.01778300078148022
1772796370121336600,0.335336669921875,0.05081482595801353,-0.07796250673308969,0.004977149091754109
1772796370131328500,0.34532861328125,0.08419277942478656,-0.0840957853237167,-0.017999557008454577
1772796370141320000,0.35531982421875,0.056256140229105946,-0.07381722362190485,-0.02121628143209964
1772796370151313200,0.365313232421875,0.04672141916453838,-0.05380359597783536,0.001257562313042581
1772796370161304800,0.375304931640625,0.01545534328520298,-0.03294723389931023,0.010231069298274815
1772796370171298000,0.385298095703125,0.03595803308784962,-0.04005341264270246,0.030615366018796338
1772796370181290000,0.3952900390625,0.05238952792882919,-0.07104319233130663,0.06367059947038069
1772796370191283000,0.405282958984375,0.0605932926505804,-0.09633815791178495,-0.022386311592161656
1772796370201275100,0.415275146484375,0.08681260653436183,-0.11355499444417655,-0.061305112448055296
1772796370211267000,0.42526708984375,0.0984603742301464,-0.11062635711375624,-0.05147944561289623
1772796370221260000,0.435260009765625,0.06396832204163073,-0.0937853681564331,-0.01652691803947091
1772796370231252000,0.445251953125,-0.007026537635922431,-0.08071063639745116,0.0347781939198263
1772796370241245000,0.455244873046875,-0.0901776990532875,-0.06674038057085126,0.026320207841834052
1772796370251236900,0.46523681640625,-0.11237199520468712,-0.04516195129547268,0.0067630552609916775
1772796370261229000,0.47522900390625,-0.10475567498207092,-0.024032654027082025,-0.016703964239964262
1772796370271222000,0.485221923828125,-0.08806289885640144,-0.03662986793480813,-0.004714141640858724
1772796370281214000,0.4952138671875,-0.03470248006880283,-0.05376819587089121,0.05677525046607479
1772796370291207200,0.505207275390625,-0.008108487653732298,-0.05830328201726079,0.09503072857502848
1772796370301198800,0.51519873046875,-0.003959551280736923,-0.07001735641490668,0.018508511177590115
1772796370311191000,0.52519091796875,-0.0005687397986650467,-0.06612440409697593,-0.020726168960751964
1772796370321184000,0.53518408203125,-0.0010457096606492995,-0.08180277901571244,-0.010691709079965948
1772796370331176000,0.545176025390625,-0.0062765960514545435,-0.08341675355099142,-0.02240207541687414
1772796370341169200,0.555169189453125,0.008138298270106314,-0.09118183459453284,0.004191341609461233
1772796370351161000,0.5651611328125,0.019595511829853057,-0.07266662881467491,-0.018448442420270293
1772796370361154000,0.575154052734375,-0.014742811101675033,-0.05976732668783515,-0.049470032886089754
1772796370371146000,0.58514599609375,-0.04178805441558361,-0.06202427530176937,-0.06648837857116013
1772796370381138200,0.59513818359375,-0.09030629386901855,-0.04600581824108958,-0.07328794818394817
1772796370391131000,0.605130859375,-0.13879530722796915,-0.0030805764891207216,-0.11362951185195706
1772796370401123000,0.615123046875,-0.10576514428555965,-0.01754745672624558,-0.0713127117213793
1772796370411116000,0.625115966796875,-0.02063011557459831,-0.05328983776941895,-0.05285850628060288
1772796370421108000,0.63510791015625,0.04088263000845909,-0.07555080594886093,-0.11253192587359807
1772796370431100200,0.64510009765625,0.06426584368348122,-0.09688698743358254,-0.15519582240879534
1772796370441092900,0.6550927734375,0.1026391212195158,-0.11191807742472737,-0.16657880168855188
1772796370451085000,0.6650849609375,0.12531155627667903,-0.11262209750823676,-0.14370890783052892
1772796370461078000,0.675078125,0.1254214463919401,-0.1473874867454171,-0.14708590998295692
1772796370471070000,0.685070068359375,0.12812486013174057,-0.17798600209411233,-0.13465574147151782
1772796370481063200,0.695063232421875,0.09075345311462879,-0.17941081073284149,-0.11725593132134526
1772796370491055000,0.70505517578125,0.04917407301366329,-0.17472889999430627,-0.1532983912896365
1772796370501047000,0.715047119140625,0.007584171518683433,-0.17883611611742525,-0.1591551727601327
1772796370511040000,0.7250400390625,-0.019480945539474485,-0.18026622198577968,-0.10605369716966524
1772796370521032200,0.7350322265625,0.011845336094498634,-0.1729733615638688,-0.12166200252687558
1772796370531025000,0.74502490234375,0.04935819740891456,-0.16008969539757817,-0.10387269073561764
1772796370541017000,0.75501708984375,0.05592530083954334,-0.13748174041137098,-0.0906336169940885
1772796370551009000,0.765009033203125,0.08437456573247909,-0.10289901426471769,-0.0635550057001179
1772796370561002000,0.775001953125,0.07848258508443832,-0.0886877527564764,-0.004680773660796694
1772796370570994000,0.784993896484375,0.07219955929219722,-0.08029697756264358,0.045012500921380705
1772796370580987000,0.79498681640625,0.044668578287959095,-0.045610169987007974,0.07283008944781032
1772796370590979000,0.80497900390625,0.010240238985419273,0.008764394279196858,0.07874859734317287
1772796370600971000,0.814970947265625,-0.04218436025679111,0.047914720602333545,0.10441282549430615
1772796370610964000,0.8249638671875,-0.13462591258883475,0.06619768852889538,0.12437381876884028
1772796370620956000,0.834955810546875,-0.15260580591559408,0.09626417936012148,0.12261659070481545
1772796370630949000,0.84494921875,-0.1988070005983114,0.09539126898311077,0.14214779599364846
1772796370640940800,0.85494091796875,-0.1717021360516548,0.05480225162636489,0.21537311813700943
1772796370650933000,0.86493310546875,-0.09463350941836833,0.040925921160914,0.1860502304810099
1772796370660926200,0.87492626953125,-0.05275777671933174,-0.020891250728815793,0.12804766670968382
1772796370670918000,0.88491796875,0.009009235885739326,-0.07005860174074768,0.0696415088398382
1772796370680911000,0.8949111328125,0.053256958413124084,-0.12083693161327391,0.04155698560606688
1772796370690903000,0.904903076171875,0.08955342967510223,-0.18084372961279005,0.027517004994524176
1772796370700896000,0.91489599609375,0.12827215964794159,-0.19096030568592248,0.051939756601024414
1772796370710888000,0.924887939453125,0.12588204964101313,-0.1950621880467981,0.06611858627754263
1772796370720880000,0.934880126953125,0.05033317992091178,-0.1565611559452489,0.038229941808898
1772796370730873000,0.944873046875,-0.06277998903989791,-0.14154635950177907,0.01662772751584416
1772796370740865000,0.954864990234375,-0.1500385857760906,-0.09717493752948939,-0.00510843019656022
1772796370750858000,0.96485791015625,-0.1813970161139965,-0.05758190894015133,-0.02882271958151832
1772796370760850000,0.974849853515625,-0.1403933900743723,-0.015011289312131701,-0.011788893199525773
1772796370770842000,0.984842041015625,-0.05964402910172939,-0.007339731770940125,0.02228655927842483
1772796370780834800,0.994834716796875,-0.014988310295343399,-0.03364931775406003,0.021589252063492312
1772796370790827000,1.004826904296875,0.025915362501144408,-0.03477525304406881,0.002646701416769065
1772796370800820200,1.0148203125,0.07477087108492851,-0.03643894847258925,-0.018748545319918774
1772796370810812000,1.02481201171875,0.06993570601344108,-0.03203684105612337,-0.06948526796535588
1772796370820804000,1.03480419921875,0.05933598606586456,0.0033002836544066667,-0.06989567083057481
1772796370830797000,1.044797119140625,0.06361760890781878,0.017893384087085722,-0.030805100454215424
1772796370840789000,1.0547890625,0.06989888113439083,0.03890764014106243,0.014376761118124705
1772796370850782000,1.064781982421875,0.03039163113236427,0.09221884949207305,0.02775203759310534
1772796370860774100,1.074774169921875,0.01302840839922428,0.06701590957660228,0.06612393373951782
1772796370870767000,1.08476708984375,0.022324060010910033,0.034384792421758174,0.16917846279293297
1772796370880759000,1.094759033203125,0.04601823933124542,0.035011180691793556,0.20347707476858048
1772796370890751200,1.104751220703125,0.057200727602839466,0.014599091782048344,0.17824556634575128
1772796370900744000,1.114743896484375,0.022342764711380005,0.013699476061202585,0.16390384685825554
1772796370910736100,1.124736083984375,-0.008187398108839988,0.012387845473363995,0.14801349142296238
1772796370920728800,1.134728759765625,-0.08695581439733505,0.011825206621922551,0.11551854960210621
1772796370930721000,1.144720947265625,-0.10459434694051742,0.010254632836952805,0.11907621468422003
1772796370940713000,1.154712890625,-0.09448562538027763,0.012837525469623506,0.1386904860134702
1772796370950706000,1.164705810546875,-0.04505319369137287,0.031383199452981354,0.18180031795157117
1772796370960698000,1.174697998046875,0.035842882275581356,0.049581594368629155,0.2135509076785296
1772796370970691000,1.184691162109375,0.09347031085789204,0.022229148269072175,0.23115360172335056
1772796370980683000,1.19468310546875,0.12602584202587605,0.02680299552325159,0.21979124510651454
1772796370990675000,1.204675048828125,0.1323059452086687,0.00950107452329248,0.17062446035016327
1772796371000668200,1.214668212890625,0.11796996134221553,-0.025961868523992595,0.11836942725488915
1772796371010659800,1.224659912109375,0.03658697864115238,-0.05388188537843525,0.07234636561805383
1772796371020653000,1.234653076171875,-0.0035176527321338653,-0.035275201922841365,0.054075412356271405
1772796371030645200,1.244645263671875,-0.06445639781951903,-0.02571246034018695,-0.004373048002051655
1772796371040638000,1.254637939453125,-0.13292729197740555,-0.006163162272237241,-0.0389244360122364
1772796371050630100,1.264630126953125,-0.18501345304548739,-0.004298281715810298,-0.03934860254132654
1772796371060622000,1.2746220703125,-0.19618834253251552,-0.004174618803523481,-0.06323689792796504
1772796371070615000,1.284614990234375,-0.21075053637027738,-0.012418313676863907,-0.08019364505233242
1772796371080607000,1.29460693359375,-0.12525544217526913,-0.046423203402943904,-0.09948014573194086
1772796371090600000,1.304599853515625,-0.06537468170821667,-0.09284403218571097,-0.12626519460654817
1772796371100592000,1.314592041015625,0.02369067218899727,-0.1189905730942264,-0.18444416525755075
1772796371110584000,1.324583984375,0.041843583995103836,-0.1374435272928327,-0.26163784304261206
1772796371120577000,1.334576904296875,0.05433364773392677,-0.14013568898625672,-0.29059381534866985
1772796371130569000,1.34456884765625,0.067155135384202,-0.15087317343670875,-0.263259416362457
1772796371140563200,1.354563232421875,0.09648410572111606,-0.11526523242816328,-0.20661329043507576
1772796371150555100,1.36455517578125,0.11373393120765686,-0.10436510476190596,-0.2135556569188833
1772796371160547300,1.37454736328125,0.14239011684954164,-0.10158563011121004,-0.2057140583067201
1772796371170540000,1.3845400390625,0.17031915726065636,-0.10347261290159075,-0.18922005615616216
1772796371180532200,1.3945322265625,0.19004267938435077,-0.1248900794615969,-0.18930451956922187
1772796371190525000,1.40452490234375,0.161319273725152,-0.11456782474853097,-0.1492200085353572
1772796371200517000,1.41451708984375,0.09400397934317588,-0.09624101768024265,-0.12704231645888647
1772796371210510300,1.42451025390625,0.018194997382164,-0.06821881909295917,-0.07303961771237663
1772796371220502000,1.434501953125,-0.024065350720286368,-0.014904614067263901,-0.07060509317498653
1772796371230494200,1.444494140625,-0.10253215371370315,0.019116240412928164,-0.057526735553657636
1772796371240487200,1.454487060546875,-0.09901274741590023,0.020498744279891252,0.007778808174794539
1772796371250479000,1.46447900390625,-0.09401450073719024,0.03242171218786388,0.02470689089368097
1772796371260472000,1.47447216796875,-0.11047463715076446,0.02688939516507089,0.050827210515551266
1772796371270464300,1.48446435546875,-0.08270692478120327,0.02446278907265514,0.06132665755958296
1772796371280456200,1.494456298828125,-0.04254617930650711,0.01639108976535499,0.04682590245231986
1772796371290449200,1.50444921875,-0.017205986344814298,-0.004128222378529608,0.025691161823831497
1772796371300441000,1.514441162109375,-0.022263269734382626,-0.029321919541619716,0.012149890265334397
1772796371310434000,1.52443408203125,-0.031387071910500525,-0.052599700080789624,-0.03821919208602048
1772796371320426200,1.53442626953125,-0.022878186762332914,-0.06785893627200275,-0.06938867572308517
1772796371330418200,1.544418212890625,0.02919745291173458,-0.0764550978448242,-0.1010022315995302
1772796371340411100,1.5544111328125,0.07789923223853111,-0.049055853461474175,-0.07390067325481213
1772796371350403000,1.564403076171875,0.1102595330953598,-0.035150077705830333,-0.05126764775943011
1772796371360396000,1.57439599609375,0.10906886200606822,-0.04287135614026338,-0.047907605874957515
1772796371370388000,1.584387939453125,0.1479249546229839,-0.04410232270732522,-0.04786610482078977
1772796371380380200,1.594380126953125,0.14238719424009322,-0.06712094085365533,-0.050701127317314965
1772796371390373000,1.604373046875,0.1006476551413536,-0.11508867028485983,-0.056389621282508594
1772796371400365000,1.614364990234375,0.08911796086728573,-0.15786716050989924,-0.08407698929170146
1772796371410358300,1.624358154296875,0.06066518884301185,-0.18157171509377656,-0.09719890292696655
1772796371420350000,1.634349853515625,0.06439560754299163,-0.18794724147506056,-0.09325766362105496
1772796371430343200,1.64434326171875,0.05958206978142261,-0.20583456114754078,-0.07550887563643045
1772796371440335000,1.654335205078125,0.023441665863990782,-0.19019973310958593,-0.03978608520971611
1772796371450327000,1.6643271484375,0.025562895801663398,-0.14134174030777066,0.0032813597582280634
1772796371460320300,1.6743203125,0.07255611764490603,-0.11393157267160713,0.04439920502835885
1772796371470312200,1.684312255859375,0.09849018484652042,-0.10415182733740656,0.04808784867953509
1772796371480305200,1.69430517578125,0.08422843526005744,-0.09121686937529593,0.08584653798118233
1772796371490297000,1.704297119140625,0.08692892639040946,-0.07690189176425337,0.0816864226270467
1772796371500289300,1.714289306640625,0.04867430679798126,-0.025410737447254358,0.10049178872620686
1772796371510282000,1.724281982421875,0.027791093245148658,0.007503726693615317,0.10867973482431843
1772796371520274200,1.734274169921875,0.018259294790029523,0.0229469411496073,0.16668251779135315
1772796371530267100,1.74426708984375,0.010185293927788735,0.02812474564630538,0.1940649937029928
1772796371540259000,1.754259033203125,0.007456745746731758,0.01627491603977978,0.203680342255719
1772796371550251300,1.764251220703125,-0.0022165070056915284,0.037542964191734786,0.19965625610509885
1772796371560244000,1.774243896484375,-0.03079085958302021,0.0497560741527006,0.20949118395894764
1772796371570236200,1.784236083984375,-0.0708937373906374,0.029387787852063772,0.23108906685346736
1772796371580229000,1.79422900390625,-0.09092530255019664,0.02057575503885746,0.2476130074845627
1772796371590221000,1.804220947265625,-0.08489011403918266,-0.002459521981328726,0.2338516999672167
1772796371600214300,1.81421435546875,-0.0467944844007492,-0.010039309585839509,0.210641230776906
1772796371610206200,1.824206298828125,-0.009434183299541472,-0.008863434206880629,0.20505760369198395
1772796371620198100,1.8341982421875,0.043784196668863296,-0.011786628177203237,0.21110848296247423
1772796371630191000,1.844191162109375,0.07035480820834636,-0.044322541329264636,0.2039340612884611
1772796371640183300,1.854183349609375,0.020582184779644012,-0.09808686474263667,0.12814371096268296
1772796371650176000,1.864176025390625,-0.05153904857933521,-0.1414202854366973,0.05366042464748025
1772796371660168200,1.874168212890625,-0.11161270126998424,-0.1722016465390101,-0.03217023991113528
1772796371670160100,1.88416015625,-0.17670739699304103,-0.17510953334234655,-0.07839103434346616
1772796371680153000,1.894153076171875,-0.2412666706651449,-0.19537245957236735,-0.053266164632886644
1772796371690145300,1.904145263671875,-0.2831160998791456,-0.19737795417588203,-0.0391686656974256
1772796371700138000,1.914137939453125,-0.30030630413293835,-0.1520070363048464,-0.05183174791559577
1772796371710130200,1.924130126953125,-0.2630605693221092,-0.13387776110265404,-0.0832664766264148
1772796371720122000,1.9341220703125,-0.1806079115629196,-0.10590214160345494,-0.09222548016225919
1772796371730115000,1.944114990234375,-0.08765256448984146,-0.1294105890933424,-0.09911933132922277
1772796371740107000,1.95410693359375,-0.009324877706170081,-0.1372900172315538,-0.12399864704720676
1772796371750100200,1.964100341796875,0.06170213067531585,-0.12781897252034397,-0.1688418512497097
1772796371760092200,1.974092041015625,0.12214286311268806,-0.12311371743883937,-0.2445543505663052
1772796371770084000,1.984083984375,0.18066577922999857,-0.13335804807748644,-0.3057369143469259
1772796371780077300,1.994077392578125,0.1621259139329195,-0.11406396687962114,-0.3045119939281605
1772796371790069000,2.004069091796875,0.1298135438710451,-0.06613116263132542,-0.2614152132678777
1772796371800062200,2.014062255859375,0.1270212828040123,-0.03620064620468765,-0.24284509896300732
1772796371810054100,2.02405419921875,0.1620300523430109,-0.017410970865003764,-0.2067419217834249
1772796371820047000,2.034047119140625,0.1588186890810728,-0.013394794026203452,-0.1827978228226304
1772796371830039300,2.044039306640625,0.14820201799869537,-0.01362761640138924,-0.14749677407247944
1772796371840031200,2.05403125,0.15173136116862296,-0.023677155120298266,-0.12551091477368026
1772796371850024200,2.064024169921875,0.14217968896925448,-0.03693451343718916,-0.0718918633162044
1772796371860016000,2.07401611328125,0.03785539114177227,-0.025985030203871426,-0.02959672702816315
1772796371870009000,2.084009033203125,-0.051185997357964516,-0.07252714727874846,0.030787443783227352
1772796371880001000,2.0940009765625,-0.07721651067137718,-0.052363918563537296,0.07241941258795559
1772796371889993200,2.1039931640625,-0.09598667759299277,-0.03231624251939356,0.08420383967491797
1772796371899986000,2.11398583984375,-0.14014029209613799,-0.026754772467352448,0.16843703330848364
1772796371909978000,2.12397802734375,-0.1514940452814102,0.04181468669418245,0.19538718221746385
1772796371919971300,2.133971435546875,-0.14741408249139784,0.08773629725053905,0.21517218873742966
1772796371929963000,2.143962890625,-0.15092822809219358,0.10462499780710786,0.1942905460871756
1772796371939955200,2.153955078125,-0.12327040583789348,0.07807922844793647,0.1755863936064765
1772796371949948200,2.1639482421875,-0.07324059277772903,0.07619761595241725,0.11523605199945158
1772796371959940000,2.173940185546875,0.013420038065314293,0.039758302153646945,0.0654268868194893
1772796371969933000,2.18393310546875,0.0921603973031044,0.0023993162266910074,0.019373338712844995
1772796371979925200,2.19392529296875,0.14070844737291335,-0.031344182616844775,-0.008485988329770043
1772796371989917000,2.2039169921875,0.1451759481757879,-0.05968940261341631,-0.020953986367257312
1772796371999910100,2.21391015625,0.1185772795855999,-0.07124247776307165,-0.020520545119745656
1772796372009902300,2.22390234375,0.1068301431685686,-0.12062054891623555,0.007929085099371149
1772796372019895000,2.23389501953125,0.060957449787855146,-0.1231092604594305,0.003143147730780765
1772796372029887200,2.24388720703125,-0.0180208098590374,-0.13590060869976878,-0.03424647079645656
1772796372039880000,2.2538798828125,-0.0671247402459383,-0.1120249718653038,-0.03768514000824652
1772796372049872100,2.2638720703125,-0.06866729351282119,-0.10741261923164129,-0.06292970884204842
1772796372059864000,2.273864013671875,-0.026360768181085584,-0.08765245489198714,-0.09989712903499602
1772796372069857000,2.28385693359375,0.028086861321330068,-0.08512574942596256,-0.12119590111877769
1772796372079849200,2.29384912109375,0.040974399945139885,-0.10344842830840498,-0.20318536181300878
1772796372089842200,2.30384228515625,0.04298164811432361,-0.09028616439644246,-0.23833580484502015
1772796372099834000,2.313834228515625,0.013894085317850111,-0.08758220266737043,-0.26470908544780686
1772796372109826000,2.323825927734375,0.00023790040910243987,-0.06317326267380267,-0.24831370309982448
1772796372119819300,2.3338193359375,-0.018790040665864944,-0.02513725426811725,-0.17051343772374092
1772796372129811000,2.34381103515625,0.012456161469221114,-0.011337276974506675,-0.15821637580636888
1772796372139803100,2.35380322265625,0.006727846950292587,-0.022567988301999867,-0.2061710813592188
1772796372149795300,2.36379541015625,-0.01861643766462803,-0.026426271165348587,-0.2427062567478977
1772796372159787300,2.373787353515625,-0.09890577991008757,-0.04081124527268112,-0.25228834235183895
1772796372169780200,2.3837802734375,-0.18553367752730845,-0.05877020540926605,-0.28083047315999865
1772796372179772400,2.3937724609375,-0.19633213491737841,-0.06120141461156308,-0.25126942936656993
1772796372189765000,2.40376513671875,-0.16989304080307482,-0.048674489461071786,-0.23922648834073915
1772796372199757300,2.41375732421875,-0.11008826818168163,-0.036613026397861535,-0.20381808849228544
1772796372209749200,2.423749267578125,-0.03651858958005905,-0.03914137583170086,-0.1776603503363207
1772796372219742200,2.4337421875,0.04693886130750179,-0.020465609195269643,-0.1374149679186288
1772796372229734100,2.443734130859375,0.11244622948467731,-0.02199040760975331,-0.10280717126280069
1772796372239727400,2.453727294921875,0.1046434467792511,-0.027963636800460517,-0.09301942528523505
1772796372249719300,2.46371923828125,0.1381751295030117,-0.044423773214034734,-0.11971959975482896
1772796372259712300,2.473712158203125,0.16922142515182495,-0.014024141438305377,-0.10449278626218438
1772796372269704400,2.483704345703125,0.21003800418674945,0.0022459888285025955,-0.073064870884642
1772796372279696100,2.493696044921875,0.2167535761773586,-0.011828275361843407,-0.026240123776369726
1772796372289689300,2.503689453125,0.19339432789981365,-0.024842764833569526,-0.010878874815674499
1772796372299681300,2.513681396484375,0.17167057186961174,0.002117357480153441,0.019613022370368705
1772796372309674200,2.52367431640625,0.15937164678871632,0.004480689078010618,0.01987216421361081
1772796372319666400,2.53366650390625,0.11249825193285941,0.010959895029477775,0.03440755224283784
1772796372329658400,2.543658447265625,0.08491057230532169,0.007744330516457557,0.047694680076907386
1772796372339651300,2.5536513671875,0.06465630430579185,-0.009999781293049454,0.038476002691569734
1772796372349643300,2.563643310546875,0.05160334598720073,-0.037408999081142244,0.0076797636805335055
1772796372359636200,2.57363623046875,0.00564063623547554,-0.026972726066969332,-0.0231561497537652
1772796372369628200,2.583628173828125,-0.027605215284228324,-0.05080152808502316,-0.03964155303933657
1772796372379620400,2.593620361328125,-0.04874269585907459,-0.0622438363365829,-0.019727152552618643
1772796372389613000,2.603613037109375,-0.03383329601883888,-0.08910648962520062,-0.04383976278100162
1772796372399605200,2.613605224609375,-0.032409985217452045,-0.10563326153419911,-0.06390063623343593
1772796372409598500,2.623598388671875,-0.015440730237960814,-0.09657708123419433,-0.09206549469442106
1772796372419590100,2.633590087890625,-0.014493804776668548,-0.10601499086078256,-0.1248435734387487
1772796372429582300,2.643582275390625,0.012659575086832046,-0.14422865738831459,-0.15501885840669274
1772796372439575300,2.6535751953125,0.06527998916208744,-0.16119875261802225,-0.176493900372833
1772796372449567200,2.663567138671875,0.09817220493853092,-0.19399740835949777,-0.17035243847575038
1772796372459560200,2.673560302734375,0.15683482178747654,-0.1900605073019862,-0.14186932611213995
1772796372469552400,2.683552490234375,0.22316987296044824,-0.2025118829982355,-0.1383739217444323
1772796372479545300,2.69354541015625,0.22863690619468688,-0.197529400144238,-0.12147973216199315
1772796372489537300,2.703537353515625,0.16661621108949184,-0.17771898518837986,-0.09835950767155736
1772796372499529500,2.713529541015625,0.08529051153361797,-0.1085528753079474,-0.07149942079936154
1772796372509522200,2.723522216796875,0.01830605654120445,-0.050197625641431654,-0.07254972443673759
1772796372519514400,2.733514404296875,-0.042861236605048175,-0.05522360057728365,-0.10700726243429817
1772796372529507000,2.743507080078125,-0.06633563569486141,-0.060040462807100264,-0.11752574297236278
1772796372539499300,2.753499267578125,-0.09296996012032031,-0.053891657853778446,-0.12434371589152142
1772796372549491200,2.7634912109375,-0.10749474455714225,-0.0720185036368668,-0.11723176499446854
1772796372559484200,2.773484130859375,-0.12232698750793933,-0.08158360157338902,-0.1188727006019093
1772796372569476400,2.783476318359375,-0.10213877048194407,-0.07312133204592391,-0.16068753342656417
1772796372579469300,2.79346923828125,-0.12759119164645671,-0.09796276343893259,-0.20446153749497606
1772796372589461200,2.803461181640625,-0.15186112502813337,-0.11467468265648931,-0.1708750741103664
1772796372599453200,2.813453125,-0.15864976225495336,-0.1300221816530451,-0.12388145040832459
1772796372609446400,2.8234462890625,-0.1490150879472494,-0.12664517950061707,-0.10364758587600663
1772796372619438000,2.83343798828125,-0.09736381116509436,-0.12588846111549062,-0.0658614879776258
1772796372629431300,2.843431396484375,-0.05695873554050922,-0.1297901812617667,-0.07430276951598934
1772796372639423500,2.853423583984375,-0.028088030365109443,-0.1600686343432404,-0.06730067220157944
1772796372649415200,2.863415283203125,-0.04456920956671238,-0.16502499637529253,-0.0683732835688861
1772796372659408400,2.873408447265625,-0.037270869252085684,-0.19210078095793723,-0.08565711635630577
1772796372669400300,2.883400390625,-0.06336100379824638,-0.20000590979298574,-0.05490967578990385
1772796372679393300,2.893393310546875,-0.07495674904584884,-0.18859518398977815,-0.0509999184676446
1772796372689385200,2.90338525390625,-0.07534428705871105,-0.1911567415734753,-0.036629781169840135
1772796372699378200,2.913378173828125,-0.05149930109083652,-0.1683560952930711,-0.038075317502766846
1772796372709370400,2.923370361328125,-0.011640753433108329,-0.13317322956249117,-0.04193840897197369
1772796372719362300,2.9333623046875,0.04005962318778038,-0.13152772737778723,-0.03448690793922869
1772796372729355300,2.943355224609375,0.07127776827216148,-0.1225852731179446,-0.05089016991627868
1772796372739347200,2.95334716796875,0.08336275834143161,-0.12700245023937895,-0.051039981049974446
1772796372749340400,2.96334033203125,0.07317045015096664,-0.12711635894263162,-0.06637889944785275
1772796372759332000,2.97333203125,0.024825813698768615,-0.09609364509880543,-0.07138478601032403
1772796372769324300,2.98332421875,-0.03969020535349846,-0.06589207491213456,-0.08281321643358096
1772796372779317500,2.9933173828125,-0.05528700293600559,-0.06263354804022238,-0.1170040206531994
1772796372789309200,3.00330908203125,0.016375380739569664,-0.06327935339678079,-0.11454459913657046
1772796372799302400,3.013302490234375,0.052311786517500874,-0.05517798960357904,-0.12024541372722014
1772796372809294300,3.02329443359375,0.03275485313236713,-0.01474387054760009,-0.13374770498219876
1772796372819286300,3.033286376953125,0.04284370094835758,-0.03370976097071543,-0.10814713491811416
1772796372829279200,3.043279296875,0.06400280883312225,-0.04496063830340281,-0.07378723947559483
1772796372839271400,3.053271484375,0.0845569365620613,-0.07140172344539314,-0.03865893521015532
1772796372849264400,3.063264404296875,0.08878653695583343,-0.022449841815046966,0.0028805261556641196
1772796372859256300,3.07325634765625,0.10108663108050822,0.001809515373688191,0.012654910328157711
1772796372869248300,3.083248291015625,0.13822481386363505,-0.020479400258604435,0.04084446255569346
1772796372879241200,3.0932412109375,0.17882395075559615,-0.02732367666279897,0.0357040514769149
1772796372889233400,3.1032333984375,0.18144962308406828,-0.03641962271761149,0.03164643066616263
1772796372899226000,3.11322607421875,0.1673497860610485,-0.0005932166527956724,0.03499268377058906
1772796372909218300,3.12321826171875,0.1598679058730602,0.01585594170903787,0.05324774306020699
1772796372919210200,3.133210205078125,0.14089023368060588,0.024503449876606465,0.07212017847963142
1772796372929203200,3.143203125,0.09275310249924659,0.04521731647821143,0.06130780672864057
1772796372939195100,3.153195068359375,0.06422784976065159,0.07790584464240818,0.08048301992034539
1772796372949188400,3.163188232421875,0.03764262517392635,0.11797661027871072,0.12686604657652786
1772796372959180300,3.17318017578125,-0.009465162959694861,0.12527690508840605,0.14064609532696193
1772796372969172200,3.183172119140625,-0.04433832342028617,0.14219187259739263,0.16109505478153005
1772796372979165400,3.19316552734375,-0.02043839239478111,0.18516683524260297,0.22715229366011916
1772796372989157000,3.2031572265625,0.007039397117495536,0.2137065183653496,0.3180107415191829
1772796372999150300,3.213150390625,0.007124737313389778,0.18243892638236284,0.34704178835544736
1772796373009142300,3.223142333984375,-0.03231470814943314,0.15595286958748475,0.32836404895763843
1772796373019135200,3.23313525390625,-0.06878653597831726,0.10413241025088354,0.28072352392049504
1772796373029127400,3.24312744140625,-0.07160685409605502,0.04811053543537855,0.1687382630110718
1772796373039119400,3.253119384765625,-0.07548691039979458,-0.01825931305633858,0.1304154644201044
1772796373049112300,3.2631123046875,-0.04151216008365154,-0.07938811908941716,0.08925696747917682
1772796373059104300,3.273104248046875,0.0271878666549921,-0.07513407837413251,0.04269270707115065
1772796373069097200,3.28309716796875,0.033493688800930975,-0.09162149552027694,-0.0198328847992816
1772796373079089200,3.293089111328125,-0.03353928150832653,-0.11095573519859463,-0.06200624645473435
1772796373089081300,3.303081298828125,-0.15178805979192256,-0.08821635411875323,-0.08128050870727747
1772796373099074300,3.31307421875,-0.23446225134730336,-0.07686058250633068,-0.12707664798675103
1772796373109066200,3.323066162109375,-0.2342442246824503,-0.09868357939361594,-0.1886427129259333
1772796373119059200,3.33305908203125,-0.18686229578256605,-0.10362606816394254,-0.2701485548216849
1772796373129051100,3.343051025390625,-0.08346271158456801,-0.16626538835782556,-0.29904103343747557
1772796373139043000,3.35304296875,0.021188918501138687,-0.221477481160406,-0.27844304830050093
1772796373149036300,3.363036376953125,0.12289864991605282,-0.2767858374116942,-0.1926703244742006
1772796373159028200,3.3730283203125,0.20025603036284445,-0.3052859922416508,-0.10411700261919758
1772796373169021200,3.383021240234375,0.23992519292831418,-0.290139148650039,-0.03294231569559779
1772796373179013400,3.393013427734375,0.20267945811748503,-0.25349437540704384,0.07560560487601906
1772796373189005000,3.403005126953125,0.11468553284406661,-0.20168093033311887,0.12769421362951397
1772796373198998300,3.412998291015625,-0.012098434072732926,-0.1458410153552424,0.1772398599019274
1772796373208990200,3.422990234375,-0.11317805089056492,-0.07335145100736991,0.16040937407230957
1772796373218983200,3.432983154296875,-0.17133973248004913,-0.012974842447927222,0.1777275886199437
1772796373228975400,3.442975341796875,-0.16906418876349924,-0.0015976901207584886,0.18304743193583561
1772796373238968000,3.452968017578125,-0.10409691881239413,0.016014986461959778,0.16044576055994256
1772796373248960300,3.462960205078125,-0.013687749090790747,0.00870406066039577,0.12360966599592939
1772796373258952200,3.4729521484375,0.05353285274505615,0.016037572753103448,0.11022453484721481
1772796373268945200,3.482945068359375,0.05985445698201656,-0.018766531926114112,0.13048671215856447
1772796373278937000,3.49293701171875,0.017691724035143852,-0.03906118216838222,0.15731250403551383
1772796373288930300,3.502930419921875,-0.01070785649716854,-0.058990259634423996,0.2034530363058671
1772796373298922200,3.512922119140625,-0.04269990856349468,-0.08727448842506855,0.23409560999199747
1772796373308914200,3.5229140625,-0.11988485505282878,-0.11033069863542913,0.2558844854139723
1772796373318907100,3.5329072265625,-0.1958791304528713,-0.13111136512923985,0.22518274715282022
1772796373328899000,3.542899169921875,-0.2482429394185543,-0.16165486235506832,0.1356998802295886
1772796373338892300,3.552892333984375,-0.27653087626993655,-0.17317268352825194,0.07130516773574054
1772796373348884200,3.56288427734375,-0.259493232229352,-0.2039697719226591,0.00012197584739915327
1772796373358876200,3.572876220703125,-0.20894377920925616,-0.21322870825314894,-0.0429384437268367
1772796373368869000,3.582869140625,-0.1344499715000391,-0.18728475897833705,-0.08115726592009886
1772796373378861300,3.592861328125,-0.06907528979182243,-0.15290071547525003,-0.09000154790193773
1772796373388854300,3.602854248046875,-0.04768237315118313,-0.15758772251401096,-0.06645663629260379
1772796373398846200,3.61284619140625,-0.06952946330010891,-0.13296524936761706,-0.05029580248601269
1772796373408838400,3.62283837890625,-0.031226328390836715,-0.08348008284447714,-0.03997706403743941
1772796373418831000,3.6328310546875,-0.014329554125666617,-0.07509424868724308,-0.00284618891957798
1772796373428823300,3.6428232421875,-0.012553776624798774,-0.06141607114239595,0.008501188182190526
1772796373438816000,3.65281591796875,-0.018870704686641693,-0.0286093462588964,0.009694669999787584
1772796373448808200,3.66280810546875,0.04004033396542072,0.007818902723165228,0.007575198194361291
1772796373458800000,3.672800048828125,0.09863748436272143,0.03379592315051704,-0.021814621784584595
1772796373468793000,3.68279296875,0.17398644759654996,0.030490314867021515,-0.09933012453569098
1772796373478785300,3.692785400390625,0.24799159500598905,-0.007750148335890844,-0.10656398477936163
1772796373488778200,3.7027783203125,0.29911387947797774,-0.046434227120457215,-0.10802293314971029
1772796373498770200,3.712770263671875,0.32497137431204315,-0.09835450270287692,-0.09571874737180769
1772796373508763100,3.72276318359375,0.2848731726795435,-0.10246664159628562,-0.0980361026697792
1772796373518755000,3.732755126953125,0.2121837840437889,-0.1192691069078166,-0.08868983511570841
1772796373528747000,3.7427470703125,0.12319967868924141,-0.15930102923791856,-0.08151340414769948
1772796373538740200,3.752740234375,0.04843815995454788,-0.19962038107411934,-0.08505358837204985
1772796373548732200,3.762732177734375,-0.017491233026981353,-0.23453042121268808,-0.14093930611987598
1772796373558725000,3.77272509765625,-0.09733984576761721,-0.26005214475374666,-0.17071739933062344
1772796373568717300,3.78271728515625,-0.18781798907220362,-0.31347737240586426,-0.11548500352553091
1772796373578709200,3.792709228515625,-0.2741243996500969,-0.30570429071895777,-0.017786626643827182
1772796373588702200,3.8027021484375,-0.3279939370036125,-0.24109387138150631,-0.0029495111550902945
1772796373598694100,3.812694091796875,-0.2846282580077648,-0.21174941121451554,0.030532208646833894
1772796373608687000,3.82268701171875,-0.19354221193790436,-0.23182556443447247,0.06067246340059209
1772796373618679300,3.83267919921875,-0.09302139804661273,-0.2361909200371243,0.10870614790720864
1772796373628671200,3.842671142578125,-0.05367255347669124,-0.21297814929187298,0.15054547585230318
1772796373638664200,3.852664306640625,-0.0710153179436922,-0.18998777085933832,0.151275287964195
1772796373648656100,3.86265625,-0.11769406701028347,-0.09539263895628973,0.12962436884134076
1772796373658649000,3.872649169921875,-0.13716156854629516,-0.07993682988020591,0.10217462724661454
1772796373668641000,3.88264111328125,-0.09110358172655104,-0.09599564635073765,0.08431992206894792
1772796373678633200,3.89263330078125,-0.02111176161170006,-0.08198838298199698,0.043068828640854914
1772796373688626200,3.902626220703125,0.0370522580653429,-0.019805976242758334,0.04266252656201832
1772796373698618000,3.9126181640625,0.08234627477526664,0.014538054910348727,0.045746838511340315
1772796373708611300,3.922611328125,0.11013561445474623,0.028208323143376037,0.03265131055950187
1772796373718603000,3.93260302734375,0.1063642792224884,0.031878225561464205,-0.0019599018961191177
1772796373728596200,3.94259619140625,0.07477437821626663,0.0018877591085154563,-0.01709021447803825
1772796373738588200,3.952588134765625,0.06803717891573906,-0.006750743768690153,-0.011554143728734924
1772796373748580000,3.962580078125,0.0654950932174921,0.01446955625140108,0.016993320841668172
1772796373758573300,3.9725732421875,0.04648936397433281,0.03494837198811583,0.03287979468628764
1772796373768565200,3.982565185546875,0.011769348248839377,0.06359000851484015,0.0016283661035238763
1772796373778558200,3.99255810546875,0.018193828338384628,0.06641986164590344,-0.029845495891151947
1772796373788550100,4.002550048828125,0.038377369189262385,0.04944351020534522,-0.04030498995070811
1772796373798542300,4.012542236328125,0.057062780436873434,0.02421940877083689,-0.05965029444573447
1772796373808535000,4.02253515625,0.07215455110669136,-0.009430128178931772,-0.09701711661927402
1772796373818527200,4.03252734375,0.11403086832761763,-0.0447073941946961,-0.10155895216683856
1772796373828520200,4.042520263671875,0.16817922262251375,-0.0785991972014308,-0.07283981169080361
1772796373838512000,4.05251220703125,0.2272761392354965,-0.10119457583385519,-0.052428974023228506
1772796373848504000,4.062504150390625,0.26215222230553625,-0.10921493767956271,-0.02487976324255578
1772796373858497000,4.0724970703125,0.2701198401838541,-0.09023968577305785,0.05716043669164646
1772796373868489200,4.0824892578125,0.21182313403785227,-0.07539092094572261,0.12583844796130433
1772796373878482200,4.092482177734375,0.13737667260169983,-0.05790662911618128,0.1515037538246717
1772796373888474000,4.10247412109375,0.02027647983133793,-0.06004968729317188,0.14821980025055817
1772796373898466000,4.112466064453125,-0.11211012939810752,-0.040144022668758404,0.1697791503661312
1772796373908459300,4.122459228515625,-0.16178396862745284,-0.046547459970274936,0.11766691414187662
1772796373918451000,4.132450927734375,-0.1327764853298664,-0.055329225509380915,0.020529340347554534
1772796373928444200,4.142444091796875,-0.06383212844133376,-0.08004733191682026,-0.05764381346153095
1772796373938436400,4.152436279296875,0.010346621969342232,-0.14921149643533863,-0.10723040366568602
1772796373948429000,4.162428955078125,0.07944763072431087,-0.1745373594775796,-0.12378779904181136
1772796373958421200,4.172421142578125,0.12328151175379752,-0.17667923034448177,-0.061107361386250704
1772796373968413200,4.1824130859375,0.1493289762020111,-0.1593243370482698,-0.02110069907828001
1772796373978406100,4.19240625,0.1099976672887802,-0.142136023357464,-0.000341379049886018
1772796373988398000,4.202398193359375,0.04956862528920173,-0.08845965222218073,0.019236284312733914
1772796373998391000,4.21239111328125,0.01652151121199131,-0.08671615128940902,0.00001536881577922031
1772796374008383200,4.22238330078125,0.0038157588958740232,-0.10225696263466962,-0.03884939801464789
1772796374018375200,4.232375244140625,0.03509352521300316,-0.12055444314377382,-0.06280171224793885
1772796374028368100,4.2423681640625,0.05364741903543472,-0.13897160450979135,-0.0863352256804239
1772796374038360000,4.252360107421875,0.09269874196350573,-0.14429491842440328,-0.10270393921718932
1772796374048353300,4.262353271484375,0.13294658119976518,-0.12504779990711248,-0.05928632910470478
1772796374058345000,4.272344970703125,0.17887480415999887,-0.07078085160069167,0.02712387520780321
1772796374068337200,4.282337158203125,0.19487024567127226,-0.01664879998662509,0.10121844989978708
1772796374078330400,4.292330322265625,0.2618845112800598,0.01914369467543438,0.11102104638661257
1772796374088322000,4.302322021484375,0.31318156779706474,0.010090738378977402,0.06216777542568743
1772796374098315300,4.312315185546875,0.31718963439464565,-0.05719691907740198,0.022202495440875644
1772796374108307200,4.32230712890625,0.3093850981235504,-0.07478795008389279,0.020204964948107952
1772796374118299100,4.332299072265625,0.294415492528677,-0.0324045966562815,0.0644787740481086
1772796374128292000,4.3422919921875,0.267044670522213,-0.03508721420322545,0.07007778136525303
1772796374138284300,4.3522841796875,0.19913783998787402,-0.05252735636378638,0.049914899709913876
1772796374148277200,4.36227734375,0.1382709910929203,-0.05954813097920268,0.019302371818886603
1772796374158269400,4.37226953125,0.030569910308718678,-0.04527841728199273,-0.007900778599383193
1772796374168261400,4.382261474609375,-0.0012719196319580077,-0.05237014737492427,-0.021504562604858075
1772796374178254300,4.39225439453125,0.0015916531056165695,-0.04623064910606481,-0.0398846136807464
1772796374188246300,4.402246337890625,0.00039922845065593716,-0.058515910987788806,-0.07684698323924094
1772796374198239200,4.4122392578125,0.01878945614397526,-0.07589625838566572,-0.12587763832737692
1772796374208231200,4.422231201171875,0.05496726946234703,-0.09553060438856482,-0.19054273786097764
1772796374218223400,4.432223388671875,0.08035890035033226,-0.15669048141334205,-0.254064887037687
1772796374228216300,4.44221630859375,0.12086568278372287,-0.18296145241912454,-0.2564115962943062
1772796374238208300,4.452208251953125,0.15615443830788134,-0.19338724057190118,-0.2464949084411375
1772796374248201500,4.462201416015625,0.2009036806166172,-0.20907589942263438,-0.22917123226709663
1772796374258193200,4.472193115234375,0.2290893261373043,-0.23020742518072945,-0.2666396516515873
1772796374268186400,4.482186279296875,0.15855390066504477,-0.22438657354013994,-0.3152157405057922
1772796374278178300,4.49217822265625,0.04942541742622852,-0.23612751767840234,-0.27483143367459995
1772796374288170200,4.502170166015625,-0.12271978621780871,-0.2421077976644039,-0.1982264242313802
1772796374298163500,4.51216357421875,-0.29145430463552474,-0.2425908502073027,-0.21257327655171973
1772796374308155400,4.5221552734375,-0.4497410787969827,-0.2018643788749352,-0.2893560719809495
1772796374318148400,4.5321484375,-0.6149339790850877,-0.18450345769673585,-0.29808006118452174
1772796374328140300,4.542140380859375,-0.7761082913815974,-0.17428846275042742,-0.20828016420137135
1772796374338132500,4.552132568359375,-0.9164940826714039,-0.15308142407070843,-0.09514275584844872
1772796374348125200,4.562125244140625,-0.9799538706690073,-0.1494216777204536,-0.03555925216176547
1772796374358117400,4.572117431640625,-0.9613830257117748,-0.14759949466143735,-0.02031810418309178
1772796374368110300,4.5821103515625,-0.8947510374188422,-0.1669623211134225,-0.015994920921465382
1772796374378102300,4.592102294921875,-0.8137415642052889,-0.1972458704951219,-0.014094982751389033
1772796374388094500,4.602094482421875,-0.6695896983802319,-0.2035828549643047,0.01971163532307837
1772796374398087200,4.612087158203125,-0.4606652083933353,-0.1964859737722203,0.037350875685736536
1772796374408079400,4.622079345703125,-0.2392015548288822,-0.18655662736687809,0.031105046948592643
1772796374418072300,4.632072265625,-0.04185936608612537,-0.17180760572012513,0.05014179466781206
1772796374428064300,4.642064208984375,0.10923077456951141,-0.17149231095956638,0.08124611324733123
1772796374438056200,4.65205615234375,0.19598142178356645,-0.15700100866723804,0.09635834218328818
1772796374448049400,4.66204931640625,0.2544645904123783,-0.12706344144530593,0.09663888529087417
1772796374458041000,4.672041015625,0.2920107694745064,-0.1085714886768721,0.08143874060944653
1772796374468034300,4.682034423828125,0.23230127392113206,-0.07716317304894328,0.07770870550195685
1772796374478026500,4.692026611328125,0.16690379585921764,-0.028581549503095445,0.13130512500251643
1772796374488019200,4.702019287109375,0.14040332694649696,0.0007535583136603236,0.14702918396019377
1772796374498011400,4.712011474609375,0.14651099617183208,0.027928917113528587,0.10277450196905992
1772796374508003300,4.72200341796875,0.18417934030890465,0.04698112954664975,0.07609924731159116
1772796374517996300,4.731996337890625,0.21166239051818847,0.027812638356676325,0.04078564047396648
1772796374527988200,4.74198828125,0.19514847809076308,-0.00006159399412572383,0.0034154173420101867
1772796374537981200,4.751981201171875,0.1814846943974495,0.024315626553772014,-0.02494626859052805
1772796374547973400,4.761973388671875,0.16333762781023978,0.05959182399045675,-0.02427116635753773
1772796374557965300,4.77196533203125,0.1306850660085678,0.07292675018873997,0.012361692685377783
1772796374567958300,4.781958251953125,0.14144202234447,0.07512626039385795,0.0013143773840623907
1772796374577950200,4.7919501953125,0.10073708699047565,0.07225637664650567,-0.0461794212423265
1772796374587943400,4.801943359375,0.0884697260916233,0.06878977824817412,-0.08757616565222852
1772796374597935000,4.81193505859375,0.05689443813264369,0.020200683781923724,-0.06743517160171177
1772796374607927300,4.82192724609375,0.02799742947220802,-0.00039278044356033204,-0.06364623678068164
1772796374617920500,4.83192041015625,-0.021716157245635984,-0.031752416357863696,-0.07187009444239083
1772796374627912200,4.841912109375,-0.037034722408652306,-0.042831699983309955,-0.10349975663684308
1772796374637905400,4.851905517578125,-0.08199556164145469,-0.0683178133548703,-0.11371673347768373
1772796374647897300,4.8618974609375,-0.08879998095929623,-0.08709672070536761,-0.11109448608215898
1772796374657889300,4.87188916015625,-0.06804536222219466,-0.08564759960928932,-0.16115356176942586
1772796374667882200,4.88188232421875,-0.018370353949069974,-0.07077955469274894,-0.17231635895986108
1772796374677874400,4.89187451171875,0.04001578404605388,-0.07891067430339753,-0.21739574653841554
1772796374687867400,4.901867431640625,0.050689153751730914,-0.13509934792001732,-0.21947485436741263
1772796374697859300,4.911859375,0.029957915890216825,-0.12329099196819587,-0.1879558814392425
1772796374707851500,4.9218515625,-0.005575754305720329,-0.12761362267397344,-0.14353979834131897
1772796374717844200,4.93184423828125,-0.02659282337129116,-0.09676002745251171,-0.13217988027674146
1772796374727836400,4.94183642578125,-0.0368476754039526,-0.06380519476863555,-0.07191335819538217
1772796374737829000,4.9518291015625,-0.04876958386600017,-0.015412965448200701,-0.026536704703303982
1772796374747821300,4.9618212890625,-0.05053483997285366,-0.0011470602764282374,0.05137472486309707
1772796374757814500,4.971814453125,-0.059952656659483905,-0.0035009938582777973,0.08268657611291855
1772796374767806200,4.98180615234375,-0.045293432188034055,0.0030794348448049277,0.060429982714494686
1772796374777798400,4.99179833984375,-0.05383621960580349,0.004353044110350311,0.06162206030958332
1772796374787791400,5.001791259765625,-0.010310381612181663,-0.03336348655000329,0.04411911857849918
1772796374797783300,5.011783203125,-0.03427285647988319,-0.0505427218852099,0.052833221142296674
1772796374807776300,5.0217763671875,0.008950783696770668,-0.057573387706978243,0.03442340739909559
1772796374817768400,5.0317685546875,0.08255085743665695,-0.024034809451550242,0.06328264133241027
1772796374827760000,5.041760009765625,0.12981938908994198,-0.012164338915795088,0.12379044765662402
1772796374837753300,5.05175341796875,0.15959084249734878,-0.024885133537417278,0.12186931600146926
1772796374847745500,5.06174560546875,0.15256547390520572,-0.06968829799047671,0.050879525224678215
1772796374857738200,5.07173828125,0.09841653508841991,-0.12105989931472576,0.0020863492788921576
1772796374867730400,5.08173046875,0.03050678194463253,-0.13959231195771135,-0.02300035183727741
1772796374877722400,5.091722412109375,-0.0017816227197647093,-0.15063120877384206,-0.04008470739668701
1772796374887715300,5.10171533203125,-0.04439209943413734,-0.11605897662173956,-0.04239324920054059
1772796374897707300,5.111707275390625,-0.03208382200300693,-0.08987856997624039,0.006311345421138685
1772796374907700200,5.1217001953125,0.00835807850062847,-0.053590871109184805,0.04169475924209692
1772796374917692400,5.1316923828125,0.003613514322042465,-0.06646829933093394,0.032158234379510396
1772796374927684400,5.141684326171875,-0.029860885256528854,-0.0773939313312061,0.01322588089981582
1772796374937677300,5.15167724609375,-0.033710546422004696,-0.060778225330007256,0.021193834421562495
1772796374947669200,5.161669189453125,-0.0013566753059625625,-0.07151220264912117,0.05864606757294386
1772796374957662500,5.171662353515625,0.011684008052945137,-0.09500641611767932,0.11549187165773472
1772796374967654100,5.181654052734375,0.012750175979733467,-0.0718938589104684,0.12465403308286331
1772796374977647400,5.1916474609375,-0.012674772655963897,-0.04460079658164177,0.1646738448500633
1772796374987639600,5.2016396484375,-0.03421498881280422,-0.029708215445466337,0.17058557137819005
1772796374997631200,5.21163134765625,-0.04573883786797523,-0.00962299756964203,0.1370903664736077
1772796375007624400,5.22162451171875,-0.06820142956674098,-0.0018578480274416506,0.07846422744384035
1772796375017616400,5.231616455078125,-0.07452186475992202,0.012566768537112511,0.05335695732203312
1772796375027608300,5.2416083984375,-0.07053717903792858,-0.0015125417211093008,0.04443886575188953
1772796375037601300,5.251601318359375,-0.06552607287764549,0.0008514474638737738,0.07997503386558964
1772796375047593500,5.261593505859375,-0.04601356315612793,-0.0035683143402915445,0.09429435885818675
1772796375057586200,5.271586181640625,-0.03294014657139778,-0.0012015121437143534,0.06159148250822909
1772796375067578400,5.281578369140625,-0.026601006677746772,-0.011124264411488548,0.019718101596483028
1772796375077571300,5.2915712890625,-0.04180500555038452,-0.03080167323797941,0.012621517231920733
1772796375087563300,5.301563232421875,-0.021231588599085808,-0.07534672561096958,0.008350676078884862
1772796375097555500,5.311555419921875,-0.019203882163763047,-0.11950708951530978,0.018775349986809305
1772796375107548200,5.321548095703125,-0.033331191715598105,-0.13283625269308685,0.0345478283632081
1772796375117540400,5.331540283203125,-0.030085341662168502,-0.18297860448332504,0.002715035678935237
1772796375127533300,5.341533203125,0.00010638298392295837,-0.19868757546972482,-0.036781925824517385
1772796375137525200,5.351525146484375,-0.017580080354213712,-0.25394599163206294,-0.08632312425067648
1772796375147517400,5.361517333984375,-0.03767302031219005,-0.28074473110530523,-0.13509216012740508
1772796375157510400,5.371510498046875,-0.1002858360916376,-0.3162276940273121,-0.13781572160609065
1772796375167502300,5.38150244140625,-0.10546294646859168,-0.29559125830978156,-0.15541191284488887
1772796375177495600,5.39149560546875,-0.08716916488707065,-0.2632997666391544,-0.15101804353380574
1772796375187487500,5.401487548828125,-0.04166179768741131,-0.2163897478336468,-0.14762286640387026
1772796375197479400,5.4114794921875,-0.0430085361212492,-0.16787194677162914,-0.11612062541479244
1772796375207472600,5.42147265625,0.012499416089057922,-0.14379996538115664,-0.06070073964700568
1772796375217464300,5.43146435546875,0.05708849940001964,-0.127659562441241,-0.043694664355041456
1772796375227457500,5.44145751953125,0.10888181500136851,-0.07733768936563283,-0.03195788950182032
1772796375237449500,5.451449462890625,0.16818857497274875,-0.02384129617344588,-0.03657947575470898
1772796375247441400,5.46144140625,0.1492681859254837,-0.009881470409315078,-0.02073662870597327
1772796375257434600,5.4714345703125,0.08847031061351299,0.021482896479032933,0.023474862597405444
1772796375267426600,5.481426513671875,0.003883563435077667,0.07517523236842825,0.049985608592256904
1772796375277419500,5.49141943359375,-0.04702946220040321,0.13264608214953913,-0.003698767752968706
1772796375287411500,5.501411376953125,-0.06412088225483895,0.16109596809698268,-0.00827631850130856
1772796375297404400,5.511404296875,-0.08675649243295193,0.17901885227318853,-0.018797616617544553
1772796375307396400,5.521396240234375,-0.09309913945794104,0.17806021810779346,0.0064244800895452495
1772796375317388500,5.531388427734375,-0.0637087943226099,0.14429622446550056,0.010096999156405218
1772796375327381500,5.541381591796875,-0.028214287093281745,0.09427848543561994,0.0003279944119276479
1772796375337373400,5.55137353515625,0.009345335972309111,0.04298919209996238,-0.004633418254577555
1772796375347366700,5.56136669921875,0.03700608083605766,-0.015279292598553,-0.05926856968572829
1772796375357358300,5.5713583984375,0.06135375562906265,-0.06296537381047383,-0.09488658913029357
1772796375367350500,5.5813505859375,0.07325812843441963,-0.10496882454240694,-0.09816524547478184
1772796375377343500,5.591343505859375,0.07946341281533241,-0.13826019570427014,-0.08586662178798578
1772796375387335400,5.60133544921875,0.12277180866599083,-0.13171879297047853,-0.08568107262062839
1772796375397328600,5.61132861328125,0.15202654472291469,-0.1379015549923293,-0.07983228266034274
1772796375407320600,5.621320556640625,0.15137830994725227,-0.16775666809519751,-0.08259992074277252
1772796375417312500,5.6313125,0.16092472144961356,-0.1710844060121104,-0.11167245036689565
1772796375427305500,5.641305419921875,0.10479308438301085,-0.21155315799005328,-0.09953398567787371
1772796375437297700,5.651297607421875,0.07006254726350307,-0.20471065341783687,-0.1466754477522336
1772796375447290400,5.661290283203125,0.03742869016230106,-0.21741951100649312,-0.21570125411283222
1772796375457282600,5.671282470703125,-0.00029576807618141173,-0.19320569172622634,-0.24043239353178067
1772796375467274500,5.6812744140625,-0.050158992397785186,-0.17690752267502247,-0.2228583227932453
1772796375477267500,5.691267333984375,-0.05035246914327144,-0.1725694934707135,-0.18978738944903015
1772796375487259600,5.701259765625,-0.03931961847543716,-0.15086027742251754,-0.19147921499349177
1772796375497252400,5.71125244140625,-0.03874620250165462,-0.13279168289899826,-0.19087248127199707
1772796375507244500,5.72124462890625,-0.02257423537969589,-0.08396477935519069,-0.14292588596036657
1772796375517236500,5.731236572265625,-0.02641103706359863,-0.06007339696232229,-0.08853925679703242
1772796375527229400,5.7412294921875,-0.03723813602626323,-0.017536862266995013,-0.05277079146453179
1772796375537221400,5.751221435546875,-0.030226795959472655,0.011694383316487074,-0.050958198217768216
1772796375547214600,5.761214599609375,0.03321662542521953,0.044990065327286714,-0.05349986379090696
1772796375557206500,5.77120654296875,0.06403437301516532,0.03603445932492613,-0.0733845495593734
1772796375567199500,5.781199462890625,0.09722586399912833,0.03281560687627643,-0.03639830593494698
1772796375577191700,5.791191650390625,0.10032616810202598,0.032656653454899785,0.02802713049072772
1772796375587183400,5.801183349609375,0.07153028172850609,0.0336146848320961,0.07194556626481935
1772796375597176600,5.811176513671875,0.042242227923870085,0.06275014189090579,0.10771583996191621
1772796375607168500,5.82116845703125,0.04148819468617439,0.0893723009545356,0.12053230437720194
1772796375617161500,5.831161376953125,0.057148120632767675,0.11434311261456459,0.16600923990597946
1772796375627153700,5.841153564453125,0.027898645272850988,0.10166260433755814,0.14382390337917023
1772796375637145600,5.8511455078125,0.01658990027308464,0.07909395844843238,0.08405545331332832
1772796375647138600,5.861138671875,-0.018956044882535935,0.05853124555423855,0.034240159786678846
1772796375657130500,5.871130615234375,-0.03967266969680786,0.0025875322751700877,-0.05667160742850974
1772796375667123500,5.88112353515625,-0.014282207852602005,-0.05472454674765467,-0.09728133877972141
1772796375677115400,5.891115478515625,0.025045009407401085,-0.06983268403038383,-0.14155952037745154
1772796375687107600,5.901107666015625,0.06993336792588234,-0.08391213585250079,-0.14637851976542732
1772796375697100300,5.911100341796875,0.08956628915667533,-0.1161773788370192,-0.11832588950726203
1772796375707092500,5.921092529296875,0.07079144605994224,-0.12078479956723749,-0.09212201065463013
1772796375717085700,5.931085693359375,0.048777767172455785,-0.129812119098939,-0.04992347574201412
1772796375727077400,5.941077392578125,0.046131052055954934,-0.13159337649252265,-0.05903965173410251
1772796375737069600,5.951069580078125,0.041298809593915936,-0.11682674612384289,-0.0873873833481688
1772796375747062500,5.9610625,-0.0021101240217685697,-0.11223773783314972,-0.03260167186465114
1772796375757054500,5.971054443359375,-0.028150574207305906,-0.10148450782429426,0.006346729545062407
1772796375767047400,5.98104736328125,-0.08980828121900558,-0.1139860428052023,0.007950767208216712
1772796375777039600,5.99103955078125,-0.12770458889305591,-0.11484587450493126,-0.027895649598166344
1772796375787031300,6.00103125,-0.13376257375776768,-0.11143237626701592,-0.05770839399718679
1772796375797024500,6.0110244140625,-0.1178624093145132,-0.09226626883037388,-0.053555804362380874
1772796375807016700,6.0210166015625,-0.0847878227084875,-0.08591258895471691,-0.022280001673474905
1772796375817009400,6.031009521484375,-0.021519173368811605,-0.06445084486156702,0.06598773557264358
1772796375827001600,6.041001708984375,0.021701544198393822,-0.03697955815531313,0.15289372861203737
1772796375836993500,6.05099365234375,0.060171267846226686,-0.00024520693272352215,0.1855680364546366
1772796375846986500,6.060986572265625,0.081476506203413,0.0005456511840224266,0.19434611219931391
1772796375856978400,6.070978515625,0.08142273018956184,0.0024897709891200065,0.22157358021233228
1772796375866971400,6.080971435546875,0.060875032201409336,-0.00020403467211872338,0.22508047408843412
1772796375876963600,6.090963623046875,0.038678397962450976,0.0038992359282448885,0.204420273902826
1772796375886956500,6.10095654296875,0.013157003214955328,0.01279346713218838,0.16465444602984933
1772796375896948500,6.110948486328125,-0.054310851380228994,0.00009312164355069398,0.1497307528027799
1772796375906940400,6.1209404296875,-0.10105448237657547,-0.00956033042985946,0.1006659214504063
1772796375916933600,6.13093359375,-0.1153834519803524,-0.021379691832885146,0.09234587340522557
1772796375926925300,6.14092529296875,-0.11942366728186607,-0.05133179903682321,0.03613208818023558
1772796375936918500,6.15091845703125,-0.12138999891877174,-0.04852171005215496,-0.02285486068567261
1772796375946910700,6.16091064453125,-0.07801555209457874,-0.057307037521526216,-0.027596625552396288
1772796375956902400,6.17090234375,-0.01875613839626312,-0.07324150609318167,-0.02989671005515847
1772796375966895600,6.1808955078125,0.048776598128676414,-0.10751677372585981,0.003698162681481335
1772796375976887600,6.190887451171875,0.06696516577005386,-0.13456808145437388,0.007385938682977575
1772796375986880500,6.200880615234375,0.08638473651111125,-0.15602434565480797,-0.021519559244590345
1772796375996872400,6.21087255859375,0.06947042658925057,-0.175415019094944,-0.058702852961211464
1772796376006864600,6.22086474609375,-0.013753800064325332,-0.2073528567560017,-0.11242527802819385
1772796376016857600,6.230857666015625,-0.05497369920313358,-0.18958298945073038,-0.1712424095854163
1772796376026849500,6.240849609375,-0.04746317744255066,-0.17639650441296398,-0.18075539374221114
1772796376036842500,6.250842529296875,-0.048525838238000864,-0.14237038923576473,-0.16608561134412883
1772796376046834400,6.26083447265625,-0.00007072714865207672,-0.12673000823985783,-0.15440116489976644
1772796376056826600,6.27082666015625,0.040164837127923965,-0.12471574580799788,-0.10618160699880681
1772796376066819300,6.2808193359375,0.04271510613262653,-0.12323325216528028,-0.05930465934583917
1772796376076811500,6.2908115234375,0.017016016730666158,-0.10958769824840128,-0.02481194500362035
1772796376086804700,6.3008046875,0.0033171617239713667,-0.09723397424034774,-0.048072915971884504
1772796376096796400,6.31079638671875,-0.040164252606034276,-0.07239186699390411,-0.0750095341124339
1772796376106788600,6.32078857421875,-0.07407587455809116,-0.06676471129450946,-0.07720164189580828
1772796376116781600,6.330781494140625,-0.08631810101568699,-0.0620501038627699,-0.0783945506079588
1772796376126773500,6.3407734375,-0.07645838578045368,-0.07349785547442733,-0.06095822610598989
1772796376136766500,6.350766357421875,-0.045240240696072576,-0.040760428400896484,-0.02795963191220071
1772796376146758000,6.3607578125,-0.03322071707844734,-0.04138531883358955,-0.017016199393756686
1772796376156750800,6.370750732421875,-0.001187163957953453,-0.05269863041061908,-0.03499484147834591
1772796376166742800,6.38074267578125,0.0377232891947031,-0.09622220338191836,-0.05426722230105661
1772796376176735000,6.39073486328125,0.07588438528478145,-0.11757993911132215,-0.0531576718902681
1772796376186728000,6.40072802734375,0.04957622407376766,-0.13115330457482485,-0.028342466350481845
1772796376196719900,6.410719970703125,0.07716390370130538,-0.12511873711831867,-0.006952563650836237
1772796376206713000,6.420713134765625,0.094770287540555,-0.11627693022135645,-0.00963051872239448
1772796376216704800,6.430704833984375,0.07889876466989516,-0.12528386455215512,-0.008787058202154002
1772796376226697000,6.440697021484375,0.06846446441709995,-0.1234859117520973,-0.033998217956698495
1772796376236690000,6.45068994140625,0.01931786393225193,-0.15139968152884392,-0.03717203482037876
1772796376246681900,6.460681884765625,-0.01381225225329399,-0.12637505732234566,-0.007037995178275741
1772796376256675000,6.470675048828125,-0.05280044681727886,-0.06881744257323444,0.0046580823383759705
1772796376266667000,6.4806669921875,-0.06143734225928783,-0.021167656517401337,0.01220220954103861
1772796376276659000,6.490658935546875,-0.053038931748270984,0.011089695421606302,-0.012806728472560643
1772796376286652000,6.50065185546875,-0.05887888994812965,0.008502784200944006,0.023264720128197223
1772796376296644000,6.51064404296875,-0.008133037573099135,-0.010158771247044205,0.017369844270171596
1772796376306636800,6.52063671875,0.11282499966919421,0.05936360472515225,0.0034240287650842216
1772796376316629000,6.53062890625,0.07138532029986382,0.19760898645278066,0.038761527934949844
1772796376326621000,6.540620849609375,0.03761047646999359,0.16060685113947837,0.16116309678275137
1772796376336614000,6.55061376953125,0.11553835028111933,0.08629596224911511,0.21418526005931196
1772796376346605800,6.560605712890625,0.1439174725472927,0.07178619271833449,0.2743534226329997
1772796376356598800,6.570598876953125,0.13916472506225108,-0.07943988580927253,0.24477387506850062
1772796376366591000,6.580591064453125,0.16760522212684154,-0.17084665173348038,0.15608283437639475
1772796376376583000,6.5905830078125,0.12095511463284492,-0.11696633725762366,0.039462506678001955
1772796376386576000,6.600575927734375,0.0742395406872034,-0.10652169827390462,-0.06589752740538679
1772796376396567800,6.61056787109375,0.049024435409903526,-0.19054657378587872,-0.09816507194484583
1772796376406561000,6.62056103515625,-0.03682838618159294,-0.22292484869081525,-0.03742855316498317
1772796376416552700,6.630552734375,-0.16250000794231892,-0.18365359940174966,-0.039835605173558
