time,seconds_elapsed,z,y,x
1772796369861533400,0.075533447265625,0.006277478300035,-0.04205051437020302,-0.027359312400221825
1772796369871525600,0.085525634765625,0.009097499772906303,-0.03572763502597809,-0.02859395369887352
1772796369881518600,0.0955185546875,0.01032266952097416,-0.035648271441459656,-0.03331146016716957
1772796369891510500,0.105510498046875,0.010901641100645065,-0.048033833503723145,-0.02729617804288864
1772796369901503500,0.11550341796875,0.015451846644282341,-0.06298985332250595,-0.018857184797525406
1772796369911495400,0.125495361328125,0.017227109521627426,-0.07397885620594025,-0.016270190477371216
1772796369921487600,0.135487548828125,0.01679415814578533,-0.07207652926445007,-0.01057533547282219
1772796369931480300,0.145480224609375,0.012112853117287159,-0.058722641319036484,-0.005838903598487377
1772796369941472500,0.155472412109375,0.00874000322073698,-0.042597170919179916,-0.0009490886586718261
1772796369951465700,0.1654658203125,0.010888108983635902,-0.02619396150112152,0.0030062382575124502
1772796369961457400,0.17545751953125,0.007944999262690544,-0.01087874174118042,0.00033172007533721626
1772796369971450600,0.18545068359375,0.011921631172299385,-0.008783366531133652,0.00599732855334878
1772796369981442600,0.195442626953125,0.010599162429571152,-0.005885704420506954,0.006062669213861227
1772796369991434500,0.2054345703125,0.014332914724946022,-0.005766661372035742,0.004703658167272806
1772796370001427500,0.215427490234375,0.014605127274990082,0.00037483498454093933,0.0003143014037050307
1772796370011419600,0.225419677734375,0.013658106327056885,0.003170089330524206,-0.0012564309872686863
1772796370021412600,0.23541259765625,0.006361699663102627,0.008778497576713562,-0.0033372221514582634
1772796370031404500,0.245404541015625,0.0024694905150681734,0.012297332286834717,-0.00587175227701664
1772796370041396700,0.255396728515625,-0.0009886403568089008,0.009420488029718399,-0.003939035814255476
1772796370051389400,0.265389404296875,-0.0006136673036962748,-0.0047280872240662575,-0.0026998668909072876
1772796370061381600,0.275381591796875,-0.001954308245331049,-0.015718741342425346,0.00042995921103283763
1772796370071374300,0.285374267578125,-0.010129147209227085,-0.01947859115898609,0.004830833058804274
1772796370081366500,0.295366455078125,-0.0169936902821064,-0.022330153733491898,0.010961289517581463
1772796370091358500,0.3053583984375,-0.021461674943566322,-0.015206463634967804,0.015288660302758217
1772796370101351400,0.315351318359375,-0.022921930998563766,-0.012674098834395409,0.016203204169869423
1772796370111343600,0.325343505859375,-0.022002074867486954,-0.016630224883556366,0.01368465181440115
1772796370121336600,0.335336669921875,-0.017634734511375427,-0.022024307399988174,0.002906965557485819
1772796370131328500,0.34532861328125,-0.015367585234344006,-0.0215207040309906,-0.005275330506265163
1772796370141320000,0.35531982421875,-0.017613256350159645,-0.01988750882446766,-0.008800981566309929
1772796370151313200,0.365313232421875,-0.013577502220869064,-0.012693778611719608,-0.007383912336081266
1772796370161304800,0.375304931640625,-0.009631841443479061,-0.0047700973227620125,-0.0002860068343579769
1772796370171298000,0.385298095703125,-0.003679943270981312,-0.005351198837161064,-0.001976581523194909
1772796370181290000,0.3952900390625,-0.0018958916189149022,-0.006074247416108847,0.00834689661860466
1772796370191283000,0.405282958984375,-0.004707124549895525,-0.01341951172798872,0.00043810668285004795
1772796370201275100,0.415275146484375,-0.017139941453933716,-0.016980696469545364,-0.011323762126266956
1772796370211267000,0.42526708984375,-0.02383353002369404,-0.03139878436923027,-0.028133101761341095
1772796370221260000,0.435260009765625,-0.015029004774987698,-0.03533865883946419,-0.03997562825679779
1772796370231252000,0.445251953125,-0.006614213809370995,-0.031054433435201645,-0.034892451018095016
1772796370241245000,0.455244873046875,-0.005862519145011902,-0.022876668721437454,-0.024535970762372017
1772796370251236900,0.46523681640625,-0.004342386499047279,-0.011321213096380234,-0.006060290150344372
1772796370261229000,0.47522900390625,-0.006528381258249283,-0.0007212716154754162,0.008331400342285633
1772796370271222000,0.485221923828125,-0.0045661646872758865,-0.003424646332859993,0.008921024389564991
1772796370281214000,0.4952138671875,0.00881316140294075,-0.007620830088853836,0.007524340879172087
1772796370291207200,0.505207275390625,0.014614058658480644,-0.007564637344330549,0.004500321578234434
1772796370301198800,0.51519873046875,0.01366333942860365,0.005405423231422901,0.006562451366335154
1772796370311191000,0.52519091796875,0.006935928016901016,0.009354891255497932,0.0039842454716563225
1772796370321184000,0.53518408203125,0.005720899906009436,0.005150703713297844,0.0003909511142410338
1772796370331176000,0.545176025390625,0.009380616247653961,-0.002016128972172737,-0.0038679763674736023
1772796370341169200,0.555169189453125,0.012993903830647469,-0.00810657162219286,-0.011696039699018002
1772796370351161000,0.5651611328125,0.011348869651556015,-0.018759481608867645,-0.014851618558168411
1772796370361154000,0.575154052734375,0.010188058018684387,-0.024402065202593803,-0.00872163288295269
1772796370371146000,0.58514599609375,0.0066702887415885925,-0.026412485167384148,-0.0007633085479028523
1772796370381138200,0.59513818359375,-0.002670410554856062,-0.009835666976869106,0.01704901084303856
1772796370391131000,0.605130859375,-0.00402782391756773,0.006317736580967903,0.03017306886613369
1772796370401123000,0.615123046875,0.006950891576707363,0.016368413344025612,0.02903863787651062
1772796370411116000,0.625115966796875,0.01349374558776617,0.022037750110030174,0.020543687045574188
1772796370421108000,0.63510791015625,0.003901550779119134,0.02542993240058422,0.014980483800172806
1772796370431100200,0.64510009765625,-0.0024436970707029104,0.01556052640080452,0.014927486889064312
1772796370441092900,0.6550927734375,-0.010125203058123589,0.0030647139064967632,0.012196698226034641
1772796370451085000,0.6650849609375,-0.007088666781783104,-0.006892313249409199,0.01224756520241499
1772796370461078000,0.675078125,-0.008327418938279152,-0.016498073935508728,0.004069512709975243
1772796370471070000,0.685070068359375,-0.008130078203976154,-0.03510424867272377,0.0014415052719414234
1772796370481063200,0.695063232421875,-0.015229640528559685,-0.04035968333482742,-0.0002416078932583332
1772796370491055000,0.70505517578125,-0.021020151674747467,-0.0362727977335453,0.002142454031854868
1772796370501047000,0.715047119140625,-0.021482722833752632,-0.022968025878071785,-0.0009557402809150517
1772796370511040000,0.7250400390625,-0.01929360441863537,-0.009377114474773407,-0.005244760774075985
1772796370521032200,0.7350322265625,-0.025984039530158043,0.0020691100507974625,-0.016431089490652084
1772796370531025000,0.74502490234375,-0.03197535127401352,0.009023955091834068,-0.026065608486533165
1772796370541017000,0.75501708984375,-0.04002886638045311,0.01763128489255905,-0.029769817367196083
1772796370551009000,0.765009033203125,-0.04422147944569588,0.007899293676018715,-0.04072659835219383
1772796370561002000,0.775001953125,-0.0385998897254467,-0.015903744846582413,-0.05088312551379204
1772796370570994000,0.784993896484375,-0.030735572800040245,-0.035231634974479675,-0.05066287890076637
1772796370580987000,0.79498681640625,-0.028526343405246735,-0.04448436200618744,-0.04873806983232498
1772796370590979000,0.80497900390625,-0.028337791562080383,-0.05375375971198082,-0.045634955167770386
1772796370600971000,0.814970947265625,-0.026358162984251976,-0.06903986632823944,-0.037145521491765976
1772796370610964000,0.8249638671875,-0.01922302134335041,-0.07662295550107956,-0.02379722334444523
1772796370620956000,0.834955810546875,-0.018182063475251198,-0.06424348801374435,-0.0076065668836236
1772796370630949000,0.84494921875,-0.0037362799048423767,-0.04229051619768143,-0.000982486642897129
1772796370640940800,0.85494091796875,0.014911036938428879,-0.009350566193461418,-0.0005378815112635493
1772796370650933000,0.86493310546875,0.024511465802788734,0.014033319428563118,0.0000014086253941059113
1772796370660926200,0.87492626953125,0.028956225141882896,0.01934671960771084,0.00554575165733695
1772796370670918000,0.88491796875,0.03451024740934372,0.0026913098990917206,0.004126020707190037
1772796370680911000,0.8949111328125,0.027531122788786888,-0.020909924060106277,0.011603924445807934
1772796370690903000,0.904903076171875,0.024006430059671402,-0.04385119304060936,0.013736583292484283
1772796370700896000,0.91489599609375,0.01900540292263031,-0.06163066253066063,0.004495618399232626
1772796370710888000,0.924887939453125,0.016442643478512764,-0.06592634320259094,0.0028545784298330545
1772796370720880000,0.934880126953125,0.0048050107434391975,-0.059191200882196426,-0.00018273945897817612
1772796370730873000,0.944873046875,0.009228521026670933,-0.03312604874372482,0.0003688012366183102
1772796370740865000,0.954864990234375,0.01033630222082138,0.00004083849489688873,0.009877193719148636
1772796370750858000,0.96485791015625,0.007239045575261116,0.027455950155854225,0.017948968335986137
1772796370760850000,0.974849853515625,0.01354913879185915,0.02719682641327381,0.031714048236608505
1772796370770842000,0.984842041015625,0.021721050143241882,0.00532854488119483,0.03555645793676376
1772796370780834800,0.994834716796875,0.023051247000694275,-0.018541455268859863,0.04159606993198395
1772796370790827000,1.004826904296875,0.025651026517152786,-0.029696105048060417,0.04041602462530136
1772796370800820200,1.0148203125,0.01468652579933405,-0.03312679007649422,0.037073489278554916
1772796370810812000,1.02481201171875,0.00897617544978857,-0.03989894315600395,0.027141496539115906
1772796370820804000,1.03480419921875,0.0049236430786550045,-0.028829246759414673,0.015152477659285069
1772796370830797000,1.044797119140625,0.0022961683571338654,-0.019313771277666092,0.0027141841128468513
1772796370840789000,1.0547890625,-0.010548710823059082,-0.008806777186691761,-0.0009719454101286829
1772796370850782000,1.064781982421875,-0.01566224731504917,-0.010670989751815796,0.0016057281754910946
1772796370860774100,1.074774169921875,-0.0003340410767123103,-0.011083243414759636,-0.0011162720620632172
1772796370870767000,1.08476708984375,0.015169817954301834,-0.011728793382644653,-0.008073247969150543
1772796370880759000,1.094759033203125,0.0234470646828413,-0.023138897493481636,-0.012160870246589184
1772796370890751200,1.104751220703125,0.039121631532907486,-0.03122665174305439,-0.024822335690259933
1772796370900744000,1.114743896484375,0.04329761490225792,-0.027912406250834465,-0.029367223381996155
1772796370910736100,1.124736083984375,0.04696851596236229,-0.027839701622724533,-0.02313782460987568
1772796370920728800,1.134728759765625,0.04951268434524536,-0.021625928580760956,-0.00950546469539404
1772796370930721000,1.144720947265625,0.05064665898680687,-0.01503167487680912,0.006241806782782078
1772796370940713000,1.154712890625,0.05306136608123779,-0.006083035841584206,0.016870874911546707
1772796370950706000,1.164705810546875,0.06116483360528946,0.0007224059663712978,0.015305736102163792
1772796370960698000,1.174697998046875,0.07516785711050034,0.006973434705287218,0.003277505747973919
1772796370970691000,1.184691162109375,0.09251329302787781,0.007130828220397234,-0.0067168050445616245
1772796370980683000,1.19468310546875,0.102608822286129,0.003552490845322609,-0.019376013427972794
1772796370990675000,1.204675048828125,0.10538703203201294,-0.012125272303819656,-0.02783927321434021
1772796371000668200,1.214668212890625,0.10290683805942535,-0.032518111169338226,-0.03136298060417175
1772796371010659800,1.224659912109375,0.10000079870223999,-0.04031557962298393,-0.02955443039536476
1772796371020653000,1.234653076171875,0.10000985115766525,-0.047018758952617645,-0.024461667984724045
1772796371030645200,1.244645263671875,0.09761247038841248,-0.041894834488630295,-0.019833626225590706
1772796371040638000,1.254637939453125,0.0973409041762352,-0.035526126623153687,-0.006098687183111906
1772796371050630100,1.264630126953125,0.10395513474941254,-0.03360705077648163,0.006169697269797325
1772796371060622000,1.2746220703125,0.10233552753925323,-0.027354910969734192,0.02673032321035862
1772796371070615000,1.284614990234375,0.10808289796113968,-0.024539683014154434,0.03978060930967331
1772796371080607000,1.29460693359375,0.11811065673828125,-0.01688171923160553,0.04386314004659653
1772796371090600000,1.304599853515625,0.11421684920787811,-0.017890257760882378,0.046439215540885925
1772796371100592000,1.314592041015625,0.09963533282279968,-0.031237902119755745,0.04300575703382492
1772796371110584000,1.324583984375,0.08297327160835266,-0.035025183111429214,0.037436556071043015
1772796371120577000,1.334576904296875,0.06864069402217865,-0.024970268830657005,0.03434528410434723
1772796371130569000,1.34456884765625,0.060130827128887177,-0.009515943937003613,0.029277022927999496
1772796371140563200,1.354563232421875,0.05369885638356209,0.002577592618763447,0.020711923018097878
1772796371150555100,1.36455517578125,0.04872513562440872,0.000698466319590807,0.015861505642533302
1772796371160547300,1.37454736328125,0.0396449975669384,-0.011312456801533699,0.008812414482235909
1772796371170540000,1.3845400390625,0.026086047291755676,-0.026805397123098373,0.0040474869310855865
1772796371180532200,1.3945322265625,0.014385759830474854,-0.0526321679353714,-0.004013917408883572
1772796371190525000,1.40452490234375,0.00673849368467927,-0.06747396290302277,-0.010067015886306763
1772796371200517000,1.41451708984375,-0.00008782115764915943,-0.06276087462902069,-0.012492434121668339
1772796371210510300,1.42451025390625,-0.004760603420436382,-0.045713718980550766,-0.020121324807405472
1772796371220502000,1.434501953125,-0.003794014221057296,-0.03233015537261963,-0.020070334896445274
1772796371230494200,1.444494140625,-0.0037159835919737816,-0.015407362952828407,-0.0184820257127285
1772796371240487200,1.454487060546875,0.0020024001132696867,-0.004772529937326908,-0.013890218921005726
1772796371250479000,1.46447900390625,0.010528776794672012,-0.00811905786395073,-0.007319401018321514
1772796371260472000,1.47447216796875,0.019986726343631744,-0.00740240141749382,0.003999033011496067
1772796371270464300,1.48446435546875,0.027920816093683243,-0.011748414486646652,0.009343198500573635
1772796371280456200,1.494456298828125,0.03331369534134865,-0.018031759187579155,0.011432322673499584
1772796371290449200,1.50444921875,0.040340177714824677,-0.02629714645445347,0.011156685650348663
1772796371300441000,1.514441162109375,0.03983718529343605,-0.03833753243088722,0.015469894744455814
1772796371310434000,1.52443408203125,0.036322079598903656,-0.043525636196136475,0.019700592383742332
1772796371320426200,1.53442626953125,0.02482019178569317,-0.040041983127593994,0.02212892659008503
1772796371330418200,1.544418212890625,0.018284261226654053,-0.04273843392729759,0.012609723024070263
1772796371340411100,1.5544111328125,0.010364826768636703,-0.03836387023329735,-0.0028806328773498535
1772796371350403000,1.564403076171875,0.007628161925822496,-0.03006705828011036,-0.024496179074048996
1772796371360396000,1.57439599609375,0.006343906745314598,-0.018108956515789032,-0.03854457288980484
1772796371370388000,1.584387939453125,0.004183284472674131,-0.020058924332261086,-0.05238981544971466
1772796371380380200,1.594380126953125,0.0032905209809541702,-0.024269351735711098,-0.06314848363399506
1772796371390373000,1.604373046875,0.0027584214694797993,-0.03415793552994728,-0.06029197946190834
1772796371400365000,1.614364990234375,0.0031193799804896116,-0.03371274843811989,-0.05904500558972359
1772796371410358300,1.624358154296875,-0.002912679687142372,-0.02925861068069935,-0.05821037292480469
1772796371420350000,1.634349853515625,-0.00671642879024148,-0.030243678018450737,-0.05789134278893471
1772796371430343200,1.64434326171875,-0.011584954336285591,-0.030601873993873596,-0.054446276277303696
1772796371440335000,1.654335205078125,-0.009077148512005806,-0.027608070522546768,-0.04230321943759918
1772796371450327000,1.6643271484375,-0.0010170917958021164,-0.023316120728850365,-0.033161915838718414
1772796371460320300,1.6743203125,0.002566112205386162,-0.028304241597652435,-0.03957715630531311
1772796371470312200,1.684312255859375,0.004821276757866144,-0.03194664791226387,-0.05065856873989105
1772796371480305200,1.69430517578125,0.00706403236836195,-0.02903452143073082,-0.062210563570261
1772796371490297000,1.704297119140625,0.01275254413485527,-0.025469614192843437,-0.07017794996500015
1772796371500289300,1.714289306640625,0.014052225276827812,-0.020122647285461426,-0.07524068653583527
1772796371510282000,1.724281982421875,0.019117556512355804,-0.019088542088866234,-0.07510247081518173
1772796371520274200,1.734274169921875,0.025780001655220985,-0.022106071934103966,-0.07385387271642685
1772796371530267100,1.74426708984375,0.03686061501502991,-0.032276418060064316,-0.06792780756950378
1772796371540259000,1.754259033203125,0.044421978294849396,-0.03537366911768913,-0.06195672228932381
1772796371550251300,1.764251220703125,0.05485251545906067,-0.046289701014757156,-0.05123776197433472
1772796371560244000,1.774243896484375,0.059517521411180496,-0.034874413162469864,-0.043047912418842316
1772796371570236200,1.784236083984375,0.0708538070321083,-0.02154395915567875,-0.040282219648361206
1772796371580229000,1.79422900390625,0.08002957701683044,0.0030852770432829857,-0.03709154948592186
1772796371590221000,1.804220947265625,0.08919990807771683,0.026135466992855072,-0.03603134676814079
1772796371600214300,1.81421435546875,0.09460293501615524,0.04357443377375603,-0.036008257418870926
1772796371610206200,1.824206298828125,0.09940088540315628,0.03998183086514473,-0.03885624185204506
1772796371620198100,1.8341982421875,0.10821297019720078,0.01683434471487999,-0.04556784778833389
1772796371630191000,1.844191162109375,0.11448924243450165,-0.005587074439972639,-0.05249100178480148
1772796371640183300,1.854183349609375,0.11749500781297684,-0.024342061951756477,-0.04990753158926964
1772796371650176000,1.864176025390625,0.1113729327917099,-0.040628090500831604,-0.043747641146183014
1772796371660168200,1.874168212890625,0.09457547962665558,-0.053754452615976334,-0.03212035447359085
1772796371670160100,1.88416015625,0.08138617128133774,-0.05783921107649803,-0.016817832365632057
1772796371680153000,1.894153076171875,0.08083364367485046,-0.047861915081739426,-0.0010082896333187819
1772796371690145300,1.904145263671875,0.06831918656826019,-0.01955784112215042,0.016297997906804085
1772796371700138000,1.914137939453125,0.05786443129181862,0.00963934138417244,0.040615443140268326
1772796371710130200,1.924130126953125,0.04883312061429024,0.03192067891359329,0.049455273896455765
1772796371720122000,1.9341220703125,0.051640626043081284,0.04666073992848396,0.05086488649249077
1772796371730115000,1.944114990234375,0.05416290462017059,0.052037663757801056,0.04833941161632538
1772796371740107000,1.95410693359375,0.04763815924525261,0.057027366012334824,0.03891767933964729
1772796371750100200,1.964100341796875,0.032448288053274155,0.05601323023438454,0.0324627086520195
1772796371760092200,1.974092041015625,0.013603957369923592,0.05412374809384346,0.021405767649412155
1772796371770084000,1.984083984375,-0.0091498252004385,0.042711302638053894,0.01288897730410099
1772796371780077300,1.994077392578125,-0.027851851657032967,0.027104264125227928,0.009712751023471355
1772796371790069000,2.004069091796875,-0.03358776867389679,0.0153751689940691,0.001672667684033513
1772796371800062200,2.014062255859375,-0.031948838382959366,0.025110239163041115,-0.01097615621984005
1772796371810054100,2.02405419921875,-0.03411691635847092,0.026622647419571877,-0.030986348167061806
1772796371820047000,2.034047119140625,-0.03887160122394562,0.03376077860593796,-0.048290833830833435
1772796371830039300,2.044039306640625,-0.040721699595451355,0.0390508808195591,-0.06254593282938004
1772796371840031200,2.05403125,-0.04063461348414421,0.03342068940401077,-0.08119658380746841
1772796371850024200,2.064024169921875,-0.029483692720532417,0.05729140341281891,-0.1026960164308548
1772796371860016000,2.07401611328125,-0.013521526008844376,0.07259511202573776,-0.11458636075258255
1772796371870009000,2.084009033203125,-0.009172583930194378,0.08072840422391891,-0.11852437257766724
1772796371880001000,2.0940009765625,0.009239373728632927,0.07505563646554947,-0.11950737982988358
1772796371889993200,2.1039931640625,0.020796163007616997,0.06055791303515434,-0.10756123811006546
1772796371899986000,2.11398583984375,0.03707657754421234,0.04057607054710388,-0.08700735121965408
1772796371909978000,2.12397802734375,0.06197606772184372,0.01595674455165863,-0.06213582307100296
1772796371919971300,2.133971435546875,0.0933491438627243,-0.005278917029500008,-0.03632539510726929
1772796371929963000,2.143962890625,0.12112858146429062,-0.01804184913635254,-0.014158038422465324
1772796371939955200,2.153955078125,0.13632704317569733,-0.01602160558104515,0.01305656973272562
1772796371949948200,2.1639482421875,0.14494024217128754,-0.012667620554566383,0.027206210419535637
1772796371959940000,2.173940185546875,0.14431889355182648,-0.01870846375823021,0.02857191301882267
1772796371969933000,2.18393310546875,0.13790440559387207,-0.02696133218705654,0.019892403855919838
1772796371979925200,2.19392529296875,0.13028079271316528,-0.026408229023218155,0.0053560854867100716
1772796371989917000,2.2039169921875,0.12311503291130066,-0.020274169743061066,-0.009405815973877907
1772796371999910100,2.21391015625,0.11418819427490234,-0.019301244989037514,-0.023116061463952065
1772796372009902300,2.22390234375,0.11125125735998154,-0.014174659736454487,-0.027392299845814705
1772796372019895000,2.23389501953125,0.10647157579660416,-0.015577568672597408,-0.021626122295856476
1772796372029887200,2.24388720703125,0.10013192147016525,-0.017141908407211304,-0.00433448376134038
1772796372039880000,2.2538798828125,0.09379054605960846,-0.003499978454783559,0.009035525843501091
1772796372049872100,2.2638720703125,0.08607669919729233,0.007983839139342308,0.017291059717535973
1772796372059864000,2.273864013671875,0.07503211498260498,0.017593346536159515,0.01625104621052742
1772796372069857000,2.28385693359375,0.0564991757273674,0.021446406841278076,0.008327608928084373
1772796372079849200,2.29384912109375,0.03386380895972252,0.02160314843058586,-0.0027081540320068598
1772796372089842200,2.30384228515625,0.008676165714859962,0.02761869877576828,-0.012099524959921837
1772796372099834000,2.313834228515625,-0.012945735827088356,0.03581668809056282,-0.013178572990000248
1772796372109826000,2.323825927734375,-0.024027150124311447,0.037579964846372604,-0.019007964059710503
1772796372119819300,2.3338193359375,-0.030812710523605347,0.03792259097099304,-0.02161855436861515
1772796372129811000,2.34381103515625,-0.03867063298821449,0.03140503540635109,-0.020001215860247612
1772796372139803100,2.35380322265625,-0.04988991841673851,0.016647152602672577,-0.022548045963048935
1772796372149795300,2.36379541015625,-0.05859632417559624,0.0034453319385647774,-0.024424774572253227
1772796372159787300,2.373787353515625,-0.06815420091152191,0.006059669423848391,-0.009067563340067863
1772796372169780200,2.3837802734375,-0.08078610152006149,0.020558184012770653,0.007490907330065966
1772796372179772400,2.3937724609375,-0.08889751136302948,0.04277990385890007,0.02233881503343582
1772796372189765000,2.40376513671875,-0.08876302093267441,0.062426306307315826,0.03639870882034302
1772796372199757300,2.41375732421875,-0.08932016789913177,0.08250831067562103,0.03672633692622185
1772796372209749200,2.423749267578125,-0.08294908702373505,0.0926770567893982,0.03721342980861664
1772796372219742200,2.4337421875,-0.07963324338197708,0.0913594514131546,0.02767416089773178
1772796372229734100,2.443734130859375,-0.07734452933073044,0.07820530235767365,0.02351456880569458
1772796372239727400,2.453727294921875,-0.08251424878835678,0.08664331585168839,0.018703488633036613
1772796372249719300,2.46371923828125,-0.08185271918773651,0.10241802036762238,0.0027495557442307472
1772796372259712300,2.473712158203125,-0.07723308354616165,0.1037120446562767,-0.013671745546162128
1772796372269704400,2.483704345703125,-0.07141966372728348,0.08463022857904434,-0.02766638994216919
1772796372279696100,2.493696044921875,-0.0679784044623375,0.052288834005594254,-0.0327000617980957
1772796372289689300,2.503689453125,-0.057215772569179535,0.014628807082772255,-0.032403118908405304
1772796372299681300,2.513681396484375,-0.05098702386021614,-0.014565622434020042,-0.03535277396440506
1772796372309674200,2.52367431640625,-0.04341672360897064,-0.04735339432954788,-0.038683321326971054
1772796372319666400,2.53366650390625,-0.03562469780445099,-0.06922061741352081,-0.03417354077100754
1772796372329658400,2.543658447265625,-0.032529838383197784,-0.08046341687440872,-0.03505318611860275
1772796372339651300,2.5536513671875,-0.03180078789591789,-0.08337217569351196,-0.04103245213627815
1772796372349643300,2.563643310546875,-0.03375741094350815,-0.0740031749010086,-0.04599977657198906
1772796372359636200,2.57363623046875,-0.03489392623305321,-0.058516573160886765,-0.0484616681933403
1772796372369628200,2.583628173828125,-0.03979414328932762,-0.04830574616789818,-0.043959327042102814
1772796372379620400,2.593620361328125,-0.04346705228090286,-0.041407033801078796,-0.039678893983364105
1772796372389613000,2.603613037109375,-0.04794302582740784,-0.042017433792352676,-0.03530624881386757
1772796372399605200,2.613605224609375,-0.051308393478393555,-0.04236527159810066,-0.03060094267129898
1772796372409598500,2.623598388671875,-0.05819346383213997,-0.04055485501885414,-0.0268086027354002
1772796372419590100,2.633590087890625,-0.06681716442108154,-0.032659437507390976,-0.024509167298674583
1772796372429582300,2.643582275390625,-0.08104883134365082,-0.008161285892128944,-0.02923521213233471
1772796372439575300,2.6535751953125,-0.09350481629371643,0.011685122735798359,-0.03277376666665077
1772796372449567200,2.663567138671875,-0.10776444524526596,0.02682359516620636,-0.038636717945337296
1772796372459560200,2.673560302734375,-0.11674544960260391,0.03046073392033577,-0.046586569398641586
1772796372469552400,2.683552490234375,-0.12973450124263763,0.0202227421104908,-0.06680422276258469
1772796372479545300,2.69354541015625,-0.1381102055311203,0.0011294521391391754,-0.07824485003948212
1772796372489537300,2.703537353515625,-0.14651142060756683,-0.0108177550137043,-0.08226728439331055
1772796372499529500,2.713529541015625,-0.14579911530017853,-0.004571964498609304,-0.07778986543416977
1772796372509522200,2.723522216796875,-0.14495381712913513,-0.0007553882896900177,-0.07049547135829926
1772796372519514400,2.733514404296875,-0.14668504893779755,0.003448798321187496,-0.06471172720193863
1772796372529507000,2.743507080078125,-0.1552598923444748,0.004567858763039112,-0.060655198991298676
1772796372539499300,2.753499267578125,-0.16416813433170319,0.01286529190838337,-0.05310896411538124
1772796372549491200,2.7634912109375,-0.16668401658535004,0.023602357134222984,-0.04764016345143318
1772796372559484200,2.773484130859375,-0.16620022058486938,0.03866422548890114,-0.04218475520610809
1772796372569476400,2.783476318359375,-0.1703938990831375,0.05002899840474129,-0.0425884872674942
1772796372579469300,2.79346923828125,-0.18213629722595215,0.05726272985339165,-0.04062901437282562
1772796372589461200,2.803461181640625,-0.1882956624031067,0.061338696628808975,-0.033068299293518066
1772796372599453200,2.813453125,-0.182346373796463,0.0680268406867981,-0.020168650895357132
1772796372609446400,2.8234462890625,-0.17729541659355164,0.06807184219360352,-0.006864563561975956
1772796372619438000,2.83343798828125,-0.17138217389583588,0.060973457992076874,0.001913778018206358
1772796372629431300,2.843431396484375,-0.16840742528438568,0.04268260300159454,0.006817723158746958
1772796372639423500,2.853423583984375,-0.16930626332759857,0.031544845551252365,0.008810441009700298
1772796372649415200,2.863415283203125,-0.16441881656646729,0.02255774475634098,0.014012926258146763
1772796372659408400,2.873408447265625,-0.16428939998149872,0.02657645381987095,0.0205208919942379
1772796372669400300,2.883400390625,-0.16599488258361816,0.026906954124569893,0.02978629432618618
1772796372679393300,2.893393310546875,-0.16488736867904663,0.031245598569512367,0.034738898277282715
1772796372689385200,2.90338525390625,-0.16002710163593292,0.03315242379903793,0.03909396752715111
1772796372699378200,2.913378173828125,-0.16036081314086914,0.03841574490070343,0.039666417986154556
1772796372709370400,2.923370361328125,-0.1576278805732727,0.03890470415353775,0.035037312656641006
1772796372719362300,2.9333623046875,-0.15551164746284485,0.04047076031565666,0.024548079818487167
1772796372729355300,2.943355224609375,-0.15108387172222137,0.030070852488279343,0.017432911321520805
1772796372739347200,2.95334716796875,-0.1556735783815384,0.00952041894197464,0.008531169034540653
1772796372749340400,2.96334033203125,-0.15614868700504303,-0.009933972731232643,0.0037372130900621414
1772796372759332000,2.97333203125,-0.1596888303756714,-0.019343454390764236,0.006271476857364178
1772796372769324300,2.98332421875,-0.16774488985538483,-0.016031812876462936,0.01431582123041153
1772796372779317500,2.9933173828125,-0.17140978574752808,-0.010540910065174103,0.011089385487139225
1772796372789309200,3.00330908203125,-0.17394165694713593,-0.011496985331177711,-0.0018309399019926786
1772796372799302400,3.013302490234375,-0.17599277198314667,0.002848532050848007,-0.013079940341413021
1772796372809294300,3.02329443359375,-0.1801486313343048,0.022770576179027557,-0.022452935576438904
1772796372819286300,3.033286376953125,-0.18443986773490906,0.028476858511567116,-0.02494829148054123
1772796372829279200,3.043279296875,-0.1842513084411621,0.02175557054579258,-0.023975171148777008
1772796372839271400,3.053271484375,-0.18022948503494263,0.01357431709766388,-0.019098075106739998
1772796372849264400,3.063264404296875,-0.17227835953235626,0.002635650336742401,-0.013184260576963425
1772796372859256300,3.07325634765625,-0.1658691018819809,-0.007742932066321373,-0.009649761021137238
1772796372869248300,3.083248291015625,-0.1610298752784729,-0.017935914918780327,-0.012236489914357662
1772796372879241200,3.0932412109375,-0.15971779823303223,-0.02904786542057991,-0.024721231311559677
1772796372889233400,3.1032333984375,-0.1628294438123703,-0.03523625433444977,-0.04003387317061424
1772796372899226000,3.11322607421875,-0.161456897854805,-0.023957381024956703,-0.05379825085401535
1772796372909218300,3.12321826171875,-0.16505615413188934,-0.011512162163853645,-0.07014739513397217
1772796372919210200,3.133210205078125,-0.16821973025798798,0.010979298502206802,-0.08508160710334778
1772796372929203200,3.143203125,-0.16947194933891296,0.028986528515815735,-0.09528923034667969
1772796372939195100,3.153195068359375,-0.1675747036933899,0.041106145828962326,-0.10014770179986954
1772796372949188400,3.163188232421875,-0.16781198978424072,0.04517306014895439,-0.10333710163831711
1772796372959180300,3.17318017578125,-0.16501881182193756,0.036010585725307465,-0.09196637570858002
1772796372969172200,3.183172119140625,-0.14657455682754517,0.03977256640791893,-0.07239080965518951
1772796372979165400,3.19316552734375,-0.12011787295341492,0.030017711222171783,-0.06204870343208313
1772796372989157000,3.2031572265625,-0.08319367468357086,0.000985792838037014,-0.05405949056148529
1772796372999150300,3.213150390625,-0.039337482303380966,-0.031480662524700165,-0.04317426308989525
1772796373009142300,3.223142333984375,-0.007127081975340843,-0.042675264179706573,-0.0257265605032444
1772796373019135200,3.23313525390625,0.016497137024998665,-0.05610610917210579,-0.01001176331192255
1772796373029127400,3.24312744140625,0.03277064859867096,-0.06777635216712952,-0.003531759139150381
1772796373039119400,3.253119384765625,0.04284214973449707,-0.08868033438920975,0.0006416952237486839
1772796373049112300,3.2631123046875,0.05684931203722954,-0.09637153893709183,-0.008488420397043228
1772796373059104300,3.273104248046875,0.06371195614337921,-0.10701175779104233,-0.02258683368563652
1772796373069097200,3.28309716796875,0.0608820877969265,-0.12930642068386078,-0.029096398502588272
1772796373079089200,3.293089111328125,0.059834517538547516,-0.15449638664722443,-0.027813350781798363
1772796373089081300,3.303081298828125,0.05655376985669136,-0.15535606443881989,-0.014863729476928711
1772796373099074300,3.31307421875,0.05144445225596428,-0.12410709261894226,0.0016388301737606525
1772796373109066200,3.323066162109375,0.03760027512907982,-0.07718405872583389,0.011838470585644245
1772796373119059200,3.33305908203125,0.014542764984071255,-0.017369044944643974,0.00999011192470789
1772796373129051100,3.343051025390625,-0.015562406741082668,0.03397723287343979,-0.000642292492557317
1772796373139043000,3.35304296875,-0.0453936830163002,0.06297618895769119,-0.022364960983395576
1772796373149036300,3.363036376953125,-0.07571990042924881,0.08232644945383072,-0.05173509940505028
1772796373159028200,3.3730283203125,-0.09408510476350784,0.08938613533973694,-0.07662917673587799
1772796373169021200,3.383021240234375,-0.11248275637626648,0.08723003417253494,-0.09808865934610367
1772796373179013400,3.393013427734375,-0.12387512624263763,0.06463968753814697,-0.10877610743045807
1772796373189005000,3.403005126953125,-0.12218774855136871,0.043403636664152145,-0.10173790901899338
1772796373198998300,3.412998291015625,-0.11928751319646835,0.028985369950532913,-0.08127747476100922
1772796373208990200,3.422990234375,-0.11244159191846848,0.03175399452447891,-0.051952071487903595
1772796373218983200,3.432983154296875,-0.10310164839029312,0.04812104254961014,-0.02657964825630188
1772796373228975400,3.442975341796875,-0.0985923781991005,0.061180390417575836,-0.01406119391322136
1772796373238968000,3.452968017578125,-0.09590283036231995,0.07842056453227997,-0.01593574695289135
1772796373248960300,3.462960205078125,-0.09029927104711533,0.08286884427070618,-0.029753023758530617
1772796373258952200,3.4729521484375,-0.0903262197971344,0.07902342081069946,-0.04962756857275963
1772796373268945200,3.482945068359375,-0.08544304966926575,0.07063020020723343,-0.05573313310742378
1772796373278937000,3.49293701171875,-0.07124261558055878,0.05587631091475487,-0.060274653136730194
1772796373288930300,3.502930419921875,-0.04935622215270996,0.030338462442159653,-0.05706927180290222
1772796373298922200,3.512922119140625,-0.02075072005391121,-0.001131606288254261,-0.05124252289533615
1772796373308914200,3.5229140625,0.006678505800664425,-0.031628262251615524,-0.0377458892762661
1772796373318907100,3.5329072265625,0.03293474763631821,-0.05687328055500984,-0.01508917286992073
1772796373328899000,3.542899169921875,0.04788893088698387,-0.06947456300258636,0.009971171617507935
1772796373338892300,3.552892333984375,0.05547400936484337,-0.06977591663599014,0.02962515875697136
1772796373348884200,3.56288427734375,0.05799415707588196,-0.04959661141037941,0.04215586557984352
1772796373358876200,3.572876220703125,0.05781054496765137,-0.026654068380594254,0.04309522360563278
1772796373368869000,3.582869140625,0.05146077275276184,-0.0083384457975626,0.033243656158447266
1772796373378861300,3.592861328125,0.040154777467250824,0.015877708792686462,0.016306722536683083
1772796373388854300,3.602854248046875,0.032891273498535156,0.037376075983047485,0.00490359915420413
1772796373398846200,3.61284619140625,0.02948055788874626,0.061047524213790894,0.00018642033683136106
1772796373408838400,3.62283837890625,0.033222030848264694,0.06757493317127228,0.0068267458118498325
1772796373418831000,3.6328310546875,0.028836315497756004,0.0625656470656395,0.010899392887949944
1772796373428823300,3.6428232421875,0.02977614663541317,0.051106326282024384,0.02268254943192005
1772796373438816000,3.65281591796875,0.03651028126478195,0.056867726147174835,0.033816006034612656
1772796373448808200,3.66280810546875,0.047540031373500824,0.07694423198699951,0.0393119715154171
1772796373458800000,3.672800048828125,0.04657909646630287,0.09446525573730469,0.0357365645468235
1772796373468793000,3.68279296875,0.036601029336452484,0.09657128155231476,0.025473808869719505
1772796373478785300,3.692785400390625,0.025127744302153587,0.09406119585037231,0.010878150351345539
1772796373488778200,3.7027783203125,0.015022911131381989,0.0764976441860199,-0.006608165334910154
1772796373498770200,3.712770263671875,0.009600715711712837,0.04774190112948418,-0.02585536427795887
1772796373508763100,3.72276318359375,0.0062307510524988174,0.011264847591519356,-0.034306637942790985
1772796373518755000,3.732755126953125,0.004240420646965504,-0.015496186912059784,-0.04156586527824402
1772796373528747000,3.7427470703125,0.0011586102191358805,-0.03177156299352646,-0.04294644668698311
1772796373538740200,3.752740234375,0.00021266192197799683,-0.038129810243844986,-0.04917273297905922
1772796373548732200,3.762732177734375,-0.016543680801987648,-0.036245886236429214,-0.05686154589056969
1772796373558725000,3.77272509765625,-0.03246534615755081,-0.03167267516255379,-0.05792203173041344
1772796373568717300,3.78271728515625,-0.039820194244384766,-0.03209611773490906,-0.055802688002586365
1772796373578709200,3.792709228515625,-0.04170570895075798,0.003152472898364067,-0.03882031887769699
1772796373588702200,3.8027021484375,-0.03525499999523163,0.044787269085645676,-0.020565150305628777
1772796373598694100,3.812694091796875,-0.029331929981708527,0.06150268018245697,-0.002123834565281868
1772796373608687000,3.82268701171875,-0.025364883244037628,0.05788184702396393,0.00678257504478097
1772796373618679300,3.83267919921875,-0.019164836034178734,0.022295214235782623,0.015808898955583572
1772796373628671200,3.842671142578125,-0.015069160610437393,-0.0402938649058342,0.03743403032422066
1772796373638664200,3.852664306640625,-0.0011961006093770266,-0.06538823992013931,0.051478419452905655
1772796373648656100,3.86265625,0.00907890684902668,-0.07180486619472504,0.07766527682542801
1772796373658649000,3.872649169921875,0.007735465187579393,-0.06829715520143509,0.08809122443199158
1772796373668641000,3.88264111328125,-0.01577518694102764,-0.07137896120548248,0.0879327654838562
1772796373678633200,3.89263330078125,-0.018983619287610054,-0.05786987021565437,0.07661226391792297
1772796373688626200,3.902626220703125,-0.009991190396249294,-0.021155796945095062,0.05705534294247627
1772796373698618000,3.9126181640625,-0.00006672600284218788,0.02267720177769661,0.036528196185827255
1772796373708611300,3.922611328125,0.0020310459658503532,0.0356217622756958,0.025099242106080055
1772796373718603000,3.93260302734375,-0.004306023474782705,0.02424710802733898,0.013357945717871189
1772796373728596200,3.94259619140625,-0.012084318324923515,0.002307454589754343,0.005660877097398043
1772796373738588200,3.952588134765625,-0.011183464899659157,-0.015344364568591118,0.0057414136826992035
1772796373748580000,3.962580078125,-0.004648067522794008,-0.02148348279297352,0.00585779407992959
1772796373758573300,3.9725732421875,0.0009283691179007292,-0.03020476922392845,0.013012893497943878
1772796373768565200,3.982565185546875,0.005021913908421993,-0.02386724390089512,0.01413701381534338
1772796373778558200,3.99255810546875,0.009349528700113297,-0.006848996505141258,0.015440239571034908
1772796373788550100,4.002550048828125,0.0068421633914113045,0.005542425904422998,0.01331290602684021
1772796373798542300,4.012542236328125,0.0012984327040612698,0.01164200995117426,0.015379628166556358
1772796373808535000,4.02253515625,-0.007201578468084335,0.021013673394918442,0.013045367784798145
1772796373818527200,4.03252734375,-0.013152828440070152,0.03798520565032959,0.005744860973209143
1772796373828520200,4.042520263671875,-0.01784132421016693,0.04548360034823418,-0.002380975754931569
1772796373838512000,4.05251220703125,-0.025622468441724777,0.045649804174900055,-0.01670536771416664
1772796373848504000,4.062504150390625,-0.027466176077723503,0.03069935366511345,-0.034292351454496384
1772796373858497000,4.0724970703125,-0.025731731206178665,0.004685624502599239,-0.047625765204429626
1772796373868489200,4.0824892578125,-0.014173878356814384,-0.02734794281423092,-0.05467994511127472
1772796373878482200,4.092482177734375,0.001074605155736208,-0.05327606201171875,-0.04762590304017067
1772796373888474000,4.10247412109375,0.013775220140814781,-0.07098395377397537,-0.029198430478572845
1772796373898466000,4.112466064453125,0.030677555128932,-0.06999316811561584,-0.0005338553455658257
1772796373908459300,4.122459228515625,0.04034322872757912,-0.0391436442732811,0.0255411546677351
1772796373918451000,4.132450927734375,0.04391047731041908,-0.005152793601155281,0.033949196338653564
1772796373928444200,4.142444091796875,0.03205275535583496,0.018344275653362274,0.03604403883218765
1772796373938436400,4.152436279296875,0.017604269087314606,0.021713994443416595,0.028842786327004433
1772796373948429000,4.162428955078125,0.009706664830446243,0.008311370387673378,0.017078271135687828
1772796373958421200,4.172421142578125,0.014091264456510544,-0.0083738062530756,0.0010236239759251475
1772796373968413200,4.1824130859375,0.014270229265093803,-0.025269431993365288,-0.00980159267783165
1772796373978406100,4.19240625,0.027359643951058388,-0.03160098195075989,-0.01751263625919819
1772796373988398000,4.202398193359375,0.04235643893480301,-0.034589312970638275,-0.016773074865341187
1772796373998391000,4.21239111328125,0.0459061861038208,-0.020420348271727562,-0.016821419820189476
1772796374008383200,4.22238330078125,0.04783990606665611,-0.004311686381697655,-0.005641469266265631
1772796374018375200,4.232375244140625,0.04362132027745247,0.0024406113661825657,-0.0022450133692473173
1772796374028368100,4.2423681640625,0.03285203129053116,0.006035079713910818,0.0006157542811706662
1772796374038360000,4.252360107421875,0.02401703968644142,0.0014920211397111416,0.003515653545036912
1772796374048353300,4.262353271484375,0.021692898124456406,0.010291371494531631,0.0014309310354292393
1772796374058345000,4.272344970703125,0.03267393261194229,0.019754264503717422,0.007178157567977905
1772796374068337200,4.282337158203125,0.05287693813443184,0.03283810615539551,0.012507941573858261
1772796374078330400,4.292330322265625,0.06878889352083206,0.03078126162290573,0.015395686030387878
1772796374088322000,4.302322021484375,0.06933324038982391,0.0226956345140934,0.02275879494845867
1772796374098315300,4.312315185546875,0.06513578444719315,0.016607774421572685,0.021111803129315376
1772796374108307200,4.32230712890625,0.06523751467466354,-0.005868507549166679,0.015729553997516632
1772796374118299100,4.332299072265625,0.07238982617855072,-0.03548567369580269,0.005994492210447788
1772796374128292000,4.3422919921875,0.08100861310958862,-0.05575259402394295,-0.005077067296952009
1772796374138284300,4.3522841796875,0.0861385241150856,-0.06831382215023041,-0.019244059920310974
1772796374148277200,4.36227734375,0.08711937069892883,-0.06241678446531296,-0.027202917262911797
1772796374158269400,4.37226953125,0.09111639857292175,-0.05461501330137253,-0.03287741541862488
1772796374168261400,4.382261474609375,0.09909629821777344,-0.0381351038813591,-0.025515371933579445
1772796374178254300,4.39225439453125,0.10504288226366043,-0.009015953168272972,-0.013983492739498615
1772796374188246300,4.402246337890625,0.11248216032981873,0.009027229622006416,0.00582962715998292
1772796374198239200,4.4122392578125,0.10784552991390228,0.020361939445137978,0.024134833365678787
1772796374208231200,4.422231201171875,0.09248654544353485,0.02706032060086727,0.03853081911802292
1772796374218223400,4.432223388671875,0.07507549971342087,0.018076295033097267,0.04493476450443268
1772796374228216300,4.44221630859375,0.06178686395287514,-0.0002622324973344803,0.03409489989280701
1772796374238208300,4.452208251953125,0.049074795097112656,-0.011251499876379967,0.010687044821679592
1772796374248201500,4.462201416015625,0.03334430232644081,-0.03100469894707203,-0.0255119726061821
1772796374258193200,4.472193115234375,0.009507897309958935,-0.051567524671554565,-0.07100780308246613
1772796374268186400,4.482186279296875,-0.019647324457764626,-0.08709436655044556,-0.11239492148160934
1772796374278178300,4.49217822265625,-0.0351305827498436,-0.13194693624973297,-0.1437004953622818
1772796374288170200,4.502170166015625,-0.05602867156267166,-0.14441612362861633,-0.16691207885742188
1772796374298163500,4.51216357421875,-0.07798933982849121,-0.12971745431423187,-0.18058142066001892
1772796374308155400,4.5221552734375,-0.10615573078393936,-0.09479568898677826,-0.19290758669376373
1772796374318148400,4.5321484375,-0.1214178279042244,-0.06089986488223076,-0.1988239735364914
1772796374328140300,4.542140380859375,-0.12230013310909271,-0.03239978104829788,-0.18206870555877686
1772796374338132500,4.552132568359375,-0.11855467408895493,0.0010012327693402767,-0.1401217132806778
1772796374348125200,4.562125244140625,-0.10590173304080963,0.031809743493795395,-0.07964559644460678
1772796374358117400,4.572117431640625,-0.09804454445838928,0.061362218111753464,-0.01857440546154976
1772796374368110300,4.5821103515625,-0.09726610034704208,0.06635777652263641,0.045047711580991745
1772796374378102300,4.592102294921875,-0.09439744800329208,0.06090264767408371,0.10155751556158066
1772796374388094500,4.602094482421875,-0.0953734964132309,0.05998598784208298,0.14526531100273132
1772796374398087200,4.612087158203125,-0.09611600637435913,0.05878661945462227,0.1688022017478943
1772796374408079400,4.622079345703125,-0.10185512155294418,0.05577937886118889,0.16518297791481018
1772796374418072300,4.632072265625,-0.10527928173542023,0.04463336989283562,0.14366503059864044
1772796374428064300,4.642064208984375,-0.10562043637037277,0.03543640673160553,0.10685933381319046
1772796374438056200,4.65205615234375,-0.10158024728298187,0.03187664970755577,0.0666830837726593
1772796374448049400,4.66204931640625,-0.10542052239179611,0.024502888321876526,0.03388465195894241
1772796374458041000,4.672041015625,-0.10797479748725891,0.014565893448889256,0.012917269952595234
1772796374468034300,4.682034423828125,-0.08546149730682373,0.0036458680406212807,0.003549600951373577
1772796374478026500,4.692026611328125,-0.06744663417339325,0.009383591823279858,0.015993786975741386
1772796374488019200,4.702019287109375,-0.051957421004772186,0.018910784274339676,0.03316212072968483
1772796374498011400,4.712011474609375,-0.041305702179670334,0.02254348061978817,0.04814840108156204
1772796374508003300,4.72200341796875,-0.03261527419090271,0.008655895479023457,0.0563322938978672
1772796374517996300,4.731996337890625,-0.02841133065521717,-0.015371469780802727,0.05945277959108353
1772796374527988200,4.74198828125,-0.032534170895814896,-0.03236163780093193,0.05201510339975357
1772796374537981200,4.751981201171875,-0.031098483130335808,-0.044917792081832886,0.03755907714366913
1772796374547973400,4.761973388671875,-0.02672184444963932,-0.04494841769337654,0.028159717097878456
1772796374557965300,4.77196533203125,-0.018435684964060783,-0.03650486469268799,0.013232964091002941
1772796374567958300,4.781958251953125,-0.01011197455227375,-0.025044750422239304,0.0024269218556582928
1772796374577950200,4.7919501953125,-0.004983332008123398,-0.012868482619524002,-0.006147955544292927
1772796374587943400,4.801943359375,-0.0000056175049394369125,-0.012367542833089828,-0.008620433509349823
1772796374597935000,4.81193505859375,0.0037726310547441244,-0.02307836152613163,0.000001941225491464138
1772796374607927300,4.82192724609375,0.0024543663021177053,-0.04354182630777359,0.007484358735382557
1772796374617920500,4.83192041015625,-0.002202775562182069,-0.062028661370277405,0.014556617476046085
1772796374627912200,4.841912109375,-0.0035119852982461452,-0.077003613114357,0.02453814446926117
1772796374637905400,4.851905517578125,-0.004625847563147545,-0.07526068389415741,0.031359441578388214
1772796374647897300,4.8618974609375,-0.012096812948584557,-0.05254499241709709,0.02994344010949135
1772796374657889300,4.87188916015625,-0.018985172733664513,-0.010906854644417763,0.014650079421699047
1772796374667882200,4.88188232421875,-0.031820811331272125,0.020733894780278206,0.0006873923703096807
1772796374677874400,4.89187451171875,-0.0518040768802166,0.029645036906003952,-0.01768464408814907
1772796374687867400,4.901867431640625,-0.06346952170133591,0.03388825058937073,-0.034506767988204956
1772796374697859300,4.911859375,-0.0687561109662056,0.04298702999949455,-0.04897687956690788
1772796374707851500,4.9218515625,-0.07587660849094391,0.0534583143889904,-0.05726144090294838
1772796374717844200,4.93184423828125,-0.07824389636516571,0.054642029106616974,-0.05840226262807846
1772796374727836400,4.94183642578125,-0.0753312036395073,0.043215472251176834,-0.04721618816256523
1772796374737829000,4.9518291015625,-0.06856728345155716,0.03003830276429653,-0.033256035298109055
1772796374747821300,4.9618212890625,-0.05413800850510597,0.02016463316977024,-0.016429651528596878
1772796374757814500,4.971814453125,-0.04386403411626816,0.011229930445551872,0.0014529882464557886
1772796374767806200,4.98180615234375,-0.03636963292956352,0.006662075873464346,0.015912089496850967
1772796374777798400,4.99179833984375,-0.03534712269902229,0.015723008662462234,0.02467542327940464
1772796374787791400,5.001791259765625,-0.030254095792770386,0.02430504560470581,0.031448908150196075
1772796374797783300,5.011783203125,-0.029331015422940254,0.036822374910116196,0.03056345321238041
1772796374807776300,5.0217763671875,-0.02611684612929821,0.03931376338005066,0.03334645554423332
1772796374817768400,5.0317685546875,-0.016475476324558258,0.03571293130517006,0.025512205436825752
1772796374827760000,5.041760009765625,-0.010766991414129734,0.023472510278224945,0.014886192046105862
1772796374837753300,5.05175341796875,0.002764069940894842,0.007185119204223156,0.0025483309291303158
1772796374847745500,5.06174560546875,0.007342842407524586,-0.016843784600496292,-0.020603859797120094
1772796374857738200,5.07173828125,0.006826953962445259,-0.03769579529762268,-0.03037043660879135
1772796374867730400,5.08173046875,0.0024159608874469995,-0.03550827503204346,-0.04102787747979164
1772796374877722400,5.091722412109375,-0.0014076274819672108,-0.0162036195397377,-0.04341776669025421
1772796374887715300,5.10171533203125,-0.007741689682006836,-0.00405081594362855,-0.046450573951005936
1772796374897707300,5.111707275390625,-0.002633331809192896,0.014868281781673431,-0.044011399149894714
1772796374907700200,5.1217001953125,-0.007676826324313879,0.03735814616084099,-0.04543645679950714
1772796374917692400,5.1316923828125,-0.007341272197663784,0.06176036223769188,-0.047367438673973083
1772796374927684400,5.141684326171875,-0.008000138215720654,0.08409470319747925,-0.05524160712957382
1772796374937677300,5.15167724609375,-0.0026099453680217266,0.09447353333234787,-0.06270616501569748
1772796374947669200,5.161669189453125,-0.0019675910007208586,0.07500077039003372,-0.0597710944712162
1772796374957662500,5.171662353515625,0.007180484477430582,0.04600480571389198,-0.05497046560049057
1772796374967654100,5.181654052734375,0.01798279955983162,0.010941626504063606,-0.04233856126666069
1772796374977647400,5.1916474609375,0.021947158500552177,-0.027034133672714233,-0.0157408956438303
1772796374987639600,5.2016396484375,0.033368922770023346,-0.055029015988111496,0.00874447263777256
1772796374997631200,5.21163134765625,0.042397692799568176,-0.06898471713066101,0.02741636522114277
1772796375007624400,5.22162451171875,0.03909670561552048,-0.09025325626134872,0.049833256751298904
1772796375017616400,5.231616455078125,0.02887619286775589,-0.10445579886436462,0.06260436773300171
1772796375027608300,5.2416083984375,0.026333406567573547,-0.11031422019004822,0.07010942697525024
1772796375037601300,5.251601318359375,0.024121001362800598,-0.09676086902618408,0.07890929281711578
1772796375047593500,5.261593505859375,0.0313970223069191,-0.0744025707244873,0.08381137251853943
1772796375057586200,5.271586181640625,0.03147570788860321,-0.056303929537534714,0.08039794117212296
1772796375067578400,5.281578369140625,0.028007740154862404,-0.04328932613134384,0.07957156002521515
1772796375077571300,5.2915712890625,0.029152268543839455,-0.024463355541229248,0.07050501555204391
1772796375087563300,5.301563232421875,0.038120731711387634,-0.0027767005376517773,0.06392034888267517
1772796375097555500,5.311555419921875,0.04475468397140503,-0.000490228645503521,0.05403241887688637
1772796375107548200,5.321548095703125,0.047847680747509,0.0024738693609833717,0.04749063029885292
1772796375117540400,5.331540283203125,0.05060228705406189,0.013309917412698269,0.037730492651462555
1772796375127533300,5.341533203125,0.049435824155807495,0.01816512644290924,0.02986164763569832
1772796375137525200,5.351525146484375,0.04355935752391815,0.012118598446249962,0.03245727717876434
1772796375147517400,5.361517333984375,0.030836373567581177,0.003046540543437004,0.038847263902425766
1772796375157510400,5.371510498046875,0.014679168350994587,0.0016524042002856731,0.05899351090192795
1772796375167502300,5.38150244140625,-0.0018689148128032684,0.016118161380290985,0.07628621906042099
1772796375177495600,5.39149560546875,-0.0185930784791708,0.03521672636270523,0.09111817926168442
1772796375187487500,5.401487548828125,-0.028022265061736107,0.02992156147956848,0.09677073359489441
1772796375197479400,5.4114794921875,-0.03256949782371521,0.018396202474832535,0.09652867168188095
1772796375207472600,5.42147265625,-0.03757224604487419,0.017453709617257118,0.09217440336942673
1772796375217464300,5.43146435546875,-0.04177631065249443,0.023876188322901726,0.07924848049879074
1772796375227457500,5.44145751953125,-0.04642299562692642,0.026351597160100937,0.0638442263007164
1772796375237449500,5.451449462890625,-0.04645269736647606,0.012607140466570854,0.04488503932952881
1772796375247441400,5.46144140625,-0.04331069812178612,-0.0188908651471138,0.021231111139059067
1772796375257434600,5.4714345703125,-0.042628590017557144,-0.04677499085664749,0.00989752821624279
1772796375267426600,5.481426513671875,-0.039811231195926666,-0.04981445521116257,0.008312680758535862
1772796375277419500,5.49141943359375,-0.036145634949207306,-0.027033895254135132,0.008265667594969273
1772796375287411500,5.501411376953125,-0.03299431502819061,-0.002151716034859419,0.01495872437953949
1772796375297404400,5.511404296875,-0.025800513103604317,0.010709192603826523,0.024644138291478157
1772796375307396400,5.521396240234375,-0.01955220475792885,0.011646091938018799,0.03501342609524727
1772796375317388500,5.531388427734375,-0.009785978123545647,0.008334185928106308,0.048963844776153564
1772796375327381500,5.541381591796875,-0.0020646746270358562,0.012029856443405151,0.06217179074883461
1772796375337373400,5.55137353515625,0.001299570081755519,0.018920665606856346,0.07438705116510391
1772796375347366700,5.56136669921875,-0.0003507909132167697,0.01918511837720871,0.08012163639068604
1772796375357358300,5.5713583984375,-0.006973124109208584,0.01108750980347395,0.08540613204240799
1772796375367350500,5.5813505859375,-0.007968347519636154,-0.003303946927189827,0.08673878014087677
1772796375377343500,5.591343505859375,-0.00971520971506834,-0.011681835167109966,0.0860762894153595
1772796375387335400,5.60133544921875,-0.014883606694638729,-0.014516770839691162,0.08323656022548676
1772796375397328600,5.61132861328125,-0.016723472625017166,-0.020530512556433678,0.07172753661870956
1772796375407320600,5.621320556640625,-0.019956285133957863,-0.03960087522864342,0.06029752269387245
1772796375417312500,5.6313125,-0.021276602521538734,-0.05851808190345764,0.04851618409156799
1772796375427305500,5.641305419921875,-0.026394398882985115,-0.07456070184707642,0.04243592172861099
1772796375437297700,5.651297607421875,-0.03209300711750984,-0.08070552349090576,0.03531448543071747
1772796375447290400,5.661290283203125,-0.04242261126637459,-0.0705767273902893,0.03531049191951752
1772796375457282600,5.671282470703125,-0.05146191269159317,-0.06525333225727081,0.0415276400744915
1772796375467274500,5.6812744140625,-0.06281363219022751,-0.056363970041275024,0.04749631509184837
1772796375477267500,5.691267333984375,-0.06871895492076874,-0.044101323932409286,0.04885866492986679
1772796375487259600,5.701259765625,-0.07619551569223404,-0.036686286330223083,0.04842403903603554
1772796375497252400,5.71125244140625,-0.08763710409402847,-0.030026845633983612,0.03865242749452591
1772796375507244500,5.72124462890625,-0.09520181268453598,-0.0235135518014431,0.028632553294301033
1772796375517236500,5.731236572265625,-0.09246598184108734,-0.01606915518641472,0.017451491206884384
1772796375527229400,5.7412294921875,-0.08571326732635498,-0.00042947567999362946,0.009713675826787949
1772796375537221400,5.751221435546875,-0.08132194727659225,0.016839729622006416,0.006581045687198639
1772796375547214600,5.761214599609375,-0.08228307962417603,0.027587980031967163,0.0077339280396699905
1772796375557206500,5.77120654296875,-0.08742908388376236,0.027108822017908096,0.011428579688072205
1772796375567199500,5.781199462890625,-0.09528381377458572,0.019221071153879166,0.016839589923620224
1772796375577191700,5.791191650390625,-0.09643734991550446,0.00667006429284811,0.016930466517806053
1772796375587183400,5.801183349609375,-0.08801350742578506,-0.006391409318894148,0.02293003536760807
1772796375597176600,5.811176513671875,-0.07422433793544769,-0.022572774440050125,0.03211875632405281
1772796375607168500,5.82116845703125,-0.05797852203249931,-0.03691842406988144,0.04281427711248398
1772796375617161500,5.831161376953125,-0.042692653834819794,-0.04232218861579895,0.047937601804733276
1772796375627153700,5.841153564453125,-0.029628252610564232,-0.04284363240003586,0.05283968150615692
1772796375637145600,5.8511455078125,-0.022659070789813995,-0.04216349124908447,0.05347752571105957
1772796375647138600,5.861138671875,-0.020137056708335876,-0.030322812497615814,0.050676681101322174
1772796375657130500,5.871130615234375,-0.019307292997837067,-0.014704998582601547,0.04986020177602768
1772796375667123500,5.88112353515625,-0.02377767488360405,-0.0062350803054869175,0.050373926758766174
1772796375677115400,5.891115478515625,-0.03350486978888512,-0.0025117145851254463,0.04150639846920967
1772796375687107600,5.901107666015625,-0.045239292085170746,-0.004347165115177631,0.03519390895962715
1772796375697100300,5.911100341796875,-0.051347196102142334,-0.015511786565184593,0.01910451427102089
1772796375707092500,5.921092529296875,-0.0523219108581543,-0.021350234746932983,0.004064579028636217
1772796375717085700,5.931085693359375,-0.05384727567434311,-0.014983831904828548,-0.008173555135726929
1772796375727077400,5.941077392578125,-0.05783189833164215,0.0011464022099971771,-0.020623300224542618
1772796375737069600,5.951069580078125,-0.058581240475177765,0.009400839917361736,-0.02958587184548378
1772796375747062500,5.9610625,-0.054966796189546585,0.003861730918288231,-0.036288782954216
1772796375757054500,5.971054443359375,-0.05080127716064453,0.0037178914062678814,-0.04096020385622978
1772796375767047400,5.98104736328125,-0.044144440442323685,0.008847139775753021,-0.030747245997190475
1772796375777039600,5.99103955078125,-0.0471949465572834,0.02776404470205307,-0.01875496841967106
1772796375787031300,6.00103125,-0.05037076398730278,0.04581388458609581,-0.0028881211765110493
1772796375797024500,6.0110244140625,-0.05660677328705788,0.06498553603887558,0.012478224001824856
1772796375807016700,6.0210166015625,-0.05741743743419647,0.06968121975660324,0.019912438467144966
1772796375817009400,6.031009521484375,-0.053265251219272614,0.07134292274713516,0.025983478873968124
1772796375827001600,6.041001708984375,-0.04788247123360634,0.07744050025939941,0.020810021087527275
1772796375836993500,6.05099365234375,-0.03411209583282471,0.078425332903862,0.004967169836163521
1772796375846986500,6.060986572265625,-0.01782047189772129,0.06901318579912186,-0.009099912829697132
1772796375856978400,6.070978515625,-0.003190952353179455,0.05462877079844475,-0.020176123827695847
1772796375866971400,6.080971435546875,0.009485427290201187,0.038360852748155594,-0.021800385788083076
1772796375876963600,6.090963623046875,0.02353578805923462,0.02349204756319523,-0.02120906673371792
1772796375886956500,6.10095654296875,0.031510621309280396,0.003017930779606104,-0.010939119383692741
1772796375896948500,6.110948486328125,0.03945261985063553,-0.011797861196100712,0.0031943977810442448
1772796375906940400,6.1209404296875,0.047494035214185715,-0.010217541828751564,0.024423519149422646
1772796375916933600,6.13093359375,0.04611122980713844,0.012911360710859299,0.03690400347113609
1772796375926925300,6.14092529296875,0.04116760194301605,0.035629723221063614,0.04667354375123978
1772796375936918500,6.15091845703125,0.03743930160999298,0.051581911742687225,0.05344369262456894
1772796375946910700,6.16091064453125,0.038728006184101105,0.07554423809051514,0.048546936362981796
1772796375956902400,6.17090234375,0.044011231511831284,0.08731169998645782,0.03877045586705208
1772796375966895600,6.1808955078125,0.05059003829956055,0.07629261165857315,0.024647710844874382
1772796375976887600,6.190887451171875,0.054463960230350494,0.05028371140360832,0.01565312035381794
1772796375986880500,6.200880615234375,0.048507265746593475,0.03407011926174164,0.0035346723161637783
1772796375996872400,6.21087255859375,0.04429183527827263,0.017534639686346054,0.001581651857122779
1772796376006864600,6.22086474609375,0.03690022975206375,0.01990911364555359,0.013286511413753033
1772796376016857600,6.230857666015625,0.02881939522922039,0.04299972578883171,0.021001232787966728
1772796376026849500,6.240849609375,0.01618029922246933,0.06253853440284729,0.034343935549259186
1772796376036842500,6.250842529296875,0.010084539651870728,0.07110477238893509,0.0415063351392746
1772796376046834400,6.26083447265625,0.005885799415409565,0.05547920614480972,0.04046157747507095
1772796376056826600,6.27082666015625,0.00903189554810524,0.03042842447757721,0.036198657006025314
1772796376066819300,6.2808193359375,0.011014618910849094,0.007624574936926365,0.029361259192228317
1772796376076811500,6.2908115234375,0.013823112472891808,0.0024422956630587578,0.0206341240555048
1772796376086804700,6.3008046875,0.013793285936117172,0.00718032568693161,0.016034046187996864
1772796376096796400,6.31079638671875,0.016382144764065742,0.017370380461215973,0.019479909911751747
1772796376106788600,6.32078857421875,0.011089378036558628,0.027425676584243774,0.021346254274249077
1772796376116781600,6.330781494140625,0.007197117432951927,0.039607953280210495,0.02942371368408203
1772796376126773500,6.3407734375,0.008091406896710396,0.04419871047139168,0.03995225578546524
1772796376136766500,6.350766357421875,0.010323668830096722,0.04572843015193939,0.047815773636102676
1772796376146758000,6.3607578125,0.015492863953113556,0.04954526945948601,0.05811421573162079
1772796376156750800,6.370750732421875,0.013582291081547737,0.043513596057891846,0.061382319778203964
1772796376166742800,6.38074267578125,0.011710087768733501,0.03485912084579468,0.060902152210474014
1772796376176735000,6.39073486328125,0.005123689770698547,0.020553255453705788,0.05849887430667877
1772796376186728000,6.40072802734375,0.0003342609852552414,0.009483827278017998,0.05291129648685455
1772796376196719900,6.410719970703125,0.00163460080511868,0.014083624817430973,0.04562590271234512
1772796376206713000,6.420713134765625,0.0023272887337952852,0.028267353773117065,0.03409681096673012
1772796376216704800,6.430704833984375,-0.0008095537777990103,0.029444590210914612,0.024111712351441383
1772796376226697000,6.440697021484375,-0.00893405918031931,0.02124897763133049,0.01382365357130766
1772796376236690000,6.45068994140625,-0.011026072315871716,0.012597255408763885,0.010628314688801765
1772796376246681900,6.460681884765625,-0.008572235703468323,0.011149827390909195,0.011226460337638855
1772796376256675000,6.470675048828125,-0.005281700752675533,0.026441257447004318,0.013440503738820553
1772796376266667000,6.4806669921875,-0.006009010598063469,0.04630471020936966,0.016842424869537354
1772796376276659000,6.490658935546875,0.001467227004468441,0.044276829808950424,0.023540712893009186
1772796376286652000,6.50065185546875,0.005810842849314213,0.062453173100948334,0.01844502054154873
1772796376296644000,6.51064404296875,0.01287185400724411,0.09685656428337097,0.006458775140345097
1772796376306636800,6.52063671875,0.004342281259596348,0.17896369099617004,0.04946962743997574
1772796376316629000,6.53062890625,0.001282169483602047,0.18268318474292755,0.10642384737730026
1772796376326621000,6.540620849609375,0.02227160707116127,0.1488402634859085,0.14195361733436584
1772796376336614000,6.55061376953125,0.059005796909332275,0.061228323727846146,0.15507879853248596
1772796376346605800,6.560605712890625,0.08143653720617294,-0.06941357254981995,0.142671138048172
1772796376356598800,6.570598876953125,0.09531978517770767,-0.13638225197792053,0.10992920398712158
1772796376366591000,6.580591064453125,0.10053505003452301,-0.1366938352584839,0.051048051565885544
1772796376376583000,6.5905830078125,0.09398892521858215,-0.09512219578027725,-0.020599190145730972
1772796376386576000,6.600575927734375,0.08047391474246979,-0.04615890979766846,-0.10540249943733215
1772796376396567800,6.61056787109375,0.06842808425426483,-0.02486879751086235,-0.17928235232830048
1772796376406561000,6.62056103515625,0.05205204337835312,-0.017028450965881348,-0.21329598128795624
1772796376416552700,6.630552734375,0.04926525801420212,0.017127763479948044,-0.192026749253273
